key_resp_instr_a.keys,key_resp_instr_a.rt,key_resp_instr_b.keys,key_resp_instr_b.rt,dummy.thisRepN,dummy.thisTrialN,dummy.thisN,dummy.thisIndex,dummy.ran,participant,date,expName,psychopyVersion,OS,frameRate,key_resp_instr1.keys,key_resp_instr1.rt,key_resp.keys,key_resp.rt,exp_loop.thisRepN,exp_loop.thisTrialN,exp_loop.thisN,exp_loop.thisIndex,exp_loop.ran,Word,English,Flip,Path,Audio,key_resp_instr2.keys,key_resp_instr2.rt,key_resp_fct.keys,key_resp_fct.corr,key_resp_fct.rt,trials.thisRepN,trials.thisTrialN,trials.thisN,trials.thisIndex,trials.ran,fct_loop.thisRepN,fct_loop.thisTrialN,fct_loop.thisN,fct_loop.thisIndex,fct_loop.ran,left_img,word,right_img,correctans,correct_img,audio,incorrect_feedback,trials_2.thisRepN,trials_2.thisTrialN,trials_2.thisN,trials_2.thisIndex,trials_2.ran,key_resp_instr3.keys,key_resp_instr3.rt,textbox.text,key_resp_2.keys,key_resp_2.rt,fb_yn.thisRepN,fb_yn.thisTrialN,fb_yn.thisN,fb_yn.thisIndex,fb_yn.ran,gather_loop.thisRepN,gather_loop.thisTrialN,gather_loop.thisN,gather_loop.thisIndex,gather_loop.ran,Text,Wordbank,key_resp_instr4.keys,key_resp_instr4.rt,master_loop.thisRepN,master_loop.thisTrialN,master_loop.thisN,master_loop.thisIndex,master_loop.ran,exposure_file,instr_1,exp_reps,fct_file,instr_2,gather_file,gather_reps,instr_3,fReps,instr_4,NegVSentence,VNegSentence,NegTF
space,4.8799,space,11.6945,0,0,0,0,1,R_1gMFlk8MiIaGlf2,2022-09-13_17h59.58.751,jpn_C03,2022.1.2,Win32,60.37189085,,,,,,,,,,,,,,,,,,,,,,,,,,,,,,,,,,,,,,,,,,,,,,,,,,,,,,,,,,,,,,,,,,,,,,,,,,,,,,
,,,,,,,,,R_1gMFlk8MiIaGlf2,2022-09-13_17h59.58.751,jpn_C03,2022.1.2,Win32,60.37189085,space,7.9688,space,12.622,0,0,0,3,1,ムク,cowboy,,CartoonStims/cowboy_r.jpg,audio/muku.mp3,,,,,,,,,,,,,,,,,,,,,,,,,,,,,,,,,,,,,,,,,,,,,,,,,,,,,,,,,,,,,,,,
,,,,,,,,,R_1gMFlk8MiIaGlf2,2022-09-13_17h59.58.751,jpn_C03,2022.1.2,Win32,60.37189085,,,space,8.7155,0,1,1,2,1,ホレト,chef,,CartoonStims/chef_r.jpg,audio/horeto.mp3,,,,,,,,,,,,,,,,,,,,,,,,,,,,,,,,,,,,,,,,,,,,,,,,,,,,,,,,,,,,,,,,
,,,,,,,,,R_1gMFlk8MiIaGlf2,2022-09-13_17h59.58.751,jpn_C03,2022.1.2,Win32,60.37189085,,,space,9.1341,0,2,2,5,1,ドキ,boxer,,CartoonStims/boxer_r.jpg,audio/doki.mp3,,,,,,,,,,,,,,,,,,,,,,,,,,,,,,,,,,,,,,,,,,,,,,,,,,,,,,,,,,,,,,,,
,,,,,,,,,R_1gMFlk8MiIaGlf2,2022-09-13_17h59.58.751,jpn_C03,2022.1.2,Win32,60.37189085,,,space,8.2526,0,3,3,4,1,ピポ,doctor,,CartoonStims/doctor_r.jpg,audio/pipo.mp3,,,,,,,,,,,,,,,,,,,,,,,,,,,,,,,,,,,,,,,,,,,,,,,,,,,,,,,,,,,,,,,,
,,,,,,,,,R_1gMFlk8MiIaGlf2,2022-09-13_17h59.58.751,jpn_C03,2022.1.2,Win32,60.37189085,,,space,6.556,0,4,4,1,1,ルピン,burglar,,CartoonStims/burglar_r.jpg,audio/lupin.mp3,,,,,,,,,,,,,,,,,,,,,,,,,,,,,,,,,,,,,,,,,,,,,,,,,,,,,,,,,,,,,,,,
,,,,,,,,,R_1gMFlk8MiIaGlf2,2022-09-13_17h59.58.751,jpn_C03,2022.1.2,Win32,60.37189085,,,space,9.4632,0,5,5,0,1,シド,artist,,CartoonStims/artist_r.jpg,audio/sido.mp3,,,,,,,,,,,,,,,,,,,,,,,,,,,,,,,,,,,,,,,,,,,,,,,,,,,,,,,,,,,,,,,,
,,,,,,,,,R_1gMFlk8MiIaGlf2,2022-09-13_17h59.58.751,jpn_C03,2022.1.2,Win32,60.37189085,,,space,3.7343,1,0,6,1,1,ルピン,burglar,,CartoonStims/burglar_r.jpg,audio/lupin.mp3,,,,,,,,,,,,,,,,,,,,,,,,,,,,,,,,,,,,,,,,,,,,,,,,,,,,,,,,,,,,,,,,
,,,,,,,,,R_1gMFlk8MiIaGlf2,2022-09-13_17h59.58.751,jpn_C03,2022.1.2,Win32,60.37189085,,,space,4.9198,1,1,7,3,1,ムク,cowboy,,CartoonStims/cowboy_r.jpg,audio/muku.mp3,,,,,,,,,,,,,,,,,,,,,,,,,,,,,,,,,,,,,,,,,,,,,,,,,,,,,,,,,,,,,,,,
,,,,,,,,,R_1gMFlk8MiIaGlf2,2022-09-13_17h59.58.751,jpn_C03,2022.1.2,Win32,60.37189085,,,space,4.6518,1,2,8,5,1,ドキ,boxer,,CartoonStims/boxer_r.jpg,audio/doki.mp3,,,,,,,,,,,,,,,,,,,,,,,,,,,,,,,,,,,,,,,,,,,,,,,,,,,,,,,,,,,,,,,,
,,,,,,,,,R_1gMFlk8MiIaGlf2,2022-09-13_17h59.58.751,jpn_C03,2022.1.2,Win32,60.37189085,,,space,6.7343,1,3,9,2,1,ホレト,chef,,CartoonStims/chef_r.jpg,audio/horeto.mp3,,,,,,,,,,,,,,,,,,,,,,,,,,,,,,,,,,,,,,,,,,,,,,,,,,,,,,,,,,,,,,,,
,,,,,,,,,R_1gMFlk8MiIaGlf2,2022-09-13_17h59.58.751,jpn_C03,2022.1.2,Win32,60.37189085,,,space,1.653,1,4,10,4,1,ピポ,doctor,,CartoonStims/doctor_r.jpg,audio/pipo.mp3,,,,,,,,,,,,,,,,,,,,,,,,,,,,,,,,,,,,,,,,,,,,,,,,,,,,,,,,,,,,,,,,
,,,,,,,,,R_1gMFlk8MiIaGlf2,2022-09-13_17h59.58.751,jpn_C03,2022.1.2,Win32,60.37189085,,,space,2.8631,1,5,11,0,1,シド,artist,,CartoonStims/artist_r.jpg,audio/sido.mp3,,,,,,,,,,,,,,,,,,,,,,,,,,,,,,,,,,,,,,,,,,,,,,,,,,,,,,,,,,,,,,,,
,,,,,,,,,R_1gMFlk8MiIaGlf2,2022-09-13_17h59.58.751,jpn_C03,2022.1.2,Win32,60.37189085,,,space,3.6799,2,0,12,4,1,ピポ,doctor,,CartoonStims/doctor_r.jpg,audio/pipo.mp3,,,,,,,,,,,,,,,,,,,,,,,,,,,,,,,,,,,,,,,,,,,,,,,,,,,,,,,,,,,,,,,,
,,,,,,,,,R_1gMFlk8MiIaGlf2,2022-09-13_17h59.58.751,jpn_C03,2022.1.2,Win32,60.37189085,,,space,4.4783,2,1,13,0,1,シド,artist,,CartoonStims/artist_r.jpg,audio/sido.mp3,,,,,,,,,,,,,,,,,,,,,,,,,,,,,,,,,,,,,,,,,,,,,,,,,,,,,,,,,,,,,,,,
,,,,,,,,,R_1gMFlk8MiIaGlf2,2022-09-13_17h59.58.751,jpn_C03,2022.1.2,Win32,60.37189085,,,space,2.6756,2,2,14,2,1,ホレト,chef,,CartoonStims/chef_r.jpg,audio/horeto.mp3,,,,,,,,,,,,,,,,,,,,,,,,,,,,,,,,,,,,,,,,,,,,,,,,,,,,,,,,,,,,,,,,
,,,,,,,,,R_1gMFlk8MiIaGlf2,2022-09-13_17h59.58.751,jpn_C03,2022.1.2,Win32,60.37189085,,,space,2.3819,2,3,15,1,1,ルピン,burglar,,CartoonStims/burglar_r.jpg,audio/lupin.mp3,,,,,,,,,,,,,,,,,,,,,,,,,,,,,,,,,,,,,,,,,,,,,,,,,,,,,,,,,,,,,,,,
,,,,,,,,,R_1gMFlk8MiIaGlf2,2022-09-13_17h59.58.751,jpn_C03,2022.1.2,Win32,60.37189085,,,space,1.4939,2,4,16,5,1,ドキ,boxer,,CartoonStims/boxer_r.jpg,audio/doki.mp3,,,,,,,,,,,,,,,,,,,,,,,,,,,,,,,,,,,,,,,,,,,,,,,,,,,,,,,,,,,,,,,,
,,,,,,,,,R_1gMFlk8MiIaGlf2,2022-09-13_17h59.58.751,jpn_C03,2022.1.2,Win32,60.37189085,,,space,1.2697,2,5,17,3,1,ムク,cowboy,,CartoonStims/cowboy_r.jpg,audio/muku.mp3,,,,,,,,,,,,,,,,,,,,,,,,,,,,,,,,,,,,,,,,,,,,,,,,,,,,,,,,,,,,,,,,
,,,,,,,,,R_1gMFlk8MiIaGlf2,2022-09-13_17h59.58.751,jpn_C03,2022.1.2,Win32,60.37189085,,,,,,,,,,,,,,,space,4.6429,left,1,2.3644,0,0,0,0,1,,,,,,,,,,,,,,,,,,,,,,,,,,,,,,,,,,,,,,,,,,,,,,,,,,,,,,
,,,,,,,,,R_1gMFlk8MiIaGlf2,2022-09-13_17h59.58.751,jpn_C03,2022.1.2,Win32,60.37189085,,,,,,,,,,,,,,,,,,,,,,,,,0,0,0,5,1,CartoonStims/boxer_r.jpg,ドキ,CartoonStims/artist_r.jpg,left,CartoonStims/boxer_r.jpg,audio/doki.mp3,残念！ こちらが正しい画像です。,,,,,,,,,,,,,,,,,,,,,,,,,,,,,,,,,,,,,,,,,,
,,,,,,,,,R_1gMFlk8MiIaGlf2,2022-09-13_17h59.58.751,jpn_C03,2022.1.2,Win32,60.37189085,,,,,,,,,,,,,,,,,right,1,1.2702,,,,,,,,,,,,,,,,,,0,0,0,0,1,,,,,,,,,,,,,,,,,,,,,,,,,,,,,,,,,,,,,
,,,,,,,,,R_1gMFlk8MiIaGlf2,2022-09-13_17h59.58.751,jpn_C03,2022.1.2,Win32,60.37189085,,,,,,,,,,,,,,,,,,,,,,,,,0,1,1,11,1,CartoonStims/burglar_r.jpg,ドキ,CartoonStims/boxer_r.jpg,right,CartoonStims/boxer_r.jpg,audio/doki.mp3,残念！ こちらが正しい画像です。,,,,,,,,,,,,,,,,,,,,,,,,,,,,,,,,,,,,,,,,,,
,,,,,,,,,R_1gMFlk8MiIaGlf2,2022-09-13_17h59.58.751,jpn_C03,2022.1.2,Win32,60.37189085,,,,,,,,,,,,,,,,,right,1,2.2676,,,,,,,,,,,,,,,,,,0,0,0,0,1,,,,,,,,,,,,,,,,,,,,,,,,,,,,,,,,,,,,,
,,,,,,,,,R_1gMFlk8MiIaGlf2,2022-09-13_17h59.58.751,jpn_C03,2022.1.2,Win32,60.37189085,,,,,,,,,,,,,,,,,,,,,,,,,0,2,2,6,1,CartoonStims/chef_r.jpg,シド,CartoonStims/artist_r.jpg,right,CartoonStims/artist_r.jpg,audio/sido.mp3,残念！ こちらが正しい画像です。,,,,,,,,,,,,,,,,,,,,,,,,,,,,,,,,,,,,,,,,,,
,,,,,,,,,R_1gMFlk8MiIaGlf2,2022-09-13_17h59.58.751,jpn_C03,2022.1.2,Win32,60.37189085,,,,,,,,,,,,,,,,,right,1,0.9685,,,,,,,,,,,,,,,,,,0,0,0,0,1,,,,,,,,,,,,,,,,,,,,,,,,,,,,,,,,,,,,,
,,,,,,,,,R_1gMFlk8MiIaGlf2,2022-09-13_17h59.58.751,jpn_C03,2022.1.2,Win32,60.37189085,,,,,,,,,,,,,,,,,,,,,,,,,0,3,3,10,1,CartoonStims/artist_r.jpg,ピポ,CartoonStims/doctor_r.jpg,right,CartoonStims/doctor_r.jpg,audio/pipo.mp3,残念！ こちらが正しい画像です。,,,,,,,,,,,,,,,,,,,,,,,,,,,,,,,,,,,,,,,,,,
,,,,,,,,,R_1gMFlk8MiIaGlf2,2022-09-13_17h59.58.751,jpn_C03,2022.1.2,Win32,60.37189085,,,,,,,,,,,,,,,,,left,1,1.2292,0,0,0,0,1,,,,,,,,,,,,,,,,,,,,,,,,,,,,,,,,,,,,,,,,,,,,,,,,,,,,,,
,,,,,,,,,R_1gMFlk8MiIaGlf2,2022-09-13_17h59.58.751,jpn_C03,2022.1.2,Win32,60.37189085,,,,,,,,,,,,,,,,,,,,,,,,,0,4,4,3,1,CartoonStims/cowboy_r.jpg,ムク,CartoonStims/doctor_r.jpg,left,CartoonStims/cowboy_r.jpg,audio/muku.mp3,残念！ こちらが正しい画像です。,,,,,,,,,,,,,,,,,,,,,,,,,,,,,,,,,,,,,,,,,,
,,,,,,,,,R_1gMFlk8MiIaGlf2,2022-09-13_17h59.58.751,jpn_C03,2022.1.2,Win32,60.37189085,,,,,,,,,,,,,,,,,left,1,0.6726,0,0,0,0,1,,,,,,,,,,,,,,,,,,,,,,,,,,,,,,,,,,,,,,,,,,,,,,,,,,,,,,
,,,,,,,,,R_1gMFlk8MiIaGlf2,2022-09-13_17h59.58.751,jpn_C03,2022.1.2,Win32,60.37189085,,,,,,,,,,,,,,,,,,,,,,,,,0,5,5,1,1,CartoonStims/burglar_r.jpg,ルピン,CartoonStims/chef_r.jpg,left,CartoonStims/burglar_r.jpg,audio/lupin.mp3,残念！ こちらが正しい画像です。,,,,,,,,,,,,,,,,,,,,,,,,,,,,,,,,,,,,,,,,,,
,,,,,,,,,R_1gMFlk8MiIaGlf2,2022-09-13_17h59.58.751,jpn_C03,2022.1.2,Win32,60.37189085,,,,,,,,,,,,,,,,,right,1,1.1111,,,,,,,,,,,,,,,,,,0,0,0,0,1,,,,,,,,,,,,,,,,,,,,,,,,,,,,,,,,,,,,,
,,,,,,,,,R_1gMFlk8MiIaGlf2,2022-09-13_17h59.58.751,jpn_C03,2022.1.2,Win32,60.37189085,,,,,,,,,,,,,,,,,,,,,,,,,0,6,6,8,1,CartoonStims/doctor_r.jpg,ホレト,CartoonStims/chef_r.jpg,right,CartoonStims/chef_r.jpg,audio/horeto.mp3,残念！ こちらが正しい画像です。,,,,,,,,,,,,,,,,,,,,,,,,,,,,,,,,,,,,,,,,,,
,,,,,,,,,R_1gMFlk8MiIaGlf2,2022-09-13_17h59.58.751,jpn_C03,2022.1.2,Win32,60.37189085,,,,,,,,,,,,,,,,,right,1,0.6698,,,,,,,,,,,,,,,,,,0,0,0,0,1,,,,,,,,,,,,,,,,,,,,,,,,,,,,,,,,,,,,,
,,,,,,,,,R_1gMFlk8MiIaGlf2,2022-09-13_17h59.58.751,jpn_C03,2022.1.2,Win32,60.37189085,,,,,,,,,,,,,,,,,,,,,,,,,0,7,7,7,1,CartoonStims/cowboy_r.jpg,ルピン,CartoonStims/burglar_r.jpg,right,CartoonStims/burglar_r.jpg,audio/lupin.mp3,残念！ こちらが正しい画像です。,,,,,,,,,,,,,,,,,,,,,,,,,,,,,,,,,,,,,,,,,,
,,,,,,,,,R_1gMFlk8MiIaGlf2,2022-09-13_17h59.58.751,jpn_C03,2022.1.2,Win32,60.37189085,,,,,,,,,,,,,,,,,right,1,0.9722,,,,,,,,,,,,,,,,,,0,0,0,0,1,,,,,,,,,,,,,,,,,,,,,,,,,,,,,,,,,,,,,
,,,,,,,,,R_1gMFlk8MiIaGlf2,2022-09-13_17h59.58.751,jpn_C03,2022.1.2,Win32,60.37189085,,,,,,,,,,,,,,,,,,,,,,,,,0,8,8,9,1,CartoonStims/boxer_r.jpg,ムク,CartoonStims/cowboy_r.jpg,right,CartoonStims/cowboy_r.jpg,audio/muku.mp3,残念！ こちらが正しい画像です。,,,,,,,,,,,,,,,,,,,,,,,,,,,,,,,,,,,,,,,,,,
,,,,,,,,,R_1gMFlk8MiIaGlf2,2022-09-13_17h59.58.751,jpn_C03,2022.1.2,Win32,60.37189085,,,,,,,,,,,,,,,,,left,1,1.018,0,0,0,0,1,,,,,,,,,,,,,,,,,,,,,,,,,,,,,,,,,,,,,,,,,,,,,,,,,,,,,,
,,,,,,,,,R_1gMFlk8MiIaGlf2,2022-09-13_17h59.58.751,jpn_C03,2022.1.2,Win32,60.37189085,,,,,,,,,,,,,,,,,,,,,,,,,0,9,9,2,1,CartoonStims/chef_r.jpg,ホレト,CartoonStims/cowboy_r.jpg,left,CartoonStims/chef_r.jpg,audio/horeto.mp3,残念！ こちらが正しい画像です。,,,,,,,,,,,,,,,,,,,,,,,,,,,,,,,,,,,,,,,,,,
,,,,,,,,,R_1gMFlk8MiIaGlf2,2022-09-13_17h59.58.751,jpn_C03,2022.1.2,Win32,60.37189085,,,,,,,,,,,,,,,,,left,1,0.7764,0,0,0,0,1,,,,,,,,,,,,,,,,,,,,,,,,,,,,,,,,,,,,,,,,,,,,,,,,,,,,,,
,,,,,,,,,R_1gMFlk8MiIaGlf2,2022-09-13_17h59.58.751,jpn_C03,2022.1.2,Win32,60.37189085,,,,,,,,,,,,,,,,,,,,,,,,,0,10,10,4,1,CartoonStims/doctor_r.jpg,ピポ,CartoonStims/boxer_r.jpg,left,CartoonStims/doctor_r.jpg,audio/pipo.mp3,残念！ こちらが正しい画像です。,,,,,,,,,,,,,,,,,,,,,,,,,,,,,,,,,,,,,,,,,,
,,,,,,,,,R_1gMFlk8MiIaGlf2,2022-09-13_17h59.58.751,jpn_C03,2022.1.2,Win32,60.37189085,,,,,,,,,,,,,,,,,left,1,1.1704,0,0,0,0,1,,,,,,,,,,,,,,,,,,,,,,,,,,,,,,,,,,,,,,,,,,,,,,,,,,,,,,
,,,,,,,,,R_1gMFlk8MiIaGlf2,2022-09-13_17h59.58.751,jpn_C03,2022.1.2,Win32,60.37189085,,,,,,,,,,,,,,,,,,,,,,,,,0,11,11,0,1,CartoonStims/artist_r.jpg,シド,CartoonStims/burglar_r.jpg,left,CartoonStims/artist_r.jpg,audio/sido.mp3,残念！ こちらが正しい画像です。,,,,,,,,,,,,,,,,,,,,,,,,,,,,,,,,,,,,,,,,,,
,,,,,,,,,R_1gMFlk8MiIaGlf2,2022-09-13_17h59.58.751,jpn_C03,2022.1.2,Win32,60.37189085,,,,,,,,,,,,,,,,,,,,,,,,,,,,,,,,,,,,,,,,,,space,5.2455,ピポ,right,8.5046,0,0,0,0,1,,,,,,,,,,,,,,,,,,,,,,,,,,,
,,,,,,,,,R_1gMFlk8MiIaGlf2,2022-09-13_17h59.58.751,jpn_C03,2022.1.2,Win32,60.37189085,,,,,,,,,,,,,CartoonStims/doctor_r.jpg,audio/pipo.mp3,,,,,,,,,,,,,,,,,,,,,,,,,,,,,,,,,,,,,,0,0,0,4,1,ピポ,,,,,,,,,,,,,,,,,,,,,
,,,,,,,,,R_1gMFlk8MiIaGlf2,2022-09-13_17h59.58.751,jpn_C03,2022.1.2,Win32,60.37189085,,,,,,,,,,,,,,,,,,,,,,,,,,,,,,,,,,,,,,,,,,,,ホレト,right,6.4032,0,0,0,0,1,,,,,,,,,,,,,,,,,,,,,,,,,,,
,,,,,,,,,R_1gMFlk8MiIaGlf2,2022-09-13_17h59.58.751,jpn_C03,2022.1.2,Win32,60.37189085,,,,,,,,,,,,,CartoonStims/chef_r.jpg,audio/horeto.mp3,,,,,,,,,,,,,,,,,,,,,,,,,,,,,,,,,,,,,,0,1,1,2,1,ホレト,,,,,,,,,,,,,,,,,,,,,
,,,,,,,,,R_1gMFlk8MiIaGlf2,2022-09-13_17h59.58.751,jpn_C03,2022.1.2,Win32,60.37189085,,,,,,,,,,,,,,,,,,,,,,,,,,,,,,,,,,,,,,,,,,,,ムク,right,4.5939,0,0,0,0,1,,,,,,,,,,,,,,,,,,,,,,,,,,,
,,,,,,,,,R_1gMFlk8MiIaGlf2,2022-09-13_17h59.58.751,jpn_C03,2022.1.2,Win32,60.37189085,,,,,,,,,,,,,CartoonStims/cowboy_r.jpg,audio/muku.mp3,,,,,,,,,,,,,,,,,,,,,,,,,,,,,,,,,,,,,,0,2,2,3,1,ムク,,,,,,,,,,,,,,,,,,,,,
,,,,,,,,,R_1gMFlk8MiIaGlf2,2022-09-13_17h59.58.751,jpn_C03,2022.1.2,Win32,60.37189085,,,,,,,,,,,,,,,,,,,,,,,,,,,,,,,,,,,,,,,,,,,,ルピン,right,3.2374,0,0,0,0,1,,,,,,,,,,,,,,,,,,,,,,,,,,,
,,,,,,,,,R_1gMFlk8MiIaGlf2,2022-09-13_17h59.58.751,jpn_C03,2022.1.2,Win32,60.37189085,,,,,,,,,,,,,CartoonStims/burglar_r.jpg,audio/lupin.mp3,,,,,,,,,,,,,,,,,,,,,,,,,,,,,,,,,,,,,,0,3,3,1,1,ルピン,,,,,,,,,,,,,,,,,,,,,
,,,,,,,,,R_1gMFlk8MiIaGlf2,2022-09-13_17h59.58.751,jpn_C03,2022.1.2,Win32,60.37189085,,,,,,,,,,,,,,,,,,,,,,,,,,,,,,,,,,,,,,,,,,,,シド,right,5.531,0,0,0,0,1,,,,,,,,,,,,,,,,,,,,,,,,,,,
,,,,,,,,,R_1gMFlk8MiIaGlf2,2022-09-13_17h59.58.751,jpn_C03,2022.1.2,Win32,60.37189085,,,,,,,,,,,,,CartoonStims/artist_r.jpg,audio/sido.mp3,,,,,,,,,,,,,,,,,,,,,,,,,,,,,,,,,,,,,,0,4,4,0,1,シド,,,,,,,,,,,,,,,,,,,,,
,,,,,,,,,R_1gMFlk8MiIaGlf2,2022-09-13_17h59.58.751,jpn_C03,2022.1.2,Win32,60.37189085,,,,,,,,,,,,,,,,,,,,,,,,,,,,,,,,,,,,,,,,,,,,ドキ,right,3.9901,0,0,0,0,1,,,,,,,,,,,,,,,,,,,,,,,,,,,
,,,,,,,,,R_1gMFlk8MiIaGlf2,2022-09-13_17h59.58.751,jpn_C03,2022.1.2,Win32,60.37189085,,,,,,,,,,,,,CartoonStims/boxer_r.jpg,audio/doki.mp3,,,,,,,,,,,,,,,,,,,,,,,,,,,,,,,,,,,,,,0,5,5,5,1,ドキ,,,,,,,,,,,,,,,,,,,,,
,,,,,,,,,R_1gMFlk8MiIaGlf2,2022-09-13_17h59.58.751,jpn_C03,2022.1.2,Win32,60.37189085,,,,,,,,,,,,,,,,,,,,,,,,,,,,,,,,,,,,,,,,,,,,ルピン,right,2.9338,0,0,0,0,1,,,,,,,,,,,,,,,,,,,,,,,,,,,
,,,,,,,,,R_1gMFlk8MiIaGlf2,2022-09-13_17h59.58.751,jpn_C03,2022.1.2,Win32,60.37189085,,,,,,,,,,,,,CartoonStims/burglar_r.jpg,audio/lupin.mp3,,,,,,,,,,,,,,,,,,,,,,,,,,,,,,,,,,,,,,1,0,6,1,1,ルピン,,,,,,,,,,,,,,,,,,,,,
,,,,,,,,,R_1gMFlk8MiIaGlf2,2022-09-13_17h59.58.751,jpn_C03,2022.1.2,Win32,60.37189085,,,,,,,,,,,,,,,,,,,,,,,,,,,,,,,,,,,,,,,,,,,,ピポ,right,3.4343,0,0,0,0,1,,,,,,,,,,,,,,,,,,,,,,,,,,,
,,,,,,,,,R_1gMFlk8MiIaGlf2,2022-09-13_17h59.58.751,jpn_C03,2022.1.2,Win32,60.37189085,,,,,,,,,,,,,CartoonStims/doctor_r.jpg,audio/pipo.mp3,,,,,,,,,,,,,,,,,,,,,,,,,,,,,,,,,,,,,,1,1,7,4,1,ピポ,,,,,,,,,,,,,,,,,,,,,
,,,,,,,,,R_1gMFlk8MiIaGlf2,2022-09-13_17h59.58.751,jpn_C03,2022.1.2,Win32,60.37189085,,,,,,,,,,,,,,,,,,,,,,,,,,,,,,,,,,,,,,,,,,,,シド,right,5.3267,0,0,0,0,1,,,,,,,,,,,,,,,,,,,,,,,,,,,
,,,,,,,,,R_1gMFlk8MiIaGlf2,2022-09-13_17h59.58.751,jpn_C03,2022.1.2,Win32,60.37189085,,,,,,,,,,,,,CartoonStims/artist_r.jpg,audio/sido.mp3,,,,,,,,,,,,,,,,,,,,,,,,,,,,,,,,,,,,,,1,2,8,0,1,シド,,,,,,,,,,,,,,,,,,,,,
,,,,,,,,,R_1gMFlk8MiIaGlf2,2022-09-13_17h59.58.751,jpn_C03,2022.1.2,Win32,60.37189085,,,,,,,,,,,,,,,,,,,,,,,,,,,,,,,,,,,,,,,,,,,,ドキ,right,3.4811,0,0,0,0,1,,,,,,,,,,,,,,,,,,,,,,,,,,,
,,,,,,,,,R_1gMFlk8MiIaGlf2,2022-09-13_17h59.58.751,jpn_C03,2022.1.2,Win32,60.37189085,,,,,,,,,,,,,CartoonStims/boxer_r.jpg,audio/doki.mp3,,,,,,,,,,,,,,,,,,,,,,,,,,,,,,,,,,,,,,1,3,9,5,1,ドキ,,,,,,,,,,,,,,,,,,,,,
,,,,,,,,,R_1gMFlk8MiIaGlf2,2022-09-13_17h59.58.751,jpn_C03,2022.1.2,Win32,60.37189085,,,,,,,,,,,,,,,,,,,,,,,,,,,,,,,,,,,,,,,,,,,,ムク,right,4.4341,0,0,0,0,1,,,,,,,,,,,,,,,,,,,,,,,,,,,
,,,,,,,,,R_1gMFlk8MiIaGlf2,2022-09-13_17h59.58.751,jpn_C03,2022.1.2,Win32,60.37189085,,,,,,,,,,,,,CartoonStims/cowboy_r.jpg,audio/muku.mp3,,,,,,,,,,,,,,,,,,,,,,,,,,,,,,,,,,,,,,1,4,10,3,1,ムク,,,,,,,,,,,,,,,,,,,,,
,,,,,,,,,R_1gMFlk8MiIaGlf2,2022-09-13_17h59.58.751,jpn_C03,2022.1.2,Win32,60.37189085,,,,,,,,,,,,,,,,,,,,,,,,,,,,,,,,,,,,,,,,,,,,ホレト,right,2.8274,0,0,0,0,1,,,,,,,,,,,,,,,,,,,,,,,,,,,
,,,,,,,,,R_1gMFlk8MiIaGlf2,2022-09-13_17h59.58.751,jpn_C03,2022.1.2,Win32,60.37189085,,,,,,,,,,,,,CartoonStims/chef_r.jpg,audio/horeto.mp3,,,,,,,,,,,,,,,,,,,,,,,,,,,,,,,,,,,,,,1,5,11,2,1,ホレト,,,,,,,,,,,,,,,,,,,,,
,,,,,,,,,R_1gMFlk8MiIaGlf2,2022-09-13_17h59.58.751,jpn_C03,2022.1.2,Win32,60.37189085,,,,,,,,,,,,,,,,,,,,,,,,,,,,,,,,,,,,,,,,,,,,,,,,,,,,,,,,,,,space,5.6005,0,0,0,0,1,NounExposure.xlsx,"最初のトライアルでは、 画像が表示され、 その画像の下に単語が出てきます。 またこの単語の音も聞くことができます。 この音を大きな声で復唱してください。 そしてこの画像がどのような単語を示しているのか, 考えてみてください。 その後、 続きのボタンを押すと次の単語の学習が始まります。

スペースキーを押して、学習を始めましょう。",3,NounFCT.xlsx,ここから語彙のクイズが始まります。スクリーンに表示される単語に合う画像をキーボードの右と左の矢印キーを使って選択してください。,NounTest.xlsx,2,次に、これまで学習してきたことをアウトプットしていただきます。 表示される画像を描写していると思う単語を、テキストボックスにタイプしてください。,1,"ここまでが最初のトライアルです。ここで休憩をとっても構いません。

休憩が済みましたら、スペースキーを押して続きを始めましょう。",,,
,,,,,,,,,R_1gMFlk8MiIaGlf2,2022-09-13_17h59.58.751,jpn_C03,2022.1.2,Win32,60.37189085,space,5.935,space,20.8346,0,0,0,32,1,パツ　ピポ　ルピン,,,CartoonStims/doctor_shoot_burglar_r.jpg,audio/patsupipolupin.mp3,,,,,,,,,,,,,,,,,,,,,,,,,,,,,,,,,,,,,,,,,,,,,,,,,,,,,,,,,,,,,,,,
,,,,,,,,,R_1gMFlk8MiIaGlf2,2022-09-13_17h59.58.751,jpn_C03,2022.1.2,Win32,60.37189085,,,space,11.5678,0,1,1,20,1,トマ　ピポ　シド,,,CartoonStims/doctor_point_artist_r.jpg,audio/tomapiposido.mp3,,,,,,,,,,,,,,,,,,,,,,,,,,,,,,,,,,,,,,,,,,,,,,,,,,,,,,,,,,,,,,,,
,,,,,,,,,R_1gMFlk8MiIaGlf2,2022-09-13_17h59.58.751,jpn_C03,2022.1.2,Win32,60.37189085,,,space,10.1502,0,2,2,22,1,トマ　ドキ　ルピン,,,CartoonStims/boxer_point_burglar_r.jpg,audio/tomadokilupin.mp3,,,,,,,,,,,,,,,,,,,,,,,,,,,,,,,,,,,,,,,,,,,,,,,,,,,,,,,,,,,,,,,,
,,,,,,,,,R_1gMFlk8MiIaGlf2,2022-09-13_17h59.58.751,jpn_C03,2022.1.2,Win32,60.37189085,,,space,6.9938,0,3,3,46,1,プミ　ドキ　ムク,,,CartoonStims/boxer_punch_cowboy_r.jpg,audio/pumidokimuku.mp3,,,,,,,,,,,,,,,,,,,,,,,,,,,,,,,,,,,,,,,,,,,,,,,,,,,,,,,,,,,,,,,,
,,,,,,,,,R_1gMFlk8MiIaGlf2,2022-09-13_17h59.58.751,jpn_C03,2022.1.2,Win32,60.37189085,,,space,7.3745,0,4,4,12,1,トマ　シド　ホレト,,,CartoonStims/artist_point_chef_r.jpg,audio/tomasidohoreto.mp3,,,,,,,,,,,,,,,,,,,,,,,,,,,,,,,,,,,,,,,,,,,,,,,,,,,,,,,,,,,,,,,,
,,,,,,,,,R_1gMFlk8MiIaGlf2,2022-09-13_17h59.58.751,jpn_C03,2022.1.2,Win32,60.37189085,,,space,5.8223,0,5,5,36,1,プミ　シド　ピポ,,,CartoonStims/artist_punch_doctor_r.jpg,audio/pumisidopipo.mp3,,,,,,,,,,,,,,,,,,,,,,,,,,,,,,,,,,,,,,,,,,,,,,,,,,,,,,,,,,,,,,,,
,,,,,,,,,R_1gMFlk8MiIaGlf2,2022-09-13_17h59.58.751,jpn_C03,2022.1.2,Win32,60.37189085,,,space,7.3154,0,6,6,45,1,プミ　ピポ　ムク,,,CartoonStims/doctor_punch_cowboy_r.jpg,audio/pumipipomuku.mp3,,,,,,,,,,,,,,,,,,,,,,,,,,,,,,,,,,,,,,,,,,,,,,,,,,,,,,,,,,,,,,,,
,,,,,,,,,R_1gMFlk8MiIaGlf2,2022-09-13_17h59.58.751,jpn_C03,2022.1.2,Win32,60.37189085,,,space,5.3413,0,7,7,19,1,トマ　ムク　シド,,,CartoonStims/cowboy_point_artist_r.jpg,audio/tomamukusido.mp3,,,,,,,,,,,,,,,,,,,,,,,,,,,,,,,,,,,,,,,,,,,,,,,,,,,,,,,,,,,,,,,,
,,,,,,,,,R_1gMFlk8MiIaGlf2,2022-09-13_17h59.58.751,jpn_C03,2022.1.2,Win32,60.37189085,,,space,5.4834,0,8,8,27,1,パツ　ルピン　ドキ,,,CartoonStims/burglar_shoot_boxer_r.jpg,audio/patsulupindoki.mp3,,,,,,,,,,,,,,,,,,,,,,,,,,,,,,,,,,,,,,,,,,,,,,,,,,,,,,,,,,,,,,,,
,,,,,,,,,R_1gMFlk8MiIaGlf2,2022-09-13_17h59.58.751,jpn_C03,2022.1.2,Win32,60.37189085,,,space,8.0247,0,9,9,25,1,パツ　シド　ピポ,,,CartoonStims/artist_shoot_doctor_r.jpg,audio/patsusidopipo.mp3,,,,,,,,,,,,,,,,,,,,,,,,,,,,,,,,,,,,,,,,,,,,,,,,,,,,,,,,,,,,,,,,
,,,,,,,,,R_1gMFlk8MiIaGlf2,2022-09-13_17h59.58.751,jpn_C03,2022.1.2,Win32,60.37189085,,,space,5.8535,0,10,10,11,1,セル　ドキ　ルピン,,,CartoonStims/boxer_kick_burglar_r.jpg,audio/serudokilupin.mp3,,,,,,,,,,,,,,,,,,,,,,,,,,,,,,,,,,,,,,,,,,,,,,,,,,,,,,,,,,,,,,,,
,,,,,,,,,R_1gMFlk8MiIaGlf2,2022-09-13_17h59.58.751,jpn_C03,2022.1.2,Win32,60.37189085,,,space,4.6555,0,11,11,23,1,トマ　ドキ　ホレト,,,CartoonStims/boxer_point_chef_r.jpg,audio/tomadokihoreto.mp3,,,,,,,,,,,,,,,,,,,,,,,,,,,,,,,,,,,,,,,,,,,,,,,,,,,,,,,,,,,,,,,,
,,,,,,,,,R_1gMFlk8MiIaGlf2,2022-09-13_17h59.58.751,jpn_C03,2022.1.2,Win32,60.37189085,,,space,5.591,0,12,12,10,1,セル　ドキ　シド,,,CartoonStims/boxer_kick_artist_r.jpg,audio/serudokisido.mp3,,,,,,,,,,,,,,,,,,,,,,,,,,,,,,,,,,,,,,,,,,,,,,,,,,,,,,,,,,,,,,,,
,,,,,,,,,R_1gMFlk8MiIaGlf2,2022-09-13_17h59.58.751,jpn_C03,2022.1.2,Win32,60.37189085,,,space,5.3052,0,13,13,18,1,トマ　ムク　ドキ,,,CartoonStims/cowboy_point_boxer_r.jpg,audio/tomamukudoki.mp3,,,,,,,,,,,,,,,,,,,,,,,,,,,,,,,,,,,,,,,,,,,,,,,,,,,,,,,,,,,,,,,,
,,,,,,,,,R_1gMFlk8MiIaGlf2,2022-09-13_17h59.58.751,jpn_C03,2022.1.2,Win32,60.37189085,,,space,4.1112,0,14,14,21,1,トマ　ピポ　ルピン,,,CartoonStims/doctor_point_burglar_r.jpg,audio/tomapipolupin.mp3,,,,,,,,,,,,,,,,,,,,,,,,,,,,,,,,,,,,,,,,,,,,,,,,,,,,,,,,,,,,,,,,
,,,,,,,,,R_1gMFlk8MiIaGlf2,2022-09-13_17h59.58.751,jpn_C03,2022.1.2,Win32,60.37189085,,,space,3.9476,0,15,15,43,1,プミ　ムク　ホレト,,,CartoonStims/cowboy_punch_chef_r.jpg,audio/pumimukuhoreto.mp3,,,,,,,,,,,,,,,,,,,,,,,,,,,,,,,,,,,,,,,,,,,,,,,,,,,,,,,,,,,,,,,,
,,,,,,,,,R_1gMFlk8MiIaGlf2,2022-09-13_17h59.58.751,jpn_C03,2022.1.2,Win32,60.37189085,,,space,3.6221,0,16,16,44,1,プミ　ピポ　ホレト,,,CartoonStims/doctor_punch_chef_r.jpg,audio/pumipipohoreto.mp3,,,,,,,,,,,,,,,,,,,,,,,,,,,,,,,,,,,,,,,,,,,,,,,,,,,,,,,,,,,,,,,,
,,,,,,,,,R_1gMFlk8MiIaGlf2,2022-09-13_17h59.58.751,jpn_C03,2022.1.2,Win32,60.37189085,,,space,4.4088,0,17,17,6,1,セル　ムク　ピポ,,,CartoonStims/cowboy_kick_doctor_r.jpg,audio/serumukupipo.mp3,,,,,,,,,,,,,,,,,,,,,,,,,,,,,,,,,,,,,,,,,,,,,,,,,,,,,,,,,,,,,,,,
,,,,,,,,,R_1gMFlk8MiIaGlf2,2022-09-13_17h59.58.751,jpn_C03,2022.1.2,Win32,60.37189085,,,space,2.6785,0,18,18,0,1,セル　シド　ルピン,,,CartoonStims/artist_kick_burglar_r.jpg,audio/serusidolupin.mp3,,,,,,,,,,,,,,,,,,,,,,,,,,,,,,,,,,,,,,,,,,,,,,,,,,,,,,,,,,,,,,,,
,,,,,,,,,R_1gMFlk8MiIaGlf2,2022-09-13_17h59.58.751,jpn_C03,2022.1.2,Win32,60.37189085,,,space,5.6216,0,19,19,26,1,パツ　ルピン　ピポ,,,CartoonStims/burglar_shoot_doctor_r.jpg,audio/patsulupinpipo.mp3,,,,,,,,,,,,,,,,,,,,,,,,,,,,,,,,,,,,,,,,,,,,,,,,,,,,,,,,,,,,,,,,
,,,,,,,,,R_1gMFlk8MiIaGlf2,2022-09-13_17h59.58.751,jpn_C03,2022.1.2,Win32,60.37189085,,,space,9.2055,0,20,20,37,1,プミ　シド　ドキ,,,CartoonStims/artist_punch_boxer_r.jpg,audio/pumisidodoki.mp3,,,,,,,,,,,,,,,,,,,,,,,,,,,,,,,,,,,,,,,,,,,,,,,,,,,,,,,,,,,,,,,,
,,,,,,,,,R_1gMFlk8MiIaGlf2,2022-09-13_17h59.58.751,jpn_C03,2022.1.2,Win32,60.37189085,,,space,3.0235,0,21,21,8,1,セル　ピポ　ドキ,,,CartoonStims/doctor_kick_boxer_r.jpg,audio/serupipodoki.mp3,,,,,,,,,,,,,,,,,,,,,,,,,,,,,,,,,,,,,,,,,,,,,,,,,,,,,,,,,,,,,,,,
,,,,,,,,,R_1gMFlk8MiIaGlf2,2022-09-13_17h59.58.751,jpn_C03,2022.1.2,Win32,60.37189085,,,space,2.2797,0,22,22,30,1,パツ　ムク　シド,,,CartoonStims/cowboy_shoot_artist_r.jpg,audio/patsumukusido.mp3,,,,,,,,,,,,,,,,,,,,,,,,,,,,,,,,,,,,,,,,,,,,,,,,,,,,,,,,,,,,,,,,
,,,,,,,,,R_1gMFlk8MiIaGlf2,2022-09-13_17h59.58.751,jpn_C03,2022.1.2,Win32,60.37189085,,,space,2.9366,0,23,23,3,1,セル　ルピン　ムク,,,CartoonStims/burglar_kick_cowboy_r.jpg,audio/serulupinmuku.mp3,,,,,,,,,,,,,,,,,,,,,,,,,,,,,,,,,,,,,,,,,,,,,,,,,,,,,,,,,,,,,,,,
,,,,,,,,,R_1gMFlk8MiIaGlf2,2022-09-13_17h59.58.751,jpn_C03,2022.1.2,Win32,60.37189085,,,space,8.7551,0,24,24,47,1,プミ　ドキ　ピポ,,,CartoonStims/boxer_punch_doctor_r.jpg,audio/pumidokipipo.mp3,,,,,,,,,,,,,,,,,,,,,,,,,,,,,,,,,,,,,,,,,,,,,,,,,,,,,,,,,,,,,,,,
,,,,,,,,,R_1gMFlk8MiIaGlf2,2022-09-13_17h59.58.751,jpn_C03,2022.1.2,Win32,60.37189085,,,space,3.4898,0,25,25,13,1,トマ　シド　ムク,,,CartoonStims/artist_point_cowboy_r.jpg,audio/tomasidomuku.mp3,,,,,,,,,,,,,,,,,,,,,,,,,,,,,,,,,,,,,,,,,,,,,,,,,,,,,,,,,,,,,,,,
,,,,,,,,,R_1gMFlk8MiIaGlf2,2022-09-13_17h59.58.751,jpn_C03,2022.1.2,Win32,60.37189085,,,space,3.8961,0,26,26,1,1,セル 　シド 　ホレト,,,CartoonStims/artist_kick_chef_r.jpg,audio/serusidohoreto.mp3,,,,,,,,,,,,,,,,,,,,,,,,,,,,,,,,,,,,,,,,,,,,,,,,,,,,,,,,,,,,,,,,
,,,,,,,,,R_1gMFlk8MiIaGlf2,2022-09-13_17h59.58.751,jpn_C03,2022.1.2,Win32,60.37189085,,,space,5.986,0,27,27,16,1,トマ　ホレト　ピポ,,,CartoonStims/chef_point_doctor_r.jpg,audio/tomahoretopipo.mp3,,,,,,,,,,,,,,,,,,,,,,,,,,,,,,,,,,,,,,,,,,,,,,,,,,,,,,,,,,,,,,,,
,,,,,,,,,R_1gMFlk8MiIaGlf2,2022-09-13_17h59.58.751,jpn_C03,2022.1.2,Win32,60.37189085,,,space,3.3462,0,28,28,17,1,トマ　ホレト　ドキ,,,CartoonStims/chef_point_boxer_r.jpg,audio/tomahoretodoki.mp3,,,,,,,,,,,,,,,,,,,,,,,,,,,,,,,,,,,,,,,,,,,,,,,,,,,,,,,,,,,,,,,,
,,,,,,,,,R_1gMFlk8MiIaGlf2,2022-09-13_17h59.58.751,jpn_C03,2022.1.2,Win32,60.37189085,,,space,8.1121,0,29,29,2,1,セル 　ルピン 　ホレト,,,CartoonStims/burglar_kick_chef_r.jpg,audio/serulupinhoreto.mp3,,,,,,,,,,,,,,,,,,,,,,,,,,,,,,,,,,,,,,,,,,,,,,,,,,,,,,,,,,,,,,,,
,,,,,,,,,R_1gMFlk8MiIaGlf2,2022-09-13_17h59.58.751,jpn_C03,2022.1.2,Win32,60.37189085,,,space,2.2042,0,30,30,4,1,セル　ホレト　ムク,,,CartoonStims/chef_kick_cowboy_r.jpg,audio/seruhoretomuku.mp3,,,,,,,,,,,,,,,,,,,,,,,,,,,,,,,,,,,,,,,,,,,,,,,,,,,,,,,,,,,,,,,,
,,,,,,,,,R_1gMFlk8MiIaGlf2,2022-09-13_17h59.58.751,jpn_C03,2022.1.2,Win32,60.37189085,,,space,3.7405,0,31,31,15,1,トマ　ルピン　ピポ,,,CartoonStims/burglar_point_doctor_r.jpg,audio/tomalupinpipo.mp3,,,,,,,,,,,,,,,,,,,,,,,,,,,,,,,,,,,,,,,,,,,,,,,,,,,,,,,,,,,,,,,,
,,,,,,,,,R_1gMFlk8MiIaGlf2,2022-09-13_17h59.58.751,jpn_C03,2022.1.2,Win32,60.37189085,,,space,3.0349,0,32,32,14,1,トマ　ルピン　ムク,,,CartoonStims/burglar_point_cowboy_r.jpg,audio/tomalupinmuku.mp3,,,,,,,,,,,,,,,,,,,,,,,,,,,,,,,,,,,,,,,,,,,,,,,,,,,,,,,,,,,,,,,,
,,,,,,,,,R_1gMFlk8MiIaGlf2,2022-09-13_17h59.58.751,jpn_C03,2022.1.2,Win32,60.37189085,,,space,3.418,0,33,33,5,1,セル　ホレト　ピポ,,,CartoonStims/chef_kick_doctor_r.jpg,audio/seruhoretopipo.mp3,,,,,,,,,,,,,,,,,,,,,,,,,,,,,,,,,,,,,,,,,,,,,,,,,,,,,,,,,,,,,,,,
,,,,,,,,,R_1gMFlk8MiIaGlf2,2022-09-13_17h59.58.751,jpn_C03,2022.1.2,Win32,60.37189085,,,space,2.3026,0,34,34,38,1,プミ　ルピン　ドキ,,,CartoonStims/burglar_punch_boxer_r.jpg,audio/pumilupindoki.mp3,,,,,,,,,,,,,,,,,,,,,,,,,,,,,,,,,,,,,,,,,,,,,,,,,,,,,,,,,,,,,,,,
,,,,,,,,,R_1gMFlk8MiIaGlf2,2022-09-13_17h59.58.751,jpn_C03,2022.1.2,Win32,60.37189085,,,space,3.8936,0,35,35,39,1,プミ　ルピン　シド,,,CartoonStims/burglar_punch_artist_r.jpg,audio/pumilupinsido.mp3,,,,,,,,,,,,,,,,,,,,,,,,,,,,,,,,,,,,,,,,,,,,,,,,,,,,,,,,,,,,,,,,
,,,,,,,,,R_1gMFlk8MiIaGlf2,2022-09-13_17h59.58.751,jpn_C03,2022.1.2,Win32,60.37189085,,,space,4.6357,0,36,36,40,1,プミ　ホレト　シド,,,CartoonStims/chef_punch_artist_r.jpg,audio/pumihoretosido.mp3,,,,,,,,,,,,,,,,,,,,,,,,,,,,,,,,,,,,,,,,,,,,,,,,,,,,,,,,,,,,,,,,
,,,,,,,,,R_1gMFlk8MiIaGlf2,2022-09-13_17h59.58.751,jpn_C03,2022.1.2,Win32,60.37189085,,,space,2.1796,0,37,37,34,1,パツ　ドキ　ホレト,,,CartoonStims/boxer_shoot_chef_r.jpg,audio/patsudokihoreto.mp3,,,,,,,,,,,,,,,,,,,,,,,,,,,,,,,,,,,,,,,,,,,,,,,,,,,,,,,,,,,,,,,,
,,,,,,,,,R_1gMFlk8MiIaGlf2,2022-09-13_17h59.58.751,jpn_C03,2022.1.2,Win32,60.37189085,,,space,4.759,0,38,38,42,1,プミ　ムク　ルピン,,,CartoonStims/cowboy_punch_burglar_r.jpg,audio/pumimukulupin.mp3,,,,,,,,,,,,,,,,,,,,,,,,,,,,,,,,,,,,,,,,,,,,,,,,,,,,,,,,,,,,,,,,
,,,,,,,,,R_1gMFlk8MiIaGlf2,2022-09-13_17h59.58.751,jpn_C03,2022.1.2,Win32,60.37189085,,,space,2.06,0,39,39,24,1,パツ　シド　ムク,,,CartoonStims/artist_shoot_cowboy_r.jpg,audio/patsusidomuku.mp3,,,,,,,,,,,,,,,,,,,,,,,,,,,,,,,,,,,,,,,,,,,,,,,,,,,,,,,,,,,,,,,,
,,,,,,,,,R_1gMFlk8MiIaGlf2,2022-09-13_17h59.58.751,jpn_C03,2022.1.2,Win32,60.37189085,,,space,9.4384,0,40,40,7,1,セル　ムク　ドキ,,,CartoonStims/cowboy_kick_boxer_r.jpg,audio/serumukudoki.mp3,,,,,,,,,,,,,,,,,,,,,,,,,,,,,,,,,,,,,,,,,,,,,,,,,,,,,,,,,,,,,,,,
,,,,,,,,,R_1gMFlk8MiIaGlf2,2022-09-13_17h59.58.751,jpn_C03,2022.1.2,Win32,60.37189085,,,space,2.8856,0,41,41,9,1,セル　ピポ　シド,,,CartoonStims/doctor_kick_artist_r.jpg,audio/serupiposido.mp3,,,,,,,,,,,,,,,,,,,,,,,,,,,,,,,,,,,,,,,,,,,,,,,,,,,,,,,,,,,,,,,,
,,,,,,,,,R_1gMFlk8MiIaGlf2,2022-09-13_17h59.58.751,jpn_C03,2022.1.2,Win32,60.37189085,,,space,12.4974,0,42,42,41,1,プミ　ホレト　ルピン,,,CartoonStims/chef_punch_burglar_r.jpg,audio/pumihoretolupin.mp3,,,,,,,,,,,,,,,,,,,,,,,,,,,,,,,,,,,,,,,,,,,,,,,,,,,,,,,,,,,,,,,,
,,,,,,,,,R_1gMFlk8MiIaGlf2,2022-09-13_17h59.58.751,jpn_C03,2022.1.2,Win32,60.37189085,,,space,1.8926,0,43,43,35,1,パツ　ドキ　ムク,,,CartoonStims/boxer_shoot_cowboy_r.jpg,audio/patsudokimuku.mp3,,,,,,,,,,,,,,,,,,,,,,,,,,,,,,,,,,,,,,,,,,,,,,,,,,,,,,,,,,,,,,,,
,,,,,,,,,R_1gMFlk8MiIaGlf2,2022-09-13_17h59.58.751,jpn_C03,2022.1.2,Win32,60.37189085,,,space,1.8112,0,44,44,31,1,パツ　ムク　ルピン,,,CartoonStims/cowboy_shoot_burglar_r.jpg,audio/patsumukulupin.mp3,,,,,,,,,,,,,,,,,,,,,,,,,,,,,,,,,,,,,,,,,,,,,,,,,,,,,,,,,,,,,,,,
,,,,,,,,,R_1gMFlk8MiIaGlf2,2022-09-13_17h59.58.751,jpn_C03,2022.1.2,Win32,60.37189085,,,space,1.6853,0,45,45,33,1,パツ　ピポ　ホレト,,,CartoonStims/doctor_shoot_chef_r.jpg,audio/patsupipohoreto.mp3,,,,,,,,,,,,,,,,,,,,,,,,,,,,,,,,,,,,,,,,,,,,,,,,,,,,,,,,,,,,,,,,
,,,,,,,,,R_1gMFlk8MiIaGlf2,2022-09-13_17h59.58.751,jpn_C03,2022.1.2,Win32,60.37189085,,,space,2.9057,0,46,46,28,1,パツ　ホレト　ドキ,,,CartoonStims/chef_shoot_boxer_r.jpg,audio/patsuhoretodoki.mp3,,,,,,,,,,,,,,,,,,,,,,,,,,,,,,,,,,,,,,,,,,,,,,,,,,,,,,,,,,,,,,,,
,,,,,,,,,R_1gMFlk8MiIaGlf2,2022-09-13_17h59.58.751,jpn_C03,2022.1.2,Win32,60.37189085,,,space,2.1389,0,47,47,29,1,パツ　ホレト　シド,,,CartoonStims/chef_shoot_artist_r.jpg,audio/patsuhoretosido.mp3,,,,,,,,,,,,,,,,,,,,,,,,,,,,,,,,,,,,,,,,,,,,,,,,,,,,,,,,,,,,,,,,
,,,,,,,,,R_1gMFlk8MiIaGlf2,2022-09-13_17h59.58.751,jpn_C03,2022.1.2,Win32,60.37189085,,,,,,,,,,,,,,,space,1.5096,right,1,7.4412,,,,,,,,,,,,,,,,,,0,0,0,0,1,,,,,,,,,,,,,,,,,,,,,,,,,,,,,,,,,,,,,
,,,,,,,,,R_1gMFlk8MiIaGlf2,2022-09-13_17h59.58.751,jpn_C03,2022.1.2,Win32,60.37189085,,,,,,,,,,,,,,,,,,,,,,,,,0,0,0,9,1,CartoonStims/chef_kick_artist_r.jpg,セル　ムク　シド,CartoonStims/cowboy_kick_artist_r.jpg,right,CartoonStims/cowboy_kick_artist_r.jpg,audio/serumukusido.mp3,残念！ こちらが正しい画像です。,,,,,,,,,,,,,,,,,,,,,,,,,,,,,,,,,,,,,,,,,,
,,,,,,,,,R_1gMFlk8MiIaGlf2,2022-09-13_17h59.58.751,jpn_C03,2022.1.2,Win32,60.37189085,,,,,,,,,,,,,,,,,right,1,4.3998,,,,,,,,,,,,,,,,,,0,0,0,0,1,,,,,,,,,,,,,,,,,,,,,,,,,,,,,,,,,,,,,
,,,,,,,,,R_1gMFlk8MiIaGlf2,2022-09-13_17h59.58.751,jpn_C03,2022.1.2,Win32,60.37189085,,,,,,,,,,,,,,,,,,,,,,,,,0,1,1,7,1,CartoonStims/artist_punch_cowboy_r.jpg,セル　シド　ムク,CartoonStims/artist_kick_cowboy_r.jpg,right,CartoonStims/artist_kick_cowboy_r.jpg,audio/serusidomuku.mp3,残念！ こちらが正しい画像です。,,,,,,,,,,,,,,,,,,,,,,,,,,,,,,,,,,,,,,,,,,
,,,,,,,,,R_1gMFlk8MiIaGlf2,2022-09-13_17h59.58.751,jpn_C03,2022.1.2,Win32,60.37189085,,,,,,,,,,,,,,,,,left,1,3.518,0,0,0,0,1,,,,,,,,,,,,,,,,,,,,,,,,,,,,,,,,,,,,,,,,,,,,,,,,,,,,,,
,,,,,,,,,R_1gMFlk8MiIaGlf2,2022-09-13_17h59.58.751,jpn_C03,2022.1.2,Win32,60.37189085,,,,,,,,,,,,,,,,,,,,,,,,,0,2,2,4,1,CartoonStims/burglar_point_boxer_r.jpg,トマ　ルピン　ドキ,CartoonStims/burglar_kick_boxer_r.jpg,left,CartoonStims/burglar_point_boxer_r.jpg,audio/tomalupindoki.mp3,残念！ こちらが正しい画像です。,,,,,,,,,,,,,,,,,,,,,,,,,,,,,,,,,,,,,,,,,,
,,,,,,,,,R_1gMFlk8MiIaGlf2,2022-09-13_17h59.58.751,jpn_C03,2022.1.2,Win32,60.37189085,,,,,,,,,,,,,,,,,left,1,4.5747,0,0,0,0,1,,,,,,,,,,,,,,,,,,,,,,,,,,,,,,,,,,,,,,,,,,,,,,,,,,,,,,
,,,,,,,,,R_1gMFlk8MiIaGlf2,2022-09-13_17h59.58.751,jpn_C03,2022.1.2,Win32,60.37189085,,,,,,,,,,,,,,,,,,,,,,,,,0,3,3,8,1,CartoonStims/doctor_point_cowboy_r.jpg,トマ　ピポ　ムク,CartoonStims/boxer_point_cowboy_r.jpg,left,CartoonStims/doctor_point_cowboy_r.jpg,audio/tomapipomuku.mp3,残念！ こちらが正しい画像です。,,,,,,,,,,,,,,,,,,,,,,,,,,,,,,,,,,,,,,,,,,
,,,,,,,,,R_1gMFlk8MiIaGlf2,2022-09-13_17h59.58.751,jpn_C03,2022.1.2,Win32,60.37189085,,,,,,,,,,,,,,,,,left,1,11.7402,0,0,0,0,1,,,,,,,,,,,,,,,,,,,,,,,,,,,,,,,,,,,,,,,,,,,,,,,,,,,,,,
,,,,,,,,,R_1gMFlk8MiIaGlf2,2022-09-13_17h59.58.751,jpn_C03,2022.1.2,Win32,60.37189085,,,,,,,,,,,,,,,,,,,,,,,,,0,4,4,2,1,CartoonStims/boxer_shoot_doctor_r.jpg,パツ　ドキ　ピポ,CartoonStims/boxer_shoot_artist_r.jpg,left,CartoonStims/boxer_shoot_doctor_r.jpg,audio/patsudokipipo.mp3,残念！ こちらが正しい画像です。,,,,,,,,,,,,,,,,,,,,,,,,,,,,,,,,,,,,,,,,,,
,,,,,,,,,R_1gMFlk8MiIaGlf2,2022-09-13_17h59.58.751,jpn_C03,2022.1.2,Win32,60.37189085,,,,,,,,,,,,,,,,,left,1,3.982,0,0,0,0,1,,,,,,,,,,,,,,,,,,,,,,,,,,,,,,,,,,,,,,,,,,,,,,,,,,,,,,
,,,,,,,,,R_1gMFlk8MiIaGlf2,2022-09-13_17h59.58.751,jpn_C03,2022.1.2,Win32,60.37189085,,,,,,,,,,,,,,,,,,,,,,,,,0,5,5,10,1,CartoonStims/artist_shoot_burglar_r.jpg,パツ　シド　ルピン,CartoonStims/chef_shoot_burglar_r.jpg,left,CartoonStims/artist_shoot_burglar_r.jpg,audio/patsusidolupin.mp3,残念！ こちらが正しい画像です。,,,,,,,,,,,,,,,,,,,,,,,,,,,,,,,,,,,,,,,,,,
,,,,,,,,,R_1gMFlk8MiIaGlf2,2022-09-13_17h59.58.751,jpn_C03,2022.1.2,Win32,60.37189085,,,,,,,,,,,,,,,,,right,1,5.0536,,,,,,,,,,,,,,,,,,0,0,0,0,1,,,,,,,,,,,,,,,,,,,,,,,,,,,,,,,,,,,,,
,,,,,,,,,R_1gMFlk8MiIaGlf2,2022-09-13_17h59.58.751,jpn_C03,2022.1.2,Win32,60.37189085,,,,,,,,,,,,,,,,,,,,,,,,,0,6,6,5,1,CartoonStims/cowboy_point_chef_r.jpg,パツ　ムク　ホレト,CartoonStims/cowboy_shoot_chef_r.jpg,right,CartoonStims/cowboy_shoot_chef_r.jpg,audio/patsumukuhoreto.mp3,残念！ こちらが正しい画像です。,,,,,,,,,,,,,,,,,,,,,,,,,,,,,,,,,,,,,,,,,,
,,,,,,,,,R_1gMFlk8MiIaGlf2,2022-09-13_17h59.58.751,jpn_C03,2022.1.2,Win32,60.37189085,,,,,,,,,,,,,,,,,left,1,3.1655,0,0,0,0,1,,,,,,,,,,,,,,,,,,,,,,,,,,,,,,,,,,,,,,,,,,,,,,,,,,,,,,
,,,,,,,,,R_1gMFlk8MiIaGlf2,2022-09-13_17h59.58.751,jpn_C03,2022.1.2,Win32,60.37189085,,,,,,,,,,,,,,,,,,,,,,,,,0,7,7,0,1,CartoonStims/doctor_kick_burglar_r.jpg,セル　ピポ　ルピン,CartoonStims/doctor_kick_chef_r.jpg,left,CartoonStims/doctor_kick_burglar_r.jpg,audio/serupipolupin.mp3,残念！ こちらが正しい画像です。,,,,,,,,,,,,,,,,,,,,,,,,,,,,,,,,,,,,,,,,,,
,,,,,,,,,R_1gMFlk8MiIaGlf2,2022-09-13_17h59.58.751,jpn_C03,2022.1.2,Win32,60.37189085,,,,,,,,,,,,,,,,,right,1,5.3012,,,,,,,,,,,,,,,,,,0,0,0,0,1,,,,,,,,,,,,,,,,,,,,,,,,,,,,,,,,,,,,,
,,,,,,,,,R_1gMFlk8MiIaGlf2,2022-09-13_17h59.58.751,jpn_C03,2022.1.2,Win32,60.37189085,,,,,,,,,,,,,,,,,,,,,,,,,0,8,8,11,1,CartoonStims/burglar_punch_cowboy_r.jpg,プミ　ホレト　ムク,CartoonStims/chef_punch_cowboy_r.jpg,right,CartoonStims/chef_punch_cowboy_r.jpg,audio/pumihoretomuku.mp3,残念！ こちらが正しい画像です。,,,,,,,,,,,,,,,,,,,,,,,,,,,,,,,,,,,,,,,,,,
,,,,,,,,,R_1gMFlk8MiIaGlf2,2022-09-13_17h59.58.751,jpn_C03,2022.1.2,Win32,60.37189085,,,,,,,,,,,,,,,,,left,1,4.2005,0,0,0,0,1,,,,,,,,,,,,,,,,,,,,,,,,,,,,,,,,,,,,,,,,,,,,,,,,,,,,,,
,,,,,,,,,R_1gMFlk8MiIaGlf2,2022-09-13_17h59.58.751,jpn_C03,2022.1.2,Win32,60.37189085,,,,,,,,,,,,,,,,,,,,,,,,,0,9,9,6,1,CartoonStims/doctor_punch_boxer_r.jpg,プミ　ピポ　ドキ,CartoonStims/doctor_shoot_boxer_r.jpg,left,CartoonStims/doctor_punch_boxer_r.jpg,audio/pumipipodoki.mp3,残念！ こちらが正しい画像です。,,,,,,,,,,,,,,,,,,,,,,,,,,,,,,,,,,,,,,,,,,
,,,,,,,,,R_1gMFlk8MiIaGlf2,2022-09-13_17h59.58.751,jpn_C03,2022.1.2,Win32,60.37189085,,,,,,,,,,,,,,,,,right,1,3.545,,,,,,,,,,,,,,,,,,0,0,0,0,1,,,,,,,,,,,,,,,,,,,,,,,,,,,,,,,,,,,,,
,,,,,,,,,R_1gMFlk8MiIaGlf2,2022-09-13_17h59.58.751,jpn_C03,2022.1.2,Win32,60.37189085,,,,,,,,,,,,,,,,,,,,,,,,,0,10,10,1,1,CartoonStims/chef_point_burglar_r.jpg,トマ　ホレト　シド,CartoonStims/chef_point_artist_r.jpg,right,CartoonStims/chef_point_artist_r.jpg,audio/tomahoretosido.mp3,残念！ こちらが正しい画像です。,,,,,,,,,,,,,,,,,,,,,,,,,,,,,,,,,,,,,,,,,,
,,,,,,,,,R_1gMFlk8MiIaGlf2,2022-09-13_17h59.58.751,jpn_C03,2022.1.2,Win32,60.37189085,,,,,,,,,,,,,,,,,right,1,4.9579,,,,,,,,,,,,,,,,,,0,0,0,0,1,,,,,,,,,,,,,,,,,,,,,,,,,,,,,,,,,,,,,
,,,,,,,,,R_1gMFlk8MiIaGlf2,2022-09-13_17h59.58.751,jpn_C03,2022.1.2,Win32,60.37189085,,,,,,,,,,,,,,,,,,,,,,,,,0,11,11,3,1,CartoonStims/cowboy_punch_doctor_r.jpg,プミ　ムク　ドキ,CartoonStims/cowboy_punch_boxer_r.jpg,right,CartoonStims/cowboy_punch_boxer_r.jpg,audio/pumimukudoki.mp3,残念！ こちらが正しい画像です。,,,,,,,,,,,,,,,,,,,,,,,,,,,,,,,,,,,,,,,,,,
,,,,,,,,,R_1gMFlk8MiIaGlf2,2022-09-13_17h59.58.751,jpn_C03,2022.1.2,Win32,60.37189085,,,,,,,,,,,,,,,,,,,,,,,,,,,,,,,,,,,,,,,,,,space,4.7353,ハツ　ルピン　ホレト,right,21.1695,0,0,0,0,1,,,,,,,,,,,,,,,,,,,,,,,,,,,
,,,,,,,,,R_1gMFlk8MiIaGlf2,2022-09-13_17h59.58.751,jpn_C03,2022.1.2,Win32,60.37189085,,,,,,,,,,,,,CartoonStims/burglar_shoot_chef_r.jpg,audio/patsulupinhoreto.mp3,,,,,,,,,,,,,,,,,,,,,,,,,,,,,,,,,,,,,,0,0,0,6,1,パツ　ルピン　ホレト,,,,,,,,,,,,,,,,,,,,,
,,,,,,,,,R_1gMFlk8MiIaGlf2,2022-09-13_17h59.58.751,jpn_C03,2022.1.2,Win32,60.37189085,,,,,,,,,,,,,,,,,,,,,,,,,,,,,,,,,,,,,,,,,,,,プミ　ドキ　シド,right,29.6568,0,0,0,0,1,,,,,,,,,,,,,,,,,,,,,,,,,,,
,,,,,,,,,R_1gMFlk8MiIaGlf2,2022-09-13_17h59.58.751,jpn_C03,2022.1.2,Win32,60.37189085,,,,,,,,,,,,,CartoonStims/boxer_punch_artist_r.jpg,audio/pumidokisido.mp3,,,,,,,,,,,,,,,,,,,,,,,,,,,,,,,,,,,,,,0,1,1,11,1,プミ　ドキ　シド,,,,,,,,,,,,,,,,,,,,,
,,,,,,,,,R_1gMFlk8MiIaGlf2,2022-09-13_17h59.58.751,jpn_C03,2022.1.2,Win32,60.37189085,,,,,,,,,,,,,,,,,,,,,,,,,,,,,,,,,,,,,,,,,,,,セル　ピポ　ホレト,right,14.8352,0,0,0,0,1,,,,,,,,,,,,,,,,,,,,,,,,,,,
,,,,,,,,,R_1gMFlk8MiIaGlf2,2022-09-13_17h59.58.751,jpn_C03,2022.1.2,Win32,60.37189085,,,,,,,,,,,,,CartoonStims/doctor_kick_chef_r.jpg,audio/serupipohoreto.mp3,,,,,,,,,,,,,,,,,,,,,,,,,,,,,,,,,,,,,,0,2,2,1,1,セル　ピポ　ホレト,,,,,,,,,,,,,,,,,,,,,
,,,,,,,,,R_1gMFlk8MiIaGlf2,2022-09-13_17h59.58.751,jpn_C03,2022.1.2,Win32,60.37189085,,,,,,,,,,,,,,,,,,,,,,,,,,,,,,,,,,,,,,,,,,,,プミ　ピポ　ドキ,right,25.6046,0,0,0,0,1,,,,,,,,,,,,,,,,,,,,,,,,,,,
,,,,,,,,,R_1gMFlk8MiIaGlf2,2022-09-13_17h59.58.751,jpn_C03,2022.1.2,Win32,60.37189085,,,,,,,,,,,,,CartoonStims/doctor_punch_boxer_r.jpg,audio/pumipipodoki.mp3,,,,,,,,,,,,,,,,,,,,,,,,,,,,,,,,,,,,,,0,3,3,10,1,プミ　ピポ　ドキ,,,,,,,,,,,,,,,,,,,,,
,,,,,,,,,R_1gMFlk8MiIaGlf2,2022-09-13_17h59.58.751,jpn_C03,2022.1.2,Win32,60.37189085,,,,,,,,,,,,,,,,,,,,,,,,,,,,,,,,,,,,,,,,,,,,トマ　ホレト　ルピン,right,6.3825,0,0,0,0,1,,,,,,,,,,,,,,,,,,,,,,,,,,,
,,,,,,,,,R_1gMFlk8MiIaGlf2,2022-09-13_17h59.58.751,jpn_C03,2022.1.2,Win32,60.37189085,,,,,,,,,,,,,CartoonStims/chef_point_burglar_r.jpg,audio/tomahoretolupin.mp3,,,,,,,,,,,,,,,,,,,,,,,,,,,,,,,,,,,,,,0,4,4,5,1,トマ　ホレト　ルピン,,,,,,,,,,,,,,,,,,,,,
,,,,,,,,,R_1gMFlk8MiIaGlf2,2022-09-13_17h59.58.751,jpn_C03,2022.1.2,Win32,60.37189085,,,,,,,,,,,,,,,,,,,,,,,,,,,,,,,,,,,,,,,,,,,,セル　ドキ　ムク,right,5.45,0,0,0,0,1,,,,,,,,,,,,,,,,,,,,,,,,,,,
,,,,,,,,,R_1gMFlk8MiIaGlf2,2022-09-13_17h59.58.751,jpn_C03,2022.1.2,Win32,60.37189085,,,,,,,,,,,,,CartoonStims/boxer_kick_cowboy_r.jpg,audio/serudokimuku.mp3,,,,,,,,,,,,,,,,,,,,,,,,,,,,,,,,,,,,,,0,5,5,2,1,セル　ドキ　ムク,,,,,,,,,,,,,,,,,,,,,
,,,,,,,,,R_1gMFlk8MiIaGlf2,2022-09-13_17h59.58.751,jpn_C03,2022.1.2,Win32,60.37189085,,,,,,,,,,,,,,,,,,,,,,,,,,,,,,,,,,,,,,,,,,,,パツ　ムク　ピポ,right,10.0605,0,0,0,0,1,,,,,,,,,,,,,,,,,,,,,,,,,,,
,,,,,,,,,R_1gMFlk8MiIaGlf2,2022-09-13_17h59.58.751,jpn_C03,2022.1.2,Win32,60.37189085,,,,,,,,,,,,,CartoonStims/cowboy_shoot_doctor_r.jpg,audio/patsumukupipo.mp3,,,,,,,,,,,,,,,,,,,,,,,,,,,,,,,,,,,,,,0,6,6,8,1,パツ　ムク　ピポ,,,,,,,,,,,,,,,,,,,,,
,,,,,,,,,R_1gMFlk8MiIaGlf2,2022-09-13_17h59.58.751,jpn_C03,2022.1.2,Win32,60.37189085,,,,,,,,,,,,,,,,,,,,,,,,,,,,,,,,,,,,,,,,,,,,セル　ムク　ルピン,right,4.801,0,0,0,0,1,,,,,,,,,,,,,,,,,,,,,,,,,,,
,,,,,,,,,R_1gMFlk8MiIaGlf2,2022-09-13_17h59.58.751,jpn_C03,2022.1.2,Win32,60.37189085,,,,,,,,,,,,,CartoonStims/cowboy_kick_burglar_r.jpg,audio/serumukulupin.mp3,,,,,,,,,,,,,,,,,,,,,,,,,,,,,,,,,,,,,,0,7,7,0,1,セル　ムク　ルピン,,,,,,,,,,,,,,,,,,,,,
,,,,,,,,,R_1gMFlk8MiIaGlf2,2022-09-13_17h59.58.751,jpn_C03,2022.1.2,Win32,60.37189085,,,,,,,,,,,,,,,,,,,,,,,,,,,,,,,,,,,,,,,,,,,,パツ　ホレト　ムク,right,7.4338,0,0,0,0,1,,,,,,,,,,,,,,,,,,,,,,,,,,,
,,,,,,,,,R_1gMFlk8MiIaGlf2,2022-09-13_17h59.58.751,jpn_C03,2022.1.2,Win32,60.37189085,,,,,,,,,,,,,CartoonStims/chef_shoot_cowboy_r.jpg,audio/patsuhoretomuku.mp3,,,,,,,,,,,,,,,,,,,,,,,,,,,,,,,,,,,,,,0,8,8,7,1,パツ　ホレト　ムク,,,,,,,,,,,,,,,,,,,,,
,,,,,,,,,R_1gMFlk8MiIaGlf2,2022-09-13_17h59.58.751,jpn_C03,2022.1.2,Win32,60.37189085,,,,,,,,,,,,,,,,,,,,,,,,,,,,,,,,,,,,,,,,,,,,トマ　ルピン　シド,right,8.1567,0,0,0,0,1,,,,,,,,,,,,,,,,,,,,,,,,,,,
,,,,,,,,,R_1gMFlk8MiIaGlf2,2022-09-13_17h59.58.751,jpn_C03,2022.1.2,Win32,60.37189085,,,,,,,,,,,,,CartoonStims/burglar_point_artist_r.jpg,audio/tomalupinsido.mp3,,,,,,,,,,,,,,,,,,,,,,,,,,,,,,,,,,,,,,0,9,9,4,1,トマ　ルピン　シド,,,,,,,,,,,,,,,,,,,,,
,,,,,,,,,R_1gMFlk8MiIaGlf2,2022-09-13_17h59.58.751,jpn_C03,2022.1.2,Win32,60.37189085,,,,,,,,,,,,,,,,,,,,,,,,,,,,,,,,,,,,,,,,,,,,トマ　シド　ドキ,right,5.8108,0,0,0,0,1,,,,,,,,,,,,,,,,,,,,,,,,,,,
,,,,,,,,,R_1gMFlk8MiIaGlf2,2022-09-13_17h59.58.751,jpn_C03,2022.1.2,Win32,60.37189085,,,,,,,,,,,,,CartoonStims/artist_point_boxer_r.jpg,audio/tomasidodoki.mp3,,,,,,,,,,,,,,,,,,,,,,,,,,,,,,,,,,,,,,0,10,10,3,1,トマ　シド　ドキ,,,,,,,,,,,,,,,,,,,,,
,,,,,,,,,R_1gMFlk8MiIaGlf2,2022-09-13_17h59.58.751,jpn_C03,2022.1.2,Win32,60.37189085,,,,,,,,,,,,,,,,,,,,,,,,,,,,,,,,,,,,,,,,,,,,プミ　シド　ルピン,right,8.0912,0,0,0,0,1,,,,,,,,,,,,,,,,,,,,,,,,,,,
,,,,,,,,,R_1gMFlk8MiIaGlf2,2022-09-13_17h59.58.751,jpn_C03,2022.1.2,Win32,60.37189085,,,,,,,,,,,,,CartoonStims/artist_punch_burglar_r.jpg,audio/pumisidolupin.mp3,,,,,,,,,,,,,,,,,,,,,,,,,,,,,,,,,,,,,,0,11,11,9,1,プミ　シド　ルピン,,,,,,,,,,,,,,,,,,,,,
,,,,,,,,,R_1gMFlk8MiIaGlf2,2022-09-13_17h59.58.751,jpn_C03,2022.1.2,Win32,60.37189085,,,,,,,,,,,,,,,,,,,,,,,,,,,,,,,,,,,,,,,,,,,,,,,,,,,,,,,,,,,space,2.3254,0,1,1,1,1,AffExposure.xlsx,"第二のトライアルの学習では、この言語で書かれた文を見ていただきます。引き続き注意して、 聞こえた音を復唱してください。


スペースキーを押してください。",1,AffFCT.xlsx,ここからクイズが始まります。 スクリーンに表示されるテキストに合う画像を選んでください。,AffTest.xlsx,1,次にここまで学んだことをアウトプットしていただきます。 表示される画像を描写していると思う単語を、テキストボックスにタイプしてください。 答えを提出したあとに正しい正解が少しの間画面に写ります。,1,"これで第二のトライアルが終了しました。 ここで休憩をとっていただいても構いません。

休憩が終わりましたら、 スペースキーを押して続きの学習を行いましょう。",,,
,,,,,,,,,R_1gMFlk8MiIaGlf2,2022-09-13_17h59.58.751,jpn_C03,2022.1.2,Win32,60.37189085,space,5.556,space,15.9768,0,0,0,23,1,ピク　トマ　ドキ　ホレト,,,CartoonStims/boxer_point_chef_r_no.jpg,audio/pikutomadokihoreto.mp3,,,,,,,,,,,,,,,,,,,,,,,,,,,,,,,,,,,,,,,,,,,,,,,,,,,,,,,,,,,,,,,,
,,,,,,,,,R_1gMFlk8MiIaGlf2,2022-09-13_17h59.58.751,jpn_C03,2022.1.2,Win32,60.37189085,,,space,20.4584,0,1,1,22,1,トマ　ピク　ドキ　ルピン,,,CartoonStims/boxer_point_burglar_r_no.jpg,audio/tomapikudokilupin.mp3,,,,,,,,,,,,,,,,,,,,,,,,,,,,,,,,,,,,,,,,,,,,,,,,,,,,,,,,,,,,,,,,
,,,,,,,,,R_1gMFlk8MiIaGlf2,2022-09-13_17h59.58.751,jpn_C03,2022.1.2,Win32,60.37189085,,,space,7.6573,0,2,2,20,1,トマ　ピク　ピポ　シド,,,CartoonStims/doctor_point_artist_r_no.jpg,audio/tomapikupiposido.mp3,,,,,,,,,,,,,,,,,,,,,,,,,,,,,,,,,,,,,,,,,,,,,,,,,,,,,,,,,,,,,,,,
,,,,,,,,,R_1gMFlk8MiIaGlf2,2022-09-13_17h59.58.751,jpn_C03,2022.1.2,Win32,60.37189085,,,space,6.2088,0,3,3,28,1,パツ　ピク　ホレト　ドキ,,,CartoonStims/chef_shoot_boxer_r_no.jpg,audio/patsupikuhoretodoki.mp3,,,,,,,,,,,,,,,,,,,,,,,,,,,,,,,,,,,,,,,,,,,,,,,,,,,,,,,,,,,,,,,,
,,,,,,,,,R_1gMFlk8MiIaGlf2,2022-09-13_17h59.58.751,jpn_C03,2022.1.2,Win32,60.37189085,,,space,9.9726,0,4,4,30,1,パツ　ピク　ムク　シド,,,CartoonStims/cowboy_shoot_artist_r_no.jpg,audio/patsupikumukusido.mp3,,,,,,,,,,,,,,,,,,,,,,,,,,,,,,,,,,,,,,,,,,,,,,,,,,,,,,,,,,,,,,,,
,,,,,,,,,R_1gMFlk8MiIaGlf2,2022-09-13_17h59.58.751,jpn_C03,2022.1.2,Win32,60.37189085,,,space,11.9827,0,5,5,8,1,ピク　セル　ピポ　ドキ,,,CartoonStims/doctor_kick_boxer_r_no.jpg,audio/pikuserupipodoki.mp3,,,,,,,,,,,,,,,,,,,,,,,,,,,,,,,,,,,,,,,,,,,,,,,,,,,,,,,,,,,,,,,,
,,,,,,,,,R_1gMFlk8MiIaGlf2,2022-09-13_17h59.58.751,jpn_C03,2022.1.2,Win32,60.37189085,,,space,14.2105,0,6,6,42,1,ピク　プミ　ムク　ルピン,,,CartoonStims/cowboy_punch_burglar_r_no.jpg,audio/pikupumimukulupin.mp3,,,,,,,,,,,,,,,,,,,,,,,,,,,,,,,,,,,,,,,,,,,,,,,,,,,,,,,,,,,,,,,,
,,,,,,,,,R_1gMFlk8MiIaGlf2,2022-09-13_17h59.58.751,jpn_C03,2022.1.2,Win32,60.37189085,,,space,27.3707,0,7,7,10,1,セル　ピク　ドキ　シド,,,CartoonStims/boxer_kick_artist_r_no.jpg,audio/serupikudokisido.mp3,,,,,,,,,,,,,,,,,,,,,,,,,,,,,,,,,,,,,,,,,,,,,,,,,,,,,,,,,,,,,,,,
,,,,,,,,,R_1gMFlk8MiIaGlf2,2022-09-13_17h59.58.751,jpn_C03,2022.1.2,Win32,60.37189085,,,space,17.6175,0,8,8,17,1,トマ　ピク　ホレト　ドキ,,,CartoonStims/chef_point_boxer_r_no.jpg,audio/tomapikuhoretodoki.mp3,,,,,,,,,,,,,,,,,,,,,,,,,,,,,,,,,,,,,,,,,,,,,,,,,,,,,,,,,,,,,,,,
,,,,,,,,,R_1gMFlk8MiIaGlf2,2022-09-13_17h59.58.751,jpn_C03,2022.1.2,Win32,60.37189085,,,space,10.3204,0,9,9,38,1,プミ　ピク　ルピン　ドキ,,,CartoonStims/burglar_punch_boxer_r_no.jpg,audio/pumipikulupindoki.mp3,,,,,,,,,,,,,,,,,,,,,,,,,,,,,,,,,,,,,,,,,,,,,,,,,,,,,,,,,,,,,,,,
,,,,,,,,,R_1gMFlk8MiIaGlf2,2022-09-13_17h59.58.751,jpn_C03,2022.1.2,Win32,60.37189085,,,space,5.127,0,10,10,45,1,プミ　ピク　ピポ　ムク,,,CartoonStims/doctor_punch_cowboy_r_no.jpg,audio/pumipikupipomuku.mp3,,,,,,,,,,,,,,,,,,,,,,,,,,,,,,,,,,,,,,,,,,,,,,,,,,,,,,,,,,,,,,,,
,,,,,,,,,R_1gMFlk8MiIaGlf2,2022-09-13_17h59.58.751,jpn_C03,2022.1.2,Win32,60.37189085,,,space,16.6212,0,11,11,1,1,セル　ピク　シド　ホレト,,,CartoonStims/artist_kick_chef_r_no.jpg,audio/serupikusidohoreto.mp3,,,,,,,,,,,,,,,,,,,,,,,,,,,,,,,,,,,,,,,,,,,,,,,,,,,,,,,,,,,,,,,,
,,,,,,,,,R_1gMFlk8MiIaGlf2,2022-09-13_17h59.58.751,jpn_C03,2022.1.2,Win32,60.37189085,,,space,4.7005,0,12,12,5,1,セル　ピク　ホレト　ピポ,,,CartoonStims/chef_kick_doctor_r_no.jpg,audio/serupikuhoretopipo.mp3,,,,,,,,,,,,,,,,,,,,,,,,,,,,,,,,,,,,,,,,,,,,,,,,,,,,,,,,,,,,,,,,
,,,,,,,,,R_1gMFlk8MiIaGlf2,2022-09-13_17h59.58.751,jpn_C03,2022.1.2,Win32,60.37189085,,,space,5.301,0,13,13,21,1,トマ　ピク　ピポ　ルピン,,,CartoonStims/doctor_point_burglar_r_no.jpg,audio/tomapikupipolupin.mp3,,,,,,,,,,,,,,,,,,,,,,,,,,,,,,,,,,,,,,,,,,,,,,,,,,,,,,,,,,,,,,,,
,,,,,,,,,R_1gMFlk8MiIaGlf2,2022-09-13_17h59.58.751,jpn_C03,2022.1.2,Win32,60.37189085,,,space,27.9046,0,14,14,44,1,ピク　プミ　ピポ　ホレト,,,CartoonStims/doctor_punch_chef_r_no.jpg,audio/pikupumipipohoreto.mp3,,,,,,,,,,,,,,,,,,,,,,,,,,,,,,,,,,,,,,,,,,,,,,,,,,,,,,,,,,,,,,,,
,,,,,,,,,R_1gMFlk8MiIaGlf2,2022-09-13_17h59.58.751,jpn_C03,2022.1.2,Win32,60.37189085,,,space,14.9766,0,15,15,14,1,トマ　ピク　ルピン　ムク,,,CartoonStims/burglar_point_cowboy_r_no.jpg,audio/tomapikulupinmuku.mp3,,,,,,,,,,,,,,,,,,,,,,,,,,,,,,,,,,,,,,,,,,,,,,,,,,,,,,,,,,,,,,,,
,,,,,,,,,R_1gMFlk8MiIaGlf2,2022-09-13_17h59.58.751,jpn_C03,2022.1.2,Win32,60.37189085,,,space,16.5684,0,16,16,46,1,ピク　プミ　ドキ　ムク,,,CartoonStims/boxer_punch_cowboy_r_no.jpg,audio/pikupumidokimuku.mp3,,,,,,,,,,,,,,,,,,,,,,,,,,,,,,,,,,,,,,,,,,,,,,,,,,,,,,,,,,,,,,,,
,,,,,,,,,R_1gMFlk8MiIaGlf2,2022-09-13_17h59.58.751,jpn_C03,2022.1.2,Win32,60.37189085,,,space,9.886,0,17,17,7,1,セル　ピク　ムク　ドキ,,,CartoonStims/cowboy_kick_boxer_r_no.jpg,audio/serupikumukudoki.mp3,,,,,,,,,,,,,,,,,,,,,,,,,,,,,,,,,,,,,,,,,,,,,,,,,,,,,,,,,,,,,,,,
,,,,,,,,,R_1gMFlk8MiIaGlf2,2022-09-13_17h59.58.751,jpn_C03,2022.1.2,Win32,60.37189085,,,space,3.7818,0,18,18,33,1,パツ　ピク　ピポ　ホレト,,,CartoonStims/doctor_shoot_chef_r_no.jpg,audio/patsupikupipohoreto.mp3,,,,,,,,,,,,,,,,,,,,,,,,,,,,,,,,,,,,,,,,,,,,,,,,,,,,,,,,,,,,,,,,
,,,,,,,,,R_1gMFlk8MiIaGlf2,2022-09-13_17h59.58.751,jpn_C03,2022.1.2,Win32,60.37189085,,,space,2.0198,0,19,19,31,1,パツ　ピク　ムク　ルピン,,,CartoonStims/cowboy_shoot_burglar_r_no.jpg,audio/patsupikumukulupin.mp3,,,,,,,,,,,,,,,,,,,,,,,,,,,,,,,,,,,,,,,,,,,,,,,,,,,,,,,,,,,,,,,,
,,,,,,,,,R_1gMFlk8MiIaGlf2,2022-09-13_17h59.58.751,jpn_C03,2022.1.2,Win32,60.37189085,,,space,1.8185,0,20,20,16,1,トマ　ピク　ホレト　ピポ,,,CartoonStims/chef_point_doctor_r_no.jpg,audio/tomapikuhoretopipo.mp3,,,,,,,,,,,,,,,,,,,,,,,,,,,,,,,,,,,,,,,,,,,,,,,,,,,,,,,,,,,,,,,,
,,,,,,,,,R_1gMFlk8MiIaGlf2,2022-09-13_17h59.58.751,jpn_C03,2022.1.2,Win32,60.37189085,,,space,2.3362,0,21,21,26,1,パツ　ピク　ルピン　ピポ,,,CartoonStims/burglar_shoot_doctor_r_no.jpg,audio/patsupikulupinpipo.mp3,,,,,,,,,,,,,,,,,,,,,,,,,,,,,,,,,,,,,,,,,,,,,,,,,,,,,,,,,,,,,,,,
,,,,,,,,,R_1gMFlk8MiIaGlf2,2022-09-13_17h59.58.751,jpn_C03,2022.1.2,Win32,60.37189085,,,space,1.6656,0,22,22,24,1,パツ　ピク　シド　ムク,,,CartoonStims/artist_shoot_cowboy_r_no.jpg,audio/patsupikusidomuku.mp3,,,,,,,,,,,,,,,,,,,,,,,,,,,,,,,,,,,,,,,,,,,,,,,,,,,,,,,,,,,,,,,,
,,,,,,,,,R_1gMFlk8MiIaGlf2,2022-09-13_17h59.58.751,jpn_C03,2022.1.2,Win32,60.37189085,,,space,3.7737,0,23,23,40,1,プミ　ピク　ホレト　シド,,,CartoonStims/chef_punch_artist_r_no.jpg,audio/pumipikuhoretosido.mp3,,,,,,,,,,,,,,,,,,,,,,,,,,,,,,,,,,,,,,,,,,,,,,,,,,,,,,,,,,,,,,,,
,,,,,,,,,R_1gMFlk8MiIaGlf2,2022-09-13_17h59.58.751,jpn_C03,2022.1.2,Win32,60.37189085,,,space,3.5177,0,24,24,3,1,セル　ピク　ルピン　ムク,,,CartoonStims/burglar_kick_cowboy_r_no.jpg,audio/serupikulupinmuku.mp3,,,,,,,,,,,,,,,,,,,,,,,,,,,,,,,,,,,,,,,,,,,,,,,,,,,,,,,,,,,,,,,,
,,,,,,,,,R_1gMFlk8MiIaGlf2,2022-09-13_17h59.58.751,jpn_C03,2022.1.2,Win32,60.37189085,,,space,1.5774,0,25,25,37,1,プミ　ピク　シド　ドキ,,,CartoonStims/artist_punch_boxer_r_no.jpg,audio/pumipikusidodoki.mp3,,,,,,,,,,,,,,,,,,,,,,,,,,,,,,,,,,,,,,,,,,,,,,,,,,,,,,,,,,,,,,,,
,,,,,,,,,R_1gMFlk8MiIaGlf2,2022-09-13_17h59.58.751,jpn_C03,2022.1.2,Win32,60.37189085,,,space,6.3173,0,26,26,34,1,パツ　ピク　ドキ　ホレト,,,CartoonStims/boxer_shoot_chef_r_no.jpg,audio/patsupikudokihoreto.mp3,,,,,,,,,,,,,,,,,,,,,,,,,,,,,,,,,,,,,,,,,,,,,,,,,,,,,,,,,,,,,,,,
,,,,,,,,,R_1gMFlk8MiIaGlf2,2022-09-13_17h59.58.751,jpn_C03,2022.1.2,Win32,60.37189085,,,space,7.4023,0,27,27,36,1,プミ　ピク　シド　ピポ,,,CartoonStims/artist_punch_doctor_r_no.jpg,audio/pumipikusidopipo.mp3,,,,,,,,,,,,,,,,,,,,,,,,,,,,,,,,,,,,,,,,,,,,,,,,,,,,,,,,,,,,,,,,
,,,,,,,,,R_1gMFlk8MiIaGlf2,2022-09-13_17h59.58.751,jpn_C03,2022.1.2,Win32,60.37189085,,,space,3.3848,0,28,28,2,1,セル　ピク　ルピン　ホレト,,,CartoonStims/burglar_kick_chef_r_no.jpg,audio/serupikulupinhoreto.mp3,,,,,,,,,,,,,,,,,,,,,,,,,,,,,,,,,,,,,,,,,,,,,,,,,,,,,,,,,,,,,,,,
,,,,,,,,,R_1gMFlk8MiIaGlf2,2022-09-13_17h59.58.751,jpn_C03,2022.1.2,Win32,60.37189085,,,space,2.7753,0,29,29,41,1,プミ　ピク　ホレト　ルピン,,,CartoonStims/chef_punch_burglar_r_no.jpg,audio/pumipikuhoretolupin.mp3,,,,,,,,,,,,,,,,,,,,,,,,,,,,,,,,,,,,,,,,,,,,,,,,,,,,,,,,,,,,,,,,
,,,,,,,,,R_1gMFlk8MiIaGlf2,2022-09-13_17h59.58.751,jpn_C03,2022.1.2,Win32,60.37189085,,,space,2.1951,0,30,30,32,1,パツ　ピク　ピポ　ルピン,,,CartoonStims/doctor_shoot_burglar_r_no.jpg,audio/patsupikupipolupin.mp3,,,,,,,,,,,,,,,,,,,,,,,,,,,,,,,,,,,,,,,,,,,,,,,,,,,,,,,,,,,,,,,,
,,,,,,,,,R_1gMFlk8MiIaGlf2,2022-09-13_17h59.58.751,jpn_C03,2022.1.2,Win32,60.37189085,,,space,19.8492,0,31,31,25,1,ピク　パツ　シド　ピポ,,,CartoonStims/artist_shoot_doctor_r_no.jpg,audio/pikupatsusidopipo.mp3,,,,,,,,,,,,,,,,,,,,,,,,,,,,,,,,,,,,,,,,,,,,,,,,,,,,,,,,,,,,,,,,
,,,,,,,,,R_1gMFlk8MiIaGlf2,2022-09-13_17h59.58.751,jpn_C03,2022.1.2,Win32,60.37189085,,,space,7.6937,0,32,32,13,1,トマ　ピク　シド　ムク,,,CartoonStims/artist_point_cowboy_r_no.jpg,audio/tomapikusidomuku.mp3,,,,,,,,,,,,,,,,,,,,,,,,,,,,,,,,,,,,,,,,,,,,,,,,,,,,,,,,,,,,,,,,
,,,,,,,,,R_1gMFlk8MiIaGlf2,2022-09-13_17h59.58.751,jpn_C03,2022.1.2,Win32,60.37189085,,,space,1.6847,0,33,33,35,1,パツ　ピク　ドキ　ムク,,,CartoonStims/boxer_shoot_cowboy_r_no.jpg,audio/patsupikudokimuku.mp3,,,,,,,,,,,,,,,,,,,,,,,,,,,,,,,,,,,,,,,,,,,,,,,,,,,,,,,,,,,,,,,,
,,,,,,,,,R_1gMFlk8MiIaGlf2,2022-09-13_17h59.58.751,jpn_C03,2022.1.2,Win32,60.37189085,,,space,6.9167,0,34,34,4,1,ピク　セル　ホレト　ムク,,,CartoonStims/chef_kick_cowboy_r_no.jpg,audio/pikuseruhoretomuku.mp3,,,,,,,,,,,,,,,,,,,,,,,,,,,,,,,,,,,,,,,,,,,,,,,,,,,,,,,,,,,,,,,,
,,,,,,,,,R_1gMFlk8MiIaGlf2,2022-09-13_17h59.58.751,jpn_C03,2022.1.2,Win32,60.37189085,,,space,7.0857,0,35,35,0,1,ピク　セル　シド　ルピン,,,CartoonStims/artist_kick_burglar_r_no.jpg,audio/pikuserusidolupin.mp3,,,,,,,,,,,,,,,,,,,,,,,,,,,,,,,,,,,,,,,,,,,,,,,,,,,,,,,,,,,,,,,,
,,,,,,,,,R_1gMFlk8MiIaGlf2,2022-09-13_17h59.58.751,jpn_C03,2022.1.2,Win32,60.37189085,,,space,8.6859,0,36,36,47,1,プミ　ピク　ドキ　ピポ,,,CartoonStims/boxer_punch_doctor_r_no.jpg,audio/pumipikudokipipo.mp3,,,,,,,,,,,,,,,,,,,,,,,,,,,,,,,,,,,,,,,,,,,,,,,,,,,,,,,,,,,,,,,,
,,,,,,,,,R_1gMFlk8MiIaGlf2,2022-09-13_17h59.58.751,jpn_C03,2022.1.2,Win32,60.37189085,,,space,4.3377,0,37,37,19,1,ピク　トマ　ムク　シド,,,CartoonStims/cowboy_point_artist_r_no.jpg,audio/pikutomamukusido.mp3,,,,,,,,,,,,,,,,,,,,,,,,,,,,,,,,,,,,,,,,,,,,,,,,,,,,,,,,,,,,,,,,
,,,,,,,,,R_1gMFlk8MiIaGlf2,2022-09-13_17h59.58.751,jpn_C03,2022.1.2,Win32,60.37189085,,,space,8.6056,0,38,38,15,1,ピク　トマ　ルピン　ピポ,,,CartoonStims/burglar_point_doctor_r_no.jpg,audio/pikutomalupinpipo.mp3,,,,,,,,,,,,,,,,,,,,,,,,,,,,,,,,,,,,,,,,,,,,,,,,,,,,,,,,,,,,,,,,
,,,,,,,,,R_1gMFlk8MiIaGlf2,2022-09-13_17h59.58.751,jpn_C03,2022.1.2,Win32,60.37189085,,,space,9.8743,0,39,39,27,1,ピク　パツ　ルピン　ドキ,,,CartoonStims/burglar_shoot_boxer_r_no.jpg,audio/pikupatsulupindoki.mp3,,,,,,,,,,,,,,,,,,,,,,,,,,,,,,,,,,,,,,,,,,,,,,,,,,,,,,,,,,,,,,,,
,,,,,,,,,R_1gMFlk8MiIaGlf2,2022-09-13_17h59.58.751,jpn_C03,2022.1.2,Win32,60.37189085,,,space,11.9049,0,40,40,6,1,セル　ピク　ムク　ピポ,,,CartoonStims/cowboy_kick_doctor_r_no.jpg,audio/serupikumukupipo.mp3,,,,,,,,,,,,,,,,,,,,,,,,,,,,,,,,,,,,,,,,,,,,,,,,,,,,,,,,,,,,,,,,
,,,,,,,,,R_1gMFlk8MiIaGlf2,2022-09-13_17h59.58.751,jpn_C03,2022.1.2,Win32,60.37189085,,,space,3.3091,0,41,41,12,1,トマ　ピク　シド　ホレト,,,CartoonStims/artist_point_chef_r_no.jpg,audio/tomapikusidohoreto.mp3,,,,,,,,,,,,,,,,,,,,,,,,,,,,,,,,,,,,,,,,,,,,,,,,,,,,,,,,,,,,,,,,
,,,,,,,,,R_1gMFlk8MiIaGlf2,2022-09-13_17h59.58.751,jpn_C03,2022.1.2,Win32,60.37189085,,,space,7.5253,0,42,42,43,1,プミ　ピク　ムク　ホレト,,,CartoonStims/cowboy_punch_chef_r_no.jpg,audio/pumipikumukuhoreto.mp3,,,,,,,,,,,,,,,,,,,,,,,,,,,,,,,,,,,,,,,,,,,,,,,,,,,,,,,,,,,,,,,,
,,,,,,,,,R_1gMFlk8MiIaGlf2,2022-09-13_17h59.58.751,jpn_C03,2022.1.2,Win32,60.37189085,,,space,5.8423,0,43,43,39,1,プミ　ピク　ルピン　シド,,,CartoonStims/burglar_punch_artist_r_no.jpg,audio/pumipikulupinsido.mp3,,,,,,,,,,,,,,,,,,,,,,,,,,,,,,,,,,,,,,,,,,,,,,,,,,,,,,,,,,,,,,,,
,,,,,,,,,R_1gMFlk8MiIaGlf2,2022-09-13_17h59.58.751,jpn_C03,2022.1.2,Win32,60.37189085,,,space,2.2871,0,44,44,9,1,セル　ピク　ピポ　シド,,,CartoonStims/doctor_kick_artist_r_no.jpg,audio/serupikupiposido.mp3,,,,,,,,,,,,,,,,,,,,,,,,,,,,,,,,,,,,,,,,,,,,,,,,,,,,,,,,,,,,,,,,
,,,,,,,,,R_1gMFlk8MiIaGlf2,2022-09-13_17h59.58.751,jpn_C03,2022.1.2,Win32,60.37189085,,,space,3.1676,0,45,45,29,1,ピク　パツ　ホレト　シド,,,CartoonStims/chef_shoot_artist_r_no.jpg,audio/pikupatsuhoretosido.mp3,,,,,,,,,,,,,,,,,,,,,,,,,,,,,,,,,,,,,,,,,,,,,,,,,,,,,,,,,,,,,,,,
,,,,,,,,,R_1gMFlk8MiIaGlf2,2022-09-13_17h59.58.751,jpn_C03,2022.1.2,Win32,60.37189085,,,space,3.136,0,46,46,18,1,トマ　ピク　ムク　ドキ,,,CartoonStims/cowboy_point_boxer_r_no.jpg,audio/tomapikumukudoki.mp3,,,,,,,,,,,,,,,,,,,,,,,,,,,,,,,,,,,,,,,,,,,,,,,,,,,,,,,,,,,,,,,,
,,,,,,,,,R_1gMFlk8MiIaGlf2,2022-09-13_17h59.58.751,jpn_C03,2022.1.2,Win32,60.37189085,,,space,2.518,0,47,47,11,1,セル　ピク　ドキ　ルピン,,,CartoonStims/boxer_kick_burglar_r_no.jpg,audio/serupikudokilupin.mp3,,,,,,,,,,,,,,,,,,,,,,,,,,,,,,,,,,,,,,,,,,,,,,,,,,,,,,,,,,,,,,,,
,,,,,,,,,R_1gMFlk8MiIaGlf2,2022-09-13_17h59.58.751,jpn_C03,2022.1.2,Win32,60.37189085,,,,,,,,,,,,,,,space,0.2338,left,1,19.3017,0,0,0,0,1,,,,,,,,,,,,,,,,,,,,,,,,,,,,,,,,,,,,,,,,,,,,,,,,,,,,,,
,,,,,,,,,R_1gMFlk8MiIaGlf2,2022-09-13_17h59.58.751,jpn_C03,2022.1.2,Win32,60.37189085,,,,,,,,,,,,,,,,,,,,,,,,,0,0,0,8,1,CartoonStims/burglar_punch_artist_r.jpg,トマ　ピク　ルピン　シド,CartoonStims/burglar_point_artist_r.jpg,left,CartoonStims/burglar_punch_artist_r.jpg,audio/tomapikulupinsido.mp3,"残念！ こちらが正しい画像です。

否定文は起きていないことを示しているのを思い出してください。",,,,,,,,,,,,,,,,,,,,,,,,,,,,,,,,,,,,,,,,,,
,,,,,,,,,R_1gMFlk8MiIaGlf2,2022-09-13_17h59.58.751,jpn_C03,2022.1.2,Win32,60.37189085,,,,,,,,,,,,,,,,,right,1,7.5665,,,,,,,,,,,,,,,,,,0,0,0,0,1,,,,,,,,,,,,,,,,,,,,,,,,,,,,,,,,,,,,,
,,,,,,,,,R_1gMFlk8MiIaGlf2,2022-09-13_17h59.58.751,jpn_C03,2022.1.2,Win32,60.37189085,,,,,,,,,,,,,,,,,,,,,,,,,0,1,1,3,1,CartoonStims/chef_kick_artist_r.jpg,ピク　セル　ホレト　シド,CartoonStims/chef_point_artist_r.jpg,right,CartoonStims/chef_point_artist_r.jpg,audio/pikuseruhoretosido.mp3,"残念！ こちらが正しい画像です。

否定文は起きていないことを示しているのを思い出してください。",,,,,,,,,,,,,,,,,,,,,,,,,,,,,,,,,,,,,,,,,,
,,,,,,,,,R_1gMFlk8MiIaGlf2,2022-09-13_17h59.58.751,jpn_C03,2022.1.2,Win32,60.37189085,,,,,,,,,,,,,,,,,left,1,3.9509,0,0,0,0,1,,,,,,,,,,,,,,,,,,,,,,,,,,,,,,,,,,,,,,,,,,,,,,,,,,,,,,
,,,,,,,,,R_1gMFlk8MiIaGlf2,2022-09-13_17h59.58.751,jpn_C03,2022.1.2,Win32,60.37189085,,,,,,,,,,,,,,,,,,,,,,,,,0,2,2,0,1,CartoonStims/artist_shoot_burglar_r.jpg,ピク　プミ　シド　ルピン,CartoonStims/artist_punch_burglar_r.jpg,left,CartoonStims/artist_shoot_burglar_r.jpg,audio/pikupumisidolupin.mp3,"残念！ こちらが正しい画像です。

否定文は起きていないことを示しているのを思い出してください。",,,,,,,,,,,,,,,,,,,,,,,,,,,,,,,,,,,,,,,,,,
,,,,,,,,,R_1gMFlk8MiIaGlf2,2022-09-13_17h59.58.751,jpn_C03,2022.1.2,Win32,60.37189085,,,,,,,,,,,,,,,,,left,1,3.1018,0,0,0,0,1,,,,,,,,,,,,,,,,,,,,,,,,,,,,,,,,,,,,,,,,,,,,,,,,,,,,,,
,,,,,,,,,R_1gMFlk8MiIaGlf2,2022-09-13_17h59.58.751,jpn_C03,2022.1.2,Win32,60.37189085,,,,,,,,,,,,,,,,,,,,,,,,,0,3,3,2,1,CartoonStims/doctor_point_boxer_r.jpg,プミ　ピク　ピポ　ドキ,CartoonStims/doctor_punch_boxer_r.jpg,left,CartoonStims/doctor_point_boxer_r.jpg,audio/pumipikupipodoki.mp3,"残念！ こちらが正しい画像です。

否定文は起きていないことを示しているのを思い出してください。",,,,,,,,,,,,,,,,,,,,,,,,,,,,,,,,,,,,,,,,,,
,,,,,,,,,R_1gMFlk8MiIaGlf2,2022-09-13_17h59.58.751,jpn_C03,2022.1.2,Win32,60.37189085,,,,,,,,,,,,,,,,,right,1,2.9208,,,,,,,,,,,,,,,,,,0,0,0,0,1,,,,,,,,,,,,,,,,,,,,,,,,,,,,,,,,,,,,,
,,,,,,,,,R_1gMFlk8MiIaGlf2,2022-09-13_17h59.58.751,jpn_C03,2022.1.2,Win32,60.37189085,,,,,,,,,,,,,,,,,,,,,,,,,0,4,4,11,1,CartoonStims/chef_shoot_burglar_r.jpg,パツ　ピク　ホレト　ルピン,CartoonStims/chef_kick_burglar_r.jpg,right,CartoonStims/chef_kick_burglar_r.jpg,audio/patsupikuhoretolupin.mp3,"残念！ こちらが正しい画像です。

否定文は起きていないことを示しているのを思い出してください。",,,,,,,,,,,,,,,,,,,,,,,,,,,,,,,,,,,,,,,,,,
,,,,,,,,,R_1gMFlk8MiIaGlf2,2022-09-13_17h59.58.751,jpn_C03,2022.1.2,Win32,60.37189085,,,,,,,,,,,,,,,,,right,1,8.5013,,,,,,,,,,,,,,,,,,0,0,0,0,1,,,,,,,,,,,,,,,,,,,,,,,,,,,,,,,,,,,,,
,,,,,,,,,R_1gMFlk8MiIaGlf2,2022-09-13_17h59.58.751,jpn_C03,2022.1.2,Win32,60.37189085,,,,,,,,,,,,,,,,,,,,,,,,,0,5,5,7,1,CartoonStims/cowboy_point_chef_r.jpg,ピク　トマ　ムク　ホレト,CartoonStims/cowboy_kick_chef_r.jpg,right,CartoonStims/cowboy_kick_chef_r.jpg,audio/pikutomamukuhoreto.mp3,"残念！ こちらが正しい画像です。

否定文は起きていないことを示しているのを思い出してください。",,,,,,,,,,,,,,,,,,,,,,,,,,,,,,,,,,,,,,,,,,
,,,,,,,,,R_1gMFlk8MiIaGlf2,2022-09-13_17h59.58.751,jpn_C03,2022.1.2,Win32,60.37189085,,,,,,,,,,,,,,,,,left,1,5.1543,0,0,0,0,1,,,,,,,,,,,,,,,,,,,,,,,,,,,,,,,,,,,,,,,,,,,,,,,,,,,,,,
,,,,,,,,,R_1gMFlk8MiIaGlf2,2022-09-13_17h59.58.751,jpn_C03,2022.1.2,Win32,60.37189085,,,,,,,,,,,,,,,,,,,,,,,,,0,6,6,4,1,CartoonStims/burglar_shoot_doctor_r.jpg,セル　ピク　ルピン　ピポ,CartoonStims/burglar_kick_doctor_r.jpg,left,CartoonStims/burglar_shoot_doctor_r.jpg,audio/serupikulupinpipo.mp3,"残念！ こちらが正しい画像です。

否定文は起きていないことを示しているのを思い出してください。",,,,,,,,,,,,,,,,,,,,,,,,,,,,,,,,,,,,,,,,,,
,,,,,,,,,R_1gMFlk8MiIaGlf2,2022-09-13_17h59.58.751,jpn_C03,2022.1.2,Win32,60.37189085,,,,,,,,,,,,,,,,,left,1,3.4185,0,0,0,0,1,,,,,,,,,,,,,,,,,,,,,,,,,,,,,,,,,,,,,,,,,,,,,,,,,,,,,,
,,,,,,,,,R_1gMFlk8MiIaGlf2,2022-09-13_17h59.58.751,jpn_C03,2022.1.2,Win32,60.37189085,,,,,,,,,,,,,,,,,,,,,,,,,0,7,7,6,1,CartoonStims/artist_shoot_boxer_r.jpg,トマ　ピク　シド　ドキ,CartoonStims/artist_point_boxer_r.jpg,left,CartoonStims/artist_shoot_boxer_r.jpg,audio/tomapikusidodoki.mp3,"残念！ こちらが正しい画像です。

否定文は起きていないことを示しているのを思い出してください。",,,,,,,,,,,,,,,,,,,,,,,,,,,,,,,,,,,,,,,,,,
,,,,,,,,,R_1gMFlk8MiIaGlf2,2022-09-13_17h59.58.751,jpn_C03,2022.1.2,Win32,60.37189085,,,,,,,,,,,,,,,,,right,1,1.5608,,,,,,,,,,,,,,,,,,0,0,0,0,1,,,,,,,,,,,,,,,,,,,,,,,,,,,,,,,,,,,,,
,,,,,,,,,R_1gMFlk8MiIaGlf2,2022-09-13_17h59.58.751,jpn_C03,2022.1.2,Win32,60.37189085,,,,,,,,,,,,,,,,,,,,,,,,,0,8,8,1,1,CartoonStims/chef_punch_cowboy_r.jpg,プミ　ピク　ホレト　ムク,CartoonStims/chef_kick_cowboy_r.jpg,right,CartoonStims/chef_kick_cowboy_r.jpg,audio/pumipikuhoretomuku.mp3,"残念！ こちらが正しい画像です。

否定文は起きていないことを示しているのを思い出してください。",,,,,,,,,,,,,,,,,,,,,,,,,,,,,,,,,,,,,,,,,,
,,,,,,,,,R_1gMFlk8MiIaGlf2,2022-09-13_17h59.58.751,jpn_C03,2022.1.2,Win32,60.37189085,,,,,,,,,,,,,,,,,right,1,12.5473,,,,,,,,,,,,,,,,,,0,0,0,0,1,,,,,,,,,,,,,,,,,,,,,,,,,,,,,,,,,,,,,
,,,,,,,,,R_1gMFlk8MiIaGlf2,2022-09-13_17h59.58.751,jpn_C03,2022.1.2,Win32,60.37189085,,,,,,,,,,,,,,,,,,,,,,,,,0,9,9,9,1,CartoonStims/boxer_shoot_doctor_r.jpg,パツ　ピク　ドキ　ピポ,CartoonStims/boxer_point_doctor_r.jpg,right,CartoonStims/boxer_point_doctor_r.jpg,audio/patsupikudokipipo.mp3,"残念！ こちらが正しい画像です。

否定文は起きていないことを示しているのを思い出してください。",,,,,,,,,,,,,,,,,,,,,,,,,,,,,,,,,,,,,,,,,,
,,,,,,,,,R_1gMFlk8MiIaGlf2,2022-09-13_17h59.58.751,jpn_C03,2022.1.2,Win32,60.37189085,,,,,,,,,,,,,,,,,right,1,1.317,,,,,,,,,,,,,,,,,,0,0,0,0,1,,,,,,,,,,,,,,,,,,,,,,,,,,,,,,,,,,,,,
,,,,,,,,,R_1gMFlk8MiIaGlf2,2022-09-13_17h59.58.751,jpn_C03,2022.1.2,Win32,60.37189085,,,,,,,,,,,,,,,,,,,,,,,,,0,10,10,5,1,CartoonStims/boxer_kick_cowboy_r.jpg,セル　ピク　ドキ　ムク,CartoonStims/boxer_punch_cowboy_r.jpg,right,CartoonStims/boxer_punch_cowboy_r.jpg,audio/serupikudokimuku.mp3,"残念！ こちらが正しい画像です。

否定文は起きていないことを示しているのを思い出してください。",,,,,,,,,,,,,,,,,,,,,,,,,,,,,,,,,,,,,,,,,,
,,,,,,,,,R_1gMFlk8MiIaGlf2,2022-09-13_17h59.58.751,jpn_C03,2022.1.2,Win32,60.37189085,,,,,,,,,,,,,,,,,left,1,2.9432,0,0,0,0,1,,,,,,,,,,,,,,,,,,,,,,,,,,,,,,,,,,,,,,,,,,,,,,,,,,,,,,
,,,,,,,,,R_1gMFlk8MiIaGlf2,2022-09-13_17h59.58.751,jpn_C03,2022.1.2,Win32,60.37189085,,,,,,,,,,,,,,,,,,,,,,,,,0,11,11,10,1,CartoonStims/doctor_punch_cowboy_r.jpg,ピク　パツ　ピポ　ムク,CartoonStims/doctor_shoot_cowboy_r.jpg,left,CartoonStims/doctor_punch_cowboy_r.jpg,audio/pikupatsupipomuku.mp3,"残念！ こちらが正しい画像です。

否定文は起きていないことを示しているのを思い出してください。",,,,,,,,,,,,,,,,,,,,,,,,,,,,,,,,,,,,,,,,,,
,,,,,,,,,R_1gMFlk8MiIaGlf2,2022-09-13_17h59.58.751,jpn_C03,2022.1.2,Win32,60.37189085,,,,,,,,,,,,,CartoonStims/burglar_point_chef_r_no.jpg,,,,,,,,,,,,,,,,,,,,,,,,,,,,,space,2.6105,トマ　ピク　ルピン　ホレト,right,23.0608,,,,,,0,0,0,7,1,,,,,,,,,,,,,,,,,,,,ピク　トマ　ルピン　ホレト,トマ　ピク　ルピン　ホレト,1
,,,,,,,,,R_1gMFlk8MiIaGlf2,2022-09-13_17h59.58.751,jpn_C03,2022.1.2,Win32,60.37189085,,,,,,,,,,,,,CartoonStims/doctor_punch_boxer_r.jpg,,,,,,,,,,,,,,,,,,,,,,,,,,,,,,,プミ　ピク　ピポ　ドキ,right,25.2807,,,,,,0,1,1,34,1,,,,,,,,,,,,,,,,,,,,プミ　ピポ　ドキ,プミ　ピポ　ドキ,0
,,,,,,,,,R_1gMFlk8MiIaGlf2,2022-09-13_17h59.58.751,jpn_C03,2022.1.2,Win32,60.37189085,,,,,,,,,,,,,CartoonStims/burglar_point_artist_r.jpg,,,,,,,,,,,,,,,,,,,,,,,,,,,,,,,トマ　ルピン　シド,right,18.1023,,,,,,0,2,2,28,1,,,,,,,,,,,,,,,,,,,,トマ　ルピン　シド,トマ　ルピン　シド,0
,,,,,,,,,R_1gMFlk8MiIaGlf2,2022-09-13_17h59.58.751,jpn_C03,2022.1.2,Win32,60.37189085,,,,,,,,,,,,,CartoonStims/boxer_kick_cowboy_r.jpg,,,,,,,,,,,,,,,,,,,,,,,,,,,,,,,セル　ドキ　ムク,right,6.569,,,,,,0,3,3,26,1,,,,,,,,,,,,,,,,,,,,セル　ドキ　ムク,セル　ドキ　ムク,0
,,,,,,,,,R_1gMFlk8MiIaGlf2,2022-09-13_17h59.58.751,jpn_C03,2022.1.2,Win32,60.37189085,,,,,,,,,,,,,CartoonStims/burglar_kick_artist_r_no.jpg,,,,,,,,,,,,,,,,,,,,,,,,,,,,,,,セル　プミ　ルピン　シド,right,16.0099,,,,,,0,4,4,1,1,,,,,,,,,,,,,,,,,,,,ピク　セル　ルピン　シド,セル　ピク　ルピン　シド,1
,,,,,,,,,R_1gMFlk8MiIaGlf2,2022-09-13_17h59.58.751,jpn_C03,2022.1.2,Win32,60.37189085,,,,,,,,,,,,,CartoonStims/cowboy_shoot_doctor_r.jpg,,,,,,,,,,,,,,,,,,,,,,,,,,,,,,,パツ　ムク　ピポ,right,15.3708,,,,,,0,5,5,32,1,,,,,,,,,,,,,,,,,,,,パツ　ムク　ピポ,パツ　ムク　ピポ,0
,,,,,,,,,R_1gMFlk8MiIaGlf2,2022-09-13_17h59.58.751,jpn_C03,2022.1.2,Win32,60.37189085,,,,,,,,,,,,,CartoonStims/chef_shoot_doctor_r_no.jpg,,,,,,,,,,,,,,,,,,,,,,,,,,,,,,,パツ　プミ　ルピン　ピポ,right,19.2193,,,,,,0,6,6,14,1,,,,,,,,,,,,,,,,,,,,ピク　パツ　ホレト　ピポ,パツ　ピク　ホレト　ピポ,1
,,,,,,,,,R_1gMFlk8MiIaGlf2,2022-09-13_17h59.58.751,jpn_C03,2022.1.2,Win32,60.37189085,,,,,,,,,,,,,CartoonStims/chef_kick_burglar_r_no.jpg,,,,,,,,,,,,,,,,,,,,,,,,,,,,,,,セル　プミ　ホレト　ルピン,right,13.7922,,,,,,0,7,7,2,1,,,,,,,,,,,,,,,,,,,,ピク　セル　ホレト　ルピン,セル　ピク　ホレト　ルピン,1
,,,,,,,,,R_1gMFlk8MiIaGlf2,2022-09-13_17h59.58.751,jpn_C03,2022.1.2,Win32,60.37189085,,,,,,,,,,,,,CartoonStims/burglar_shoot_cowboy_r_no.jpg,,,,,,,,,,,,,,,,,,,,,,,,,,,,,,,パツ　プミ　ルピン　ムク,right,9.728,,,,,,0,8,8,13,1,,,,,,,,,,,,,,,,,,,,ピク　パツ　ルピン　ムク,パツ　ピク　ルピン　ムク,1
,,,,,,,,,R_1gMFlk8MiIaGlf2,2022-09-13_17h59.58.751,jpn_C03,2022.1.2,Win32,60.37189085,,,,,,,,,,,,,CartoonStims/chef_shoot_cowboy_r.jpg,,,,,,,,,,,,,,,,,,,,,,,,,,,,,,,パツ　ルピン　ムク,right,6.4874,,,,,,0,9,9,31,1,,,,,,,,,,,,,,,,,,,,パツ　ホレト　ムク,パツ　ホレト　ムク,0
,,,,,,,,,R_1gMFlk8MiIaGlf2,2022-09-13_17h59.58.751,jpn_C03,2022.1.2,Win32,60.37189085,,,,,,,,,,,,,CartoonStims/artist_kick_boxer_r_no.jpg,,,,,,,,,,,,,,,,,,,,,,,,,,,,,,,セル　ムク　シド　ドキ,right,14.4561,,,,,,0,10,10,0,1,,,,,,,,,,,,,,,,,,,,ピク　セル　シド　ドキ,セル　ピク　シド　ドキ,1
,,,,,,,,,R_1gMFlk8MiIaGlf2,2022-09-13_17h59.58.751,jpn_C03,2022.1.2,Win32,60.37189085,,,,,,,,,,,,,CartoonStims/doctor_point_boxer_r_no.jpg,,,,,,,,,,,,,,,,,,,,,,,,,,,,,,,トマ　ピク　ピポ　ドキ,right,15.0412,,,,,,0,11,11,10,1,,,,,,,,,,,,,,,,,,,,ピク　トマ　ピポ　ドキ,トマ　ピク　ピポ　ドキ,1
,,,,,,,,,R_1gMFlk8MiIaGlf2,2022-09-13_17h59.58.751,jpn_C03,2022.1.2,Win32,60.37189085,,,,,,,,,,,,,CartoonStims/boxer_kick_doctor_r_no.jpg,,,,,,,,,,,,,,,,,,,,,,,,,,,,,,,セル　ピク　ドキ　ピポ,right,21.1955,,,,,,0,12,12,5,1,,,,,,,,,,,,,,,,,,,,ピク　セル　ドキ　ピポ,セル　ピク　ドキ　ピポ,1
,,,,,,,,,R_1gMFlk8MiIaGlf2,2022-09-13_17h59.58.751,jpn_C03,2022.1.2,Win32,60.37189085,,,,,,,,,,,,,CartoonStims/cowboy_punch_artist_r_no.jpg,,,,,,,,,,,,,,,,,,,,,,,,,,,,,,,プミ　ピク　ムク　シド,right,52.8678,,,,,,0,13,13,21,1,,,,,,,,,,,,,,,,,,,,ピク　プミ　ムク　シド,プミ　ピク　ムク　シド,1
,,,,,,,,,R_1gMFlk8MiIaGlf2,2022-09-13_17h59.58.751,jpn_C03,2022.1.2,Win32,60.37189085,,,,,,,,,,,,,CartoonStims/cowboy_kick_burglar_r.jpg,,,,,,,,,,,,,,,,,,,,,,,,,,,,,,,セル　ムク　ルピン,right,13.9705,,,,,,0,14,14,24,1,,,,,,,,,,,,,,,,,,,,セル　ムク　ルピン,セル　ムク　ルピン,0
,,,,,,,,,R_1gMFlk8MiIaGlf2,2022-09-13_17h59.58.751,jpn_C03,2022.1.2,Win32,60.37189085,,,,,,,,,,,,,CartoonStims/chef_punch_boxer_r_no.jpg,,,,,,,,,,,,,,,,,,,,,,,,,,,,,,,プミ　ピク　ルピン　ドキ,right,19.7256,,,,,,0,15,15,20,1,,,,,,,,,,,,,,,,,,,,ピク　プミ　ホレト　ドキ,プミ　ピク　ホレト　ドキ,1
,,,,,,,,,R_1gMFlk8MiIaGlf2,2022-09-13_17h59.58.751,jpn_C03,2022.1.2,Win32,60.37189085,,,,,,,,,,,,,CartoonStims/artist_punch_cowboy_r_no.jpg,,,,,,,,,,,,,,,,,,,,,,,,,,,,,,,プミ　ピク　シド　ムク,right,8.0481,,,,,,0,16,16,18,1,,,,,,,,,,,,,,,,,,,,ピク　プミ　シド　ムク,プミ　ピク　シド　ムク,1
,,,,,,,,,R_1gMFlk8MiIaGlf2,2022-09-13_17h59.58.751,jpn_C03,2022.1.2,Win32,60.37189085,,,,,,,,,,,,,CartoonStims/chef_point_cowboy_r_no.jpg,,,,,,,,,,,,,,,,,,,,,,,,,,,,,,,トマ　ピク　ルピン　ムク,right,10.9357,,,,,,0,17,17,8,1,,,,,,,,,,,,,,,,,,,,ピク　トマ　ホレト　ムク,トマ　ピク　ホレト　ムク,1
,,,,,,,,,R_1gMFlk8MiIaGlf2,2022-09-13_17h59.58.751,jpn_C03,2022.1.2,Win32,60.37189085,,,,,,,,,,,,,CartoonStims/cowboy_shoot_boxer_r_no.jpg,,,,,,,,,,,,,,,,,,,,,,,,,,,,,,,パツ　ピク　ムク　ドキ,right,20.2105,,,,,,0,18,18,15,1,,,,,,,,,,,,,,,,,,,,ピク　パツ　ムク　ドキ,パツ　ピク　ムク　ドキ,1
,,,,,,,,,R_1gMFlk8MiIaGlf2,2022-09-13_17h59.58.751,jpn_C03,2022.1.2,Win32,60.37189085,,,,,,,,,,,,,CartoonStims/artist_punch_burglar_r.jpg,,,,,,,,,,,,,,,,,,,,,,,,,,,,,,,プミ　シド　ルピン,right,11.0008,,,,,,0,19,19,33,1,,,,,,,,,,,,,,,,,,,,プミ　シド　ルピン,プミ　シド　ルピン,0
,,,,,,,,,R_1gMFlk8MiIaGlf2,2022-09-13_17h59.58.751,jpn_C03,2022.1.2,Win32,60.37189085,,,,,,,,,,,,,CartoonStims/artist_shoot_chef_r_no.jpg,,,,,,,,,,,,,,,,,,,,,,,,,,,,,,,パツ　プミ　シド　ホレト,right,10.9131,,,,,,0,20,20,12,1,,,,,,,,,,,,,,,,,,,,ピク　パツ　シド　ホレト,パツ　ピク　シド　ホレト,1
,,,,,,,,,R_1gMFlk8MiIaGlf2,2022-09-13_17h59.58.751,jpn_C03,2022.1.2,Win32,60.37189085,,,,,,,,,,,,,CartoonStims/chef_point_burglar_r.jpg,,,,,,,,,,,,,,,,,,,,,,,,,,,,,,,トマ　ホレト　ルピン,right,10.9953,,,,,,0,21,21,29,1,,,,,,,,,,,,,,,,,,,,トマ　ホレト　ルピン,トマ　ホレト　ルピン,0
,,,,,,,,,R_1gMFlk8MiIaGlf2,2022-09-13_17h59.58.751,jpn_C03,2022.1.2,Win32,60.37189085,,,,,,,,,,,,,CartoonStims/cowboy_point_doctor_r_no.jpg,,,,,,,,,,,,,,,,,,,,,,,,,,,,,,,トマ　ピク　ムク　ピポ,right,17.0839,,,,,,0,22,22,9,1,,,,,,,,,,,,,,,,,,,,ピク　トマ　ムク　ピポ,トマ　ピク　ムク　ピポ,1
,,,,,,,,,R_1gMFlk8MiIaGlf2,2022-09-13_17h59.58.751,jpn_C03,2022.1.2,Win32,60.37189085,,,,,,,,,,,,,CartoonStims/cowboy_kick_chef_r_no.jpg,,,,,,,,,,,,,,,,,,,,,,,,,,,,,,,セル　ピク　ムク　ホレト,right,19.7725,,,,,,0,23,23,3,1,,,,,,,,,,,,,,,,,,,,ピク　セル　ムク　ホレト,セル　ピク　ムク　ホレト,1
,,,,,,,,,R_1gMFlk8MiIaGlf2,2022-09-13_17h59.58.751,jpn_C03,2022.1.2,Win32,60.37189085,,,,,,,,,,,,,CartoonStims/doctor_kick_chef_r.jpg,,,,,,,,,,,,,,,,,,,,,,,,,,,,,,,セル　ピポ　ホレト,right,12.9842,,,,,,0,24,24,25,1,,,,,,,,,,,,,,,,,,,,セル　ピポ　ホレト,セル　ピポ　ホレト,0
,,,,,,,,,R_1gMFlk8MiIaGlf2,2022-09-13_17h59.58.751,jpn_C03,2022.1.2,Win32,60.37189085,,,,,,,,,,,,,CartoonStims/doctor_shoot_artist_r_no.jpg,,,,,,,,,,,,,,,,,,,,,,,,,,,,,,,パツ　ピク　ピポ　シド,right,15.4019,,,,,,0,25,25,16,1,,,,,,,,,,,,,,,,,,,,ピク　パツ　ピポ　シド,パツ　ピク　ピポ　シド,1
,,,,,,,,,R_1gMFlk8MiIaGlf2,2022-09-13_17h59.58.751,jpn_C03,2022.1.2,Win32,60.37189085,,,,,,,,,,,,,CartoonStims/burglar_punch_doctor_r_no.jpg,,,,,,,,,,,,,,,,,,,,,,,,,,,,,,,プミ　ピク　ルピン　ピポ,right,14.8244,,,,,,0,26,26,19,1,,,,,,,,,,,,,,,,,,,,ピク　プミ　ルピン　ピポ,プミ　ピク　ルピン　ピポ,1
,,,,,,,,,R_1gMFlk8MiIaGlf2,2022-09-13_17h59.58.751,jpn_C03,2022.1.2,Win32,60.37189085,,,,,,,,,,,,,CartoonStims/doctor_punch_burglar_r_no.jpg,,,,,,,,,,,,,,,,,,,,,,,,,,,,,,,プミ　ピク　ピポ　ルピン,right,13.8993,,,,,,0,27,27,22,1,,,,,,,,,,,,,,,,,,,,ピク　プミ　ピポ　ルピン,プミ　ピク　ピポ　ルピン,1
,,,,,,,,,R_1gMFlk8MiIaGlf2,2022-09-13_17h59.58.751,jpn_C03,2022.1.2,Win32,60.37189085,,,,,,,,,,,,,CartoonStims/burglar_shoot_chef_r.jpg,,,,,,,,,,,,,,,,,,,,,,,,,,,,,,,パツ　ルピン　ホレト,right,8.5839,,,,,,0,28,28,30,1,,,,,,,,,,,,,,,,,,,,パツ　ルピン　ホレト,パツ　ルピン　ホレト,0
,,,,,,,,,R_1gMFlk8MiIaGlf2,2022-09-13_17h59.58.751,jpn_C03,2022.1.2,Win32,60.37189085,,,,,,,,,,,,,CartoonStims/boxer_point_artist_r_no.jpg,,,,,,,,,,,,,,,,,,,,,,,,,,,,,,,トマ　ピク　ドキ　シド,right,11.8633,,,,,,0,29,29,11,1,,,,,,,,,,,,,,,,,,,,ピク　トマ　ドキ　シド,トマ　ピク　ドキ　シド,1
,,,,,,,,,R_1gMFlk8MiIaGlf2,2022-09-13_17h59.58.751,jpn_C03,2022.1.2,Win32,60.37189085,,,,,,,,,,,,,CartoonStims/boxer_shoot_burglar_r_no.jpg,,,,,,,,,,,,,,,,,,,,,,,,,,,,,,,パツ　ピク　ドキ　ルピン,right,16.3649,,,,,,0,30,30,17,1,,,,,,,,,,,,,,,,,,,,ピク　パツ　ドキ　ルピン,パツ　ピク　ドキ　ルピン,1
,,,,,,,,,R_1gMFlk8MiIaGlf2,2022-09-13_17h59.58.751,jpn_C03,2022.1.2,Win32,60.37189085,,,,,,,,,,,,,CartoonStims/boxer_punch_chef_r_no.jpg,,,,,,,,,,,,,,,,,,,,,,,,,,,,,,,プミ　ピク　ドキ　ホレト,right,24.8115,,,,,,0,31,31,23,1,,,,,,,,,,,,,,,,,,,,ピク　プミ　ドキ　ホレト,プミ　ピク　ドキ　ホレト,1
,,,,,,,,,R_1gMFlk8MiIaGlf2,2022-09-13_17h59.58.751,jpn_C03,2022.1.2,Win32,60.37189085,,,,,,,,,,,,,CartoonStims/artist_point_boxer_r.jpg,,,,,,,,,,,,,,,,,,,,,,,,,,,,,,,トマ　シド　ドキ,right,9.9773,,,,,,0,32,32,27,1,,,,,,,,,,,,,,,,,,,,トマ　シド　ドキ,トマ　シド　ドキ,0
,,,,,,,,,R_1gMFlk8MiIaGlf2,2022-09-13_17h59.58.751,jpn_C03,2022.1.2,Win32,60.37189085,,,,,,,,,,,,,CartoonStims/doctor_kick_cowboy_r_no.jpg,,,,,,,,,,,,,,,,,,,,,,,,,,,,,,,セル　プミ　ピポ　ムク,right,25.7491,,,,,,0,33,33,4,1,,,,,,,,,,,,,,,,,,,,ピク　セル　ピポ　ムク,セル　ピク　ピポ　ムク,1
,,,,,,,,,R_1gMFlk8MiIaGlf2,2022-09-13_17h59.58.751,jpn_C03,2022.1.2,Win32,60.37189085,,,,,,,,,,,,,CartoonStims/artist_point_burglar_r_no.jpg,,,,,,,,,,,,,,,,,,,,,,,,,,,,,,,トマ　プミ　シド　ルピン,right,10.1317,,,,,,0,34,34,6,1,,,,,,,,,,,,,,,,,,,,ピク　トマ　シド　ルピン,トマ　ピク　シド　ルピン,1
,,,,,,,,,R_1gMFlk8MiIaGlf2,2022-09-13_17h59.58.751,jpn_C03,2022.1.2,Win32,60.37189085,,,,,,,,,,,,,CartoonStims/boxer_punch_artist_r.jpg,,,,,,,,,,,,,,,,,,,,,,,,,,,,,,,プミ　ドキ　シド,right,13.1006,,,,,,0,35,35,35,1,,,,,,,,,,,,,,,,,,,,プミ　ドキ　シド,プミ　ドキ　シド,0
,,,,,,,,,R_1gMFlk8MiIaGlf2,2022-09-13_17h59.58.751,jpn_C03,2022.1.2,Win32,60.37189085,,,,,,,,,,,,,,,,,,,,,,,,,,,,,,,,,,,,,,,,,,,,,,,,,,,,,,,,,,,space,0.7678,0,2,2,2,1,VNegCondition.xlsx,"ここではこの言語における否定の文を学習していただきます。引き続き注意して、 聞こえた音を復唱してください。

スペースキーを押してください。",1,VNegFCT.xlsx,ここからクイズが始まります。 スクリーンに表示されるテキストに合うイメージを選んでください。,NegTest.xlsx,1,最後にここまで学んだことをアウトプットしていただきます。 テキストボックスにあるイメージを描写するテキストを入力してください。 このタスクでは、 答え合わせは行いません。,0,これですべての実験が終わりました。 お疲れさまです。 この後はアンケートに答えていただきます。,,,