key_resp_instr_a.keys,key_resp_instr_a.rt,key_resp_instr_b.keys,key_resp_instr_b.rt,dummy.thisRepN,dummy.thisTrialN,dummy.thisN,dummy.thisIndex,dummy.ran,participant,date,expName,psychopyVersion,OS,frameRate,key_resp_instr1.keys,key_resp_instr1.rt,key_resp.keys,key_resp.rt,exp_loop.thisRepN,exp_loop.thisTrialN,exp_loop.thisN,exp_loop.thisIndex,exp_loop.ran,Word,English,Flip,Path,Audio,key_resp_instr2.keys,key_resp_instr2.rt,key_resp_fct.keys,key_resp_fct.corr,key_resp_fct.rt,trials_2.thisRepN,trials_2.thisTrialN,trials_2.thisN,trials_2.thisIndex,trials_2.ran,fct_loop.thisRepN,fct_loop.thisTrialN,fct_loop.thisN,fct_loop.thisIndex,fct_loop.ran,left_img,word,right_img,correctans,correct_img,audio,incorrect_feedback,trials.thisRepN,trials.thisTrialN,trials.thisN,trials.thisIndex,trials.ran,trials_4.thisRepN,trials_4.thisTrialN,trials_4.thisN,trials_4.thisIndex,trials_4.ran,trials_3.thisRepN,trials_3.thisTrialN,trials_3.thisN,trials_3.thisIndex,trials_3.ran,key_resp_instr3.keys,key_resp_instr3.rt,textbox.text,key_resp_2.keys,key_resp_2.rt,fb_yn.thisRepN,fb_yn.thisTrialN,fb_yn.thisN,fb_yn.thisIndex,fb_yn.ran,gather_loop.thisRepN,gather_loop.thisTrialN,gather_loop.thisN,gather_loop.thisIndex,gather_loop.ran,Text,Wordbank,key_resp_instr4.keys,key_resp_instr4.rt,master_loop.thisRepN,master_loop.thisTrialN,master_loop.thisN,master_loop.thisIndex,master_loop.ran,exposure_file,instr_1,exp_reps,fct_file,instr_2,gather_file,gather_reps,instr_3,fReps,instr_4,NegVSentence,VNegSentence,NegTF
space,8.1705,space,12.6108,0,0,0,0,1,R_3Rf41HmUdWO9jSZ,2022-11-20_11h25.34.650,jpn_C01,2022.1.2,Linux x86_64,59.99520038,,,,,,,,,,,,,,,,,,,,,,,,,,,,,,,,,,,,,,,,,,,,,,,,,,,,,,,,,,,,,,,,,,,,,,,,,,,,,,,,,,,,,,,,
,,,,,,,,,R_3Rf41HmUdWO9jSZ,2022-11-20_11h25.34.650,jpn_C01,2022.1.2,Linux x86_64,59.99520038,space,10.1754,space,5.4502,0,0,0,5,1,ドキ,boxer,,CartoonStims/boxer_r.jpg,audio/doki.mp3,,,,,,,,,,,,,,,,,,,,,,,,,,,,,,,,,,,,,,,,,,,,,,,,,,,,,,,,,,,,,,,,,,,,,,,,,,
,,,,,,,,,R_3Rf41HmUdWO9jSZ,2022-11-20_11h25.34.650,jpn_C01,2022.1.2,Linux x86_64,59.99520038,,,space,3.2943,0,1,1,2,1,ホレト,chef,,CartoonStims/chef_r.jpg,audio/horeto.mp3,,,,,,,,,,,,,,,,,,,,,,,,,,,,,,,,,,,,,,,,,,,,,,,,,,,,,,,,,,,,,,,,,,,,,,,,,,
,,,,,,,,,R_3Rf41HmUdWO9jSZ,2022-11-20_11h25.34.650,jpn_C01,2022.1.2,Linux x86_64,59.99520038,,,space,3.9731,0,2,2,1,1,ルピン,burglar,,CartoonStims/burglar_r.jpg,audio/lupin.mp3,,,,,,,,,,,,,,,,,,,,,,,,,,,,,,,,,,,,,,,,,,,,,,,,,,,,,,,,,,,,,,,,,,,,,,,,,,
,,,,,,,,,R_3Rf41HmUdWO9jSZ,2022-11-20_11h25.34.650,jpn_C01,2022.1.2,Linux x86_64,59.99520038,,,space,3.8908,0,3,3,4,1,ピポ,doctor,,CartoonStims/doctor_r.jpg,audio/pipo.mp3,,,,,,,,,,,,,,,,,,,,,,,,,,,,,,,,,,,,,,,,,,,,,,,,,,,,,,,,,,,,,,,,,,,,,,,,,,
,,,,,,,,,R_3Rf41HmUdWO9jSZ,2022-11-20_11h25.34.650,jpn_C01,2022.1.2,Linux x86_64,59.99520038,,,space,8.6917,0,4,4,3,1,ムク,cowboy,,CartoonStims/cowboy_r.jpg,audio/muku.mp3,,,,,,,,,,,,,,,,,,,,,,,,,,,,,,,,,,,,,,,,,,,,,,,,,,,,,,,,,,,,,,,,,,,,,,,,,,
,,,,,,,,,R_3Rf41HmUdWO9jSZ,2022-11-20_11h25.34.650,jpn_C01,2022.1.2,Linux x86_64,59.99520038,,,space,8.3382,0,5,5,0,1,シド,artist,,CartoonStims/artist_r.jpg,audio/sido.mp3,,,,,,,,,,,,,,,,,,,,,,,,,,,,,,,,,,,,,,,,,,,,,,,,,,,,,,,,,,,,,,,,,,,,,,,,,,
,,,,,,,,,R_3Rf41HmUdWO9jSZ,2022-11-20_11h25.34.650,jpn_C01,2022.1.2,Linux x86_64,59.99520038,,,space,5.905,1,0,6,2,1,ホレト,chef,,CartoonStims/chef_r.jpg,audio/horeto.mp3,,,,,,,,,,,,,,,,,,,,,,,,,,,,,,,,,,,,,,,,,,,,,,,,,,,,,,,,,,,,,,,,,,,,,,,,,,
,,,,,,,,,R_3Rf41HmUdWO9jSZ,2022-11-20_11h25.34.650,jpn_C01,2022.1.2,Linux x86_64,59.99520038,,,space,8.092,1,1,7,0,1,シド,artist,,CartoonStims/artist_r.jpg,audio/sido.mp3,,,,,,,,,,,,,,,,,,,,,,,,,,,,,,,,,,,,,,,,,,,,,,,,,,,,,,,,,,,,,,,,,,,,,,,,,,
,,,,,,,,,R_3Rf41HmUdWO9jSZ,2022-11-20_11h25.34.650,jpn_C01,2022.1.2,Linux x86_64,59.99520038,,,space,3.2527,1,2,8,3,1,ムク,cowboy,,CartoonStims/cowboy_r.jpg,audio/muku.mp3,,,,,,,,,,,,,,,,,,,,,,,,,,,,,,,,,,,,,,,,,,,,,,,,,,,,,,,,,,,,,,,,,,,,,,,,,,
,,,,,,,,,R_3Rf41HmUdWO9jSZ,2022-11-20_11h25.34.650,jpn_C01,2022.1.2,Linux x86_64,59.99520038,,,space,1.7195,1,3,9,5,1,ドキ,boxer,,CartoonStims/boxer_r.jpg,audio/doki.mp3,,,,,,,,,,,,,,,,,,,,,,,,,,,,,,,,,,,,,,,,,,,,,,,,,,,,,,,,,,,,,,,,,,,,,,,,,,
,,,,,,,,,R_3Rf41HmUdWO9jSZ,2022-11-20_11h25.34.650,jpn_C01,2022.1.2,Linux x86_64,59.99520038,,,space,2.4372,1,4,10,1,1,ルピン,burglar,,CartoonStims/burglar_r.jpg,audio/lupin.mp3,,,,,,,,,,,,,,,,,,,,,,,,,,,,,,,,,,,,,,,,,,,,,,,,,,,,,,,,,,,,,,,,,,,,,,,,,,
,,,,,,,,,R_3Rf41HmUdWO9jSZ,2022-11-20_11h25.34.650,jpn_C01,2022.1.2,Linux x86_64,59.99520038,,,space,5.0076,1,5,11,4,1,ピポ,doctor,,CartoonStims/doctor_r.jpg,audio/pipo.mp3,,,,,,,,,,,,,,,,,,,,,,,,,,,,,,,,,,,,,,,,,,,,,,,,,,,,,,,,,,,,,,,,,,,,,,,,,,
,,,,,,,,,R_3Rf41HmUdWO9jSZ,2022-11-20_11h25.34.650,jpn_C01,2022.1.2,Linux x86_64,59.99520038,,,space,7.7216,2,0,12,0,1,シド,artist,,CartoonStims/artist_r.jpg,audio/sido.mp3,,,,,,,,,,,,,,,,,,,,,,,,,,,,,,,,,,,,,,,,,,,,,,,,,,,,,,,,,,,,,,,,,,,,,,,,,,
,,,,,,,,,R_3Rf41HmUdWO9jSZ,2022-11-20_11h25.34.650,jpn_C01,2022.1.2,Linux x86_64,59.99520038,,,space,1.4031,2,1,13,5,1,ドキ,boxer,,CartoonStims/boxer_r.jpg,audio/doki.mp3,,,,,,,,,,,,,,,,,,,,,,,,,,,,,,,,,,,,,,,,,,,,,,,,,,,,,,,,,,,,,,,,,,,,,,,,,,
,,,,,,,,,R_3Rf41HmUdWO9jSZ,2022-11-20_11h25.34.650,jpn_C01,2022.1.2,Linux x86_64,59.99520038,,,space,1.1512,2,2,14,2,1,ホレト,chef,,CartoonStims/chef_r.jpg,audio/horeto.mp3,,,,,,,,,,,,,,,,,,,,,,,,,,,,,,,,,,,,,,,,,,,,,,,,,,,,,,,,,,,,,,,,,,,,,,,,,,
,,,,,,,,,R_3Rf41HmUdWO9jSZ,2022-11-20_11h25.34.650,jpn_C01,2022.1.2,Linux x86_64,59.99520038,,,space,1.0308,2,3,15,1,1,ルピン,burglar,,CartoonStims/burglar_r.jpg,audio/lupin.mp3,,,,,,,,,,,,,,,,,,,,,,,,,,,,,,,,,,,,,,,,,,,,,,,,,,,,,,,,,,,,,,,,,,,,,,,,,,
,,,,,,,,,R_3Rf41HmUdWO9jSZ,2022-11-20_11h25.34.650,jpn_C01,2022.1.2,Linux x86_64,59.99520038,,,space,1.2453,2,4,16,3,1,ムク,cowboy,,CartoonStims/cowboy_r.jpg,audio/muku.mp3,,,,,,,,,,,,,,,,,,,,,,,,,,,,,,,,,,,,,,,,,,,,,,,,,,,,,,,,,,,,,,,,,,,,,,,,,,
,,,,,,,,,R_3Rf41HmUdWO9jSZ,2022-11-20_11h25.34.650,jpn_C01,2022.1.2,Linux x86_64,59.99520038,,,space,3.4684,2,5,17,4,1,ピポ,doctor,,CartoonStims/doctor_r.jpg,audio/pipo.mp3,,,,,,,,,,,,,,,,,,,,,,,,,,,,,,,,,,,,,,,,,,,,,,,,,,,,,,,,,,,,,,,,,,,,,,,,,,
,,,,,,,,,R_3Rf41HmUdWO9jSZ,2022-11-20_11h25.34.650,jpn_C01,2022.1.2,Linux x86_64,59.99520038,,,,,,,,,,,,,,,space,1.1192,right,1,3.8538,0,0,0,0,1,,,,,,,,,,,,,,,,,,,,,,,,,,,,,,,,,,,,,,,,,,,,,,,,,,,,,,,,,,,,,,,,
,,,,,,,,,R_3Rf41HmUdWO9jSZ,2022-11-20_11h25.34.650,jpn_C01,2022.1.2,Linux x86_64,59.99520038,,,,,,,,,,,,,,,,,,,,,,,,,0,0,0,7,1,CartoonStims/cowboy_r.jpg,ルピン,CartoonStims/burglar_r.jpg,right,CartoonStims/burglar_r.jpg,audio/lupin.mp3,残念！ こちらが正しい画像です。,,,,,,,,,,,,,,,,,,,,,,,,,,,,,,,,,,,,,,,,,,,,,,,,,,,,
,,,,,,,,,R_3Rf41HmUdWO9jSZ,2022-11-20_11h25.34.650,jpn_C01,2022.1.2,Linux x86_64,59.99520038,,,,,,,,,,,,,,,,,left,1,1.2226,,,,,,,,,,,,,,,,,,0,0,0,0,1,,,,,,,,,,,,,,,,,,,,,,,,,,,,,,,,,,,,,,,,,,,,,,,
,,,,,,,,,R_3Rf41HmUdWO9jSZ,2022-11-20_11h25.34.650,jpn_C01,2022.1.2,Linux x86_64,59.99520038,,,,,,,,,,,,,,,,,,,,,,,,,0,1,1,0,1,CartoonStims/artist_r.jpg,シド,CartoonStims/burglar_r.jpg,left,CartoonStims/artist_r.jpg,audio/sido.mp3,残念！ こちらが正しい画像です。,,,,,,,,,,,,,,,,,,,,,,,,,,,,,,,,,,,,,,,,,,,,,,,,,,,,
,,,,,,,,,R_3Rf41HmUdWO9jSZ,2022-11-20_11h25.34.650,jpn_C01,2022.1.2,Linux x86_64,59.99520038,,,,,,,,,,,,,,,,,right,1,0.8751,0,0,0,0,1,,,,,,,,,,,,,,,,,,,,,,,,,,,,,,,,,,,,,,,,,,,,,,,,,,,,,,,,,,,,,,,,
,,,,,,,,,R_3Rf41HmUdWO9jSZ,2022-11-20_11h25.34.650,jpn_C01,2022.1.2,Linux x86_64,59.99520038,,,,,,,,,,,,,,,,,,,,,,,,,0,2,2,6,1,CartoonStims/chef_r.jpg,シド,CartoonStims/artist_r.jpg,right,CartoonStims/artist_r.jpg,audio/sido.mp3,残念！ こちらが正しい画像です。,,,,,,,,,,,,,,,,,,,,,,,,,,,,,,,,,,,,,,,,,,,,,,,,,,,,
,,,,,,,,,R_3Rf41HmUdWO9jSZ,2022-11-20_11h25.34.650,jpn_C01,2022.1.2,Linux x86_64,59.99520038,,,,,,,,,,,,,,,,,left,0,1.431,,,,,,,,,,,,,,,,,,,,,,,0,0,0,0,1,,,,,,,,,,,,,,,,,,,,,,,,,,,,,,,,,,,,,,,,,,
,,,,,,,,,R_3Rf41HmUdWO9jSZ,2022-11-20_11h25.34.650,jpn_C01,2022.1.2,Linux x86_64,59.99520038,,,,,,,,,,,,,,,,,,,,,,,,,0,3,3,10,1,CartoonStims/artist_r.jpg,ピポ,CartoonStims/doctor_r.jpg,right,CartoonStims/doctor_r.jpg,audio/pipo.mp3,残念！ こちらが正しい画像です。,,,,,,,,,,,,,,,,,,,,,,,,,,,,,,,,,,,,,,,,,,,,,,,,,,,,
,,,,,,,,,R_3Rf41HmUdWO9jSZ,2022-11-20_11h25.34.650,jpn_C01,2022.1.2,Linux x86_64,59.99520038,,,,,,,,,,,,,,,,,left,1,2.7005,,,,,,,,,,,,,,,,,,0,0,0,0,1,,,,,,,,,,,,,,,,,,,,,,,,,,,,,,,,,,,,,,,,,,,,,,,
,,,,,,,,,R_3Rf41HmUdWO9jSZ,2022-11-20_11h25.34.650,jpn_C01,2022.1.2,Linux x86_64,59.99520038,,,,,,,,,,,,,,,,,,,,,,,,,0,4,4,4,1,CartoonStims/doctor_r.jpg,ピポ,CartoonStims/boxer_r.jpg,left,CartoonStims/doctor_r.jpg,audio/pipo.mp3,残念！ こちらが正しい画像です。,,,,,,,,,,,,,,,,,,,,,,,,,,,,,,,,,,,,,,,,,,,,,,,,,,,,
,,,,,,,,,R_3Rf41HmUdWO9jSZ,2022-11-20_11h25.34.650,jpn_C01,2022.1.2,Linux x86_64,59.99520038,,,,,,,,,,,,,,,,,right,0,2.505,,,,,,,,,,,,,,,,,,,,,,,,,,,,0,0,0,0,1,,,,,,,,,,,,,,,,,,,,,,,,,,,,,,,,,,,,,
,,,,,,,,,R_3Rf41HmUdWO9jSZ,2022-11-20_11h25.34.650,jpn_C01,2022.1.2,Linux x86_64,59.99520038,,,,,,,,,,,,,,,,,,,,,,,,,0,5,5,2,1,CartoonStims/chef_r.jpg,ホレト,CartoonStims/cowboy_r.jpg,left,CartoonStims/chef_r.jpg,audio/horeto.mp3,残念！ こちらが正しい画像です。,,,,,,,,,,,,,,,,,,,,,,,,,,,,,,,,,,,,,,,,,,,,,,,,,,,,
,,,,,,,,,R_3Rf41HmUdWO9jSZ,2022-11-20_11h25.34.650,jpn_C01,2022.1.2,Linux x86_64,59.99520038,,,,,,,,,,,,,,,,,right,1,1.1374,0,0,0,0,1,,,,,,,,,,,,,,,,,,,,,,,,,,,,,,,,,,,,,,,,,,,,,,,,,,,,,,,,,,,,,,,,
,,,,,,,,,R_3Rf41HmUdWO9jSZ,2022-11-20_11h25.34.650,jpn_C01,2022.1.2,Linux x86_64,59.99520038,,,,,,,,,,,,,,,,,,,,,,,,,0,6,6,9,1,CartoonStims/boxer_r.jpg,ムク,CartoonStims/cowboy_r.jpg,right,CartoonStims/cowboy_r.jpg,audio/muku.mp3,残念！ こちらが正しい画像です。,,,,,,,,,,,,,,,,,,,,,,,,,,,,,,,,,,,,,,,,,,,,,,,,,,,,
,,,,,,,,,R_3Rf41HmUdWO9jSZ,2022-11-20_11h25.34.650,jpn_C01,2022.1.2,Linux x86_64,59.99520038,,,,,,,,,,,,,,,,,left,0,5.6052,,,,,,,,,,,,,,,,,,,,,,,0,0,0,0,1,,,,,,,,,,,,,,,,,,,,,,,,,,,,,,,,,,,,,,,,,,
,,,,,,,,,R_3Rf41HmUdWO9jSZ,2022-11-20_11h25.34.650,jpn_C01,2022.1.2,Linux x86_64,59.99520038,,,,,,,,,,,,,,,,,,,,,,,,,0,7,7,8,1,CartoonStims/doctor_r.jpg,ホレト,CartoonStims/chef_r.jpg,right,CartoonStims/chef_r.jpg,audio/horeto.mp3,残念！ こちらが正しい画像です。,,,,,,,,,,,,,,,,,,,,,,,,,,,,,,,,,,,,,,,,,,,,,,,,,,,,
,,,,,,,,,R_3Rf41HmUdWO9jSZ,2022-11-20_11h25.34.650,jpn_C01,2022.1.2,Linux x86_64,59.99520038,,,,,,,,,,,,,,,,,right,1,0.5082,0,0,0,0,1,,,,,,,,,,,,,,,,,,,,,,,,,,,,,,,,,,,,,,,,,,,,,,,,,,,,,,,,,,,,,,,,
,,,,,,,,,R_3Rf41HmUdWO9jSZ,2022-11-20_11h25.34.650,jpn_C01,2022.1.2,Linux x86_64,59.99520038,,,,,,,,,,,,,,,,,,,,,,,,,0,8,8,11,1,CartoonStims/burglar_r.jpg,ドキ,CartoonStims/boxer_r.jpg,right,CartoonStims/boxer_r.jpg,audio/doki.mp3,残念！ こちらが正しい画像です。,,,,,,,,,,,,,,,,,,,,,,,,,,,,,,,,,,,,,,,,,,,,,,,,,,,,
,,,,,,,,,R_3Rf41HmUdWO9jSZ,2022-11-20_11h25.34.650,jpn_C01,2022.1.2,Linux x86_64,59.99520038,,,,,,,,,,,,,,,,,left,1,0.8995,,,,,,,,,,,,,,,,,,0,0,0,0,1,,,,,,,,,,,,,,,,,,,,,,,,,,,,,,,,,,,,,,,,,,,,,,,
,,,,,,,,,R_3Rf41HmUdWO9jSZ,2022-11-20_11h25.34.650,jpn_C01,2022.1.2,Linux x86_64,59.99520038,,,,,,,,,,,,,,,,,,,,,,,,,0,9,9,5,1,CartoonStims/boxer_r.jpg,ドキ,CartoonStims/artist_r.jpg,left,CartoonStims/boxer_r.jpg,audio/doki.mp3,残念！ こちらが正しい画像です。,,,,,,,,,,,,,,,,,,,,,,,,,,,,,,,,,,,,,,,,,,,,,,,,,,,,
,,,,,,,,,R_3Rf41HmUdWO9jSZ,2022-11-20_11h25.34.650,jpn_C01,2022.1.2,Linux x86_64,59.99520038,,,,,,,,,,,,,,,,,left,1,1.119,,,,,,,,,,,,,,,,,,0,0,0,0,1,,,,,,,,,,,,,,,,,,,,,,,,,,,,,,,,,,,,,,,,,,,,,,,
,,,,,,,,,R_3Rf41HmUdWO9jSZ,2022-11-20_11h25.34.650,jpn_C01,2022.1.2,Linux x86_64,59.99520038,,,,,,,,,,,,,,,,,,,,,,,,,0,10,10,3,1,CartoonStims/cowboy_r.jpg,ムク,CartoonStims/doctor_r.jpg,left,CartoonStims/cowboy_r.jpg,audio/muku.mp3,残念！ こちらが正しい画像です。,,,,,,,,,,,,,,,,,,,,,,,,,,,,,,,,,,,,,,,,,,,,,,,,,,,,
,,,,,,,,,R_3Rf41HmUdWO9jSZ,2022-11-20_11h25.34.650,jpn_C01,2022.1.2,Linux x86_64,59.99520038,,,,,,,,,,,,,,,,,left,1,1.5934,,,,,,,,,,,,,,,,,,0,0,0,0,1,,,,,,,,,,,,,,,,,,,,,,,,,,,,,,,,,,,,,,,,,,,,,,,
,,,,,,,,,R_3Rf41HmUdWO9jSZ,2022-11-20_11h25.34.650,jpn_C01,2022.1.2,Linux x86_64,59.99520038,,,,,,,,,,,,,,,,,,,,,,,,,0,11,11,1,1,CartoonStims/burglar_r.jpg,ルピン,CartoonStims/chef_r.jpg,left,CartoonStims/burglar_r.jpg,audio/lupin.mp3,残念！ こちらが正しい画像です。,,,,,,,,,,,,,,,,,,,,,,,,,,,,,,,,,,,,,,,,,,,,,,,,,,,,
,,,,,,,,,R_3Rf41HmUdWO9jSZ,2022-11-20_11h25.34.650,jpn_C01,2022.1.2,Linux x86_64,59.99520038,,,,,,,,,,,,,,,,,,,,,,,,,,,,,,,,,,,,,,,,,,,,,,,,,,,,space,7.6538,ムク,right,11.4385,0,0,0,0,1,,,,,,,,,,,,,,,,,,,,,,,,,,,
,,,,,,,,,R_3Rf41HmUdWO9jSZ,2022-11-20_11h25.34.650,jpn_C01,2022.1.2,Linux x86_64,59.99520038,,,,,,,,,,,,,CartoonStims/cowboy_r.jpg,audio/muku.mp3,,,,,,,,,,,,,,,,,,,,,,,,,,,,,,,,,,,,,,,,,,,,,,,,0,0,0,3,1,ムク,,,,,,,,,,,,,,,,,,,,,
,,,,,,,,,R_3Rf41HmUdWO9jSZ,2022-11-20_11h25.34.650,jpn_C01,2022.1.2,Linux x86_64,59.99520038,,,,,,,,,,,,,,,,,,,,,,,,,,,,,,,,,,,,,,,,,,,,,,,,,,,,,,ドキ,right,6.1244,0,0,0,0,1,,,,,,,,,,,,,,,,,,,,,,,,,,,
,,,,,,,,,R_3Rf41HmUdWO9jSZ,2022-11-20_11h25.34.650,jpn_C01,2022.1.2,Linux x86_64,59.99520038,,,,,,,,,,,,,CartoonStims/boxer_r.jpg,audio/doki.mp3,,,,,,,,,,,,,,,,,,,,,,,,,,,,,,,,,,,,,,,,,,,,,,,,0,1,1,5,1,ドキ,,,,,,,,,,,,,,,,,,,,,
,,,,,,,,,R_3Rf41HmUdWO9jSZ,2022-11-20_11h25.34.650,jpn_C01,2022.1.2,Linux x86_64,59.99520038,,,,,,,,,,,,,,,,,,,,,,,,,,,,,,,,,,,,,,,,,,,,,,,,,,,,,,ルピン,right,3.1251,0,0,0,0,1,,,,,,,,,,,,,,,,,,,,,,,,,,,
,,,,,,,,,R_3Rf41HmUdWO9jSZ,2022-11-20_11h25.34.650,jpn_C01,2022.1.2,Linux x86_64,59.99520038,,,,,,,,,,,,,CartoonStims/burglar_r.jpg,audio/lupin.mp3,,,,,,,,,,,,,,,,,,,,,,,,,,,,,,,,,,,,,,,,,,,,,,,,0,2,2,1,1,ルピン,,,,,,,,,,,,,,,,,,,,,
,,,,,,,,,R_3Rf41HmUdWO9jSZ,2022-11-20_11h25.34.650,jpn_C01,2022.1.2,Linux x86_64,59.99520038,,,,,,,,,,,,,,,,,,,,,,,,,,,,,,,,,,,,,,,,,,,,,,,,,,,,,,ホルト,right,5.249,0,0,0,0,1,,,,,,,,,,,,,,,,,,,,,,,,,,,
,,,,,,,,,R_3Rf41HmUdWO9jSZ,2022-11-20_11h25.34.650,jpn_C01,2022.1.2,Linux x86_64,59.99520038,,,,,,,,,,,,,CartoonStims/artist_r.jpg,audio/sido.mp3,,,,,,,,,,,,,,,,,,,,,,,,,,,,,,,,,,,,,,,,,,,,,,,,0,3,3,0,1,シド,,,,,,,,,,,,,,,,,,,,,
,,,,,,,,,R_3Rf41HmUdWO9jSZ,2022-11-20_11h25.34.650,jpn_C01,2022.1.2,Linux x86_64,59.99520038,,,,,,,,,,,,,,,,,,,,,,,,,,,,,,,,,,,,,,,,,,,,,,,,,,,,,,ホルト,right,6.077,0,0,0,0,1,,,,,,,,,,,,,,,,,,,,,,,,,,,
,,,,,,,,,R_3Rf41HmUdWO9jSZ,2022-11-20_11h25.34.650,jpn_C01,2022.1.2,Linux x86_64,59.99520038,,,,,,,,,,,,,CartoonStims/chef_r.jpg,audio/horeto.mp3,,,,,,,,,,,,,,,,,,,,,,,,,,,,,,,,,,,,,,,,,,,,,,,,0,4,4,2,1,ホレト,,,,,,,,,,,,,,,,,,,,,
,,,,,,,,,R_3Rf41HmUdWO9jSZ,2022-11-20_11h25.34.650,jpn_C01,2022.1.2,Linux x86_64,59.99520038,,,,,,,,,,,,,,,,,,,,,,,,,,,,,,,,,,,,,,,,,,,,,,,,,,,,,,シド,right,2.9239,0,0,0,0,1,,,,,,,,,,,,,,,,,,,,,,,,,,,
,,,,,,,,,R_3Rf41HmUdWO9jSZ,2022-11-20_11h25.34.650,jpn_C01,2022.1.2,Linux x86_64,59.99520038,,,,,,,,,,,,,CartoonStims/doctor_r.jpg,audio/pipo.mp3,,,,,,,,,,,,,,,,,,,,,,,,,,,,,,,,,,,,,,,,,,,,,,,,0,5,5,4,1,ピポ,,,,,,,,,,,,,,,,,,,,,
,,,,,,,,,R_3Rf41HmUdWO9jSZ,2022-11-20_11h25.34.650,jpn_C01,2022.1.2,Linux x86_64,59.99520038,,,,,,,,,,,,,,,,,,,,,,,,,,,,,,,,,,,,,,,,,,,,,,,,,,,,,,ムク,right,3.6095,0,0,0,0,1,,,,,,,,,,,,,,,,,,,,,,,,,,,
,,,,,,,,,R_3Rf41HmUdWO9jSZ,2022-11-20_11h25.34.650,jpn_C01,2022.1.2,Linux x86_64,59.99520038,,,,,,,,,,,,,CartoonStims/cowboy_r.jpg,audio/muku.mp3,,,,,,,,,,,,,,,,,,,,,,,,,,,,,,,,,,,,,,,,,,,,,,,,1,0,6,3,1,ムク,,,,,,,,,,,,,,,,,,,,,
,,,,,,,,,R_3Rf41HmUdWO9jSZ,2022-11-20_11h25.34.650,jpn_C01,2022.1.2,Linux x86_64,59.99520038,,,,,,,,,,,,,,,,,,,,,,,,,,,,,,,,,,,,,,,,,,,,,,,,,,,,,,ピポ,right,5.5205,0,0,0,0,1,,,,,,,,,,,,,,,,,,,,,,,,,,,
,,,,,,,,,R_3Rf41HmUdWO9jSZ,2022-11-20_11h25.34.650,jpn_C01,2022.1.2,Linux x86_64,59.99520038,,,,,,,,,,,,,CartoonStims/doctor_r.jpg,audio/pipo.mp3,,,,,,,,,,,,,,,,,,,,,,,,,,,,,,,,,,,,,,,,,,,,,,,,1,1,7,4,1,ピポ,,,,,,,,,,,,,,,,,,,,,
,,,,,,,,,R_3Rf41HmUdWO9jSZ,2022-11-20_11h25.34.650,jpn_C01,2022.1.2,Linux x86_64,59.99520038,,,,,,,,,,,,,,,,,,,,,,,,,,,,,,,,,,,,,,,,,,,,,,,,,,,,,,ルピン,right,3.4224,0,0,0,0,1,,,,,,,,,,,,,,,,,,,,,,,,,,,
,,,,,,,,,R_3Rf41HmUdWO9jSZ,2022-11-20_11h25.34.650,jpn_C01,2022.1.2,Linux x86_64,59.99520038,,,,,,,,,,,,,CartoonStims/burglar_r.jpg,audio/lupin.mp3,,,,,,,,,,,,,,,,,,,,,,,,,,,,,,,,,,,,,,,,,,,,,,,,1,2,8,1,1,ルピン,,,,,,,,,,,,,,,,,,,,,
,,,,,,,,,R_3Rf41HmUdWO9jSZ,2022-11-20_11h25.34.650,jpn_C01,2022.1.2,Linux x86_64,59.99520038,,,,,,,,,,,,,,,,,,,,,,,,,,,,,,,,,,,,,,,,,,,,,,,,,,,,,,ドキ,right,3.0851,0,0,0,0,1,,,,,,,,,,,,,,,,,,,,,,,,,,,
,,,,,,,,,R_3Rf41HmUdWO9jSZ,2022-11-20_11h25.34.650,jpn_C01,2022.1.2,Linux x86_64,59.99520038,,,,,,,,,,,,,CartoonStims/boxer_r.jpg,audio/doki.mp3,,,,,,,,,,,,,,,,,,,,,,,,,,,,,,,,,,,,,,,,,,,,,,,,1,3,9,5,1,ドキ,,,,,,,,,,,,,,,,,,,,,
,,,,,,,,,R_3Rf41HmUdWO9jSZ,2022-11-20_11h25.34.650,jpn_C01,2022.1.2,Linux x86_64,59.99520038,,,,,,,,,,,,,,,,,,,,,,,,,,,,,,,,,,,,,,,,,,,,,,,,,,,,,,ホレト,right,11.767,0,0,0,0,1,,,,,,,,,,,,,,,,,,,,,,,,,,,
,,,,,,,,,R_3Rf41HmUdWO9jSZ,2022-11-20_11h25.34.650,jpn_C01,2022.1.2,Linux x86_64,59.99520038,,,,,,,,,,,,,CartoonStims/chef_r.jpg,audio/horeto.mp3,,,,,,,,,,,,,,,,,,,,,,,,,,,,,,,,,,,,,,,,,,,,,,,,1,4,10,2,1,ホレト,,,,,,,,,,,,,,,,,,,,,
,,,,,,,,,R_3Rf41HmUdWO9jSZ,2022-11-20_11h25.34.650,jpn_C01,2022.1.2,Linux x86_64,59.99520038,,,,,,,,,,,,,,,,,,,,,,,,,,,,,,,,,,,,,,,,,,,,,,,,,,,,,,シト,right,19.6475,0,0,0,0,1,,,,,,,,,,,,,,,,,,,,,,,,,,,
,,,,,,,,,R_3Rf41HmUdWO9jSZ,2022-11-20_11h25.34.650,jpn_C01,2022.1.2,Linux x86_64,59.99520038,,,,,,,,,,,,,CartoonStims/artist_r.jpg,audio/sido.mp3,,,,,,,,,,,,,,,,,,,,,,,,,,,,,,,,,,,,,,,,,,,,,,,,1,5,11,0,1,シド,,,,,,,,,,,,,,,,,,,,,
,,,,,,,,,R_3Rf41HmUdWO9jSZ,2022-11-20_11h25.34.650,jpn_C01,2022.1.2,Linux x86_64,59.99520038,,,,,,,,,,,,,,,,,,,,,,,,,,,,,,,,,,,,,,,,,,,,,,,,,,,,,,,,,,,,,,,,,,,,,space,2.6382,0,0,0,0,1,NounExposure.xlsx,"最初のトライアルでは、 画像が表示され、 その画像の下に単語が出てきます。 またこの単語の音も聞くことができます。 この音を大きな声で復唱してください。 そしてこの画像がどのような単語を示しているのか, 考えてみてください。 その後、 続きのボタンを押すと次の単語の学習が始まります。

スペースキーを押して、学習を始めましょう。",3,NounFCT.xlsx,ここから語彙のクイズが始まります。スクリーンに表示される単語に合う画像をキーボードの右と左の矢印キーを使って選択してください。,NounTest.xlsx,2,次に、これまで学習してきたことをアウトプットしていただきます。 表示される画像を描写していると思う単語を、テキストボックスにタイプしてください。,1,"ここまでが最初のトライアルです。ここで休憩をとっても構いません。

休憩が済みましたら、スペースキーを押して続きを始めましょう。",,,
,,,,,,,,,R_3Rf41HmUdWO9jSZ,2022-11-20_11h25.34.650,jpn_C01,2022.1.2,Linux x86_64,59.99520038,space,5.3264,space,29.0175,0,0,0,6,1,セル　ムク　ピポ,,,CartoonStims/cowboy_kick_doctor_r.jpg,audio/serumukupipo.mp3,,,,,,,,,,,,,,,,,,,,,,,,,,,,,,,,,,,,,,,,,,,,,,,,,,,,,,,,,,,,,,,,,,,,,,,,,,
,,,,,,,,,R_3Rf41HmUdWO9jSZ,2022-11-20_11h25.34.650,jpn_C01,2022.1.2,Linux x86_64,59.99520038,,,space,7.7392,0,1,1,3,1,セル　ルピン　ムク,,,CartoonStims/burglar_kick_cowboy_r.jpg,audio/serulupinmuku.mp3,,,,,,,,,,,,,,,,,,,,,,,,,,,,,,,,,,,,,,,,,,,,,,,,,,,,,,,,,,,,,,,,,,,,,,,,,,
,,,,,,,,,R_3Rf41HmUdWO9jSZ,2022-11-20_11h25.34.650,jpn_C01,2022.1.2,Linux x86_64,59.99520038,,,space,9.4445,0,2,2,8,1,セル　ピポ　ドキ,,,CartoonStims/doctor_kick_boxer_r.jpg,audio/serupipodoki.mp3,,,,,,,,,,,,,,,,,,,,,,,,,,,,,,,,,,,,,,,,,,,,,,,,,,,,,,,,,,,,,,,,,,,,,,,,,,
,,,,,,,,,R_3Rf41HmUdWO9jSZ,2022-11-20_11h25.34.650,jpn_C01,2022.1.2,Linux x86_64,59.99520038,,,space,10.819,0,3,3,26,1,パツ　ルピン　ピポ,,,CartoonStims/burglar_shoot_doctor_r.jpg,audio/patsulupinpipo.mp3,,,,,,,,,,,,,,,,,,,,,,,,,,,,,,,,,,,,,,,,,,,,,,,,,,,,,,,,,,,,,,,,,,,,,,,,,,
,,,,,,,,,R_3Rf41HmUdWO9jSZ,2022-11-20_11h25.34.650,jpn_C01,2022.1.2,Linux x86_64,59.99520038,,,space,8.8261,0,4,4,24,1,パツ　シド　ムク,,,CartoonStims/artist_shoot_cowboy_r.jpg,audio/patsusidomuku.mp3,,,,,,,,,,,,,,,,,,,,,,,,,,,,,,,,,,,,,,,,,,,,,,,,,,,,,,,,,,,,,,,,,,,,,,,,,,
,,,,,,,,,R_3Rf41HmUdWO9jSZ,2022-11-20_11h25.34.650,jpn_C01,2022.1.2,Linux x86_64,59.99520038,,,space,8.0894,0,5,5,44,1,プミ　ピポ　ホレト,,,CartoonStims/doctor_punch_chef_r.jpg,audio/pumipipohoreto.mp3,,,,,,,,,,,,,,,,,,,,,,,,,,,,,,,,,,,,,,,,,,,,,,,,,,,,,,,,,,,,,,,,,,,,,,,,,,
,,,,,,,,,R_3Rf41HmUdWO9jSZ,2022-11-20_11h25.34.650,jpn_C01,2022.1.2,Linux x86_64,59.99520038,,,space,13.7943,0,6,6,23,1,トマ　ドキ　ホレト,,,CartoonStims/boxer_point_chef_r.jpg,audio/tomadokihoreto.mp3,,,,,,,,,,,,,,,,,,,,,,,,,,,,,,,,,,,,,,,,,,,,,,,,,,,,,,,,,,,,,,,,,,,,,,,,,,
,,,,,,,,,R_3Rf41HmUdWO9jSZ,2022-11-20_11h25.34.650,jpn_C01,2022.1.2,Linux x86_64,59.99520038,,,space,2.8861,0,7,7,34,1,パツ　ドキ　ホレト,,,CartoonStims/boxer_shoot_chef_r.jpg,audio/patsudokihoreto.mp3,,,,,,,,,,,,,,,,,,,,,,,,,,,,,,,,,,,,,,,,,,,,,,,,,,,,,,,,,,,,,,,,,,,,,,,,,,
,,,,,,,,,R_3Rf41HmUdWO9jSZ,2022-11-20_11h25.34.650,jpn_C01,2022.1.2,Linux x86_64,59.99520038,,,space,2.2151,0,8,8,5,1,セル　ホレト　ピポ,,,CartoonStims/chef_kick_doctor_r.jpg,audio/seruhoretopipo.mp3,,,,,,,,,,,,,,,,,,,,,,,,,,,,,,,,,,,,,,,,,,,,,,,,,,,,,,,,,,,,,,,,,,,,,,,,,,
,,,,,,,,,R_3Rf41HmUdWO9jSZ,2022-11-20_11h25.34.650,jpn_C01,2022.1.2,Linux x86_64,59.99520038,,,space,6.8726,0,9,9,17,1,トマ　ホレト　ドキ,,,CartoonStims/chef_point_boxer_r.jpg,audio/tomahoretodoki.mp3,,,,,,,,,,,,,,,,,,,,,,,,,,,,,,,,,,,,,,,,,,,,,,,,,,,,,,,,,,,,,,,,,,,,,,,,,,
,,,,,,,,,R_3Rf41HmUdWO9jSZ,2022-11-20_11h25.34.650,jpn_C01,2022.1.2,Linux x86_64,59.99520038,,,space,27.1589,0,10,10,42,1,プミ　ムク　ルピン,,,CartoonStims/cowboy_punch_burglar_r.jpg,audio/pumimukulupin.mp3,,,,,,,,,,,,,,,,,,,,,,,,,,,,,,,,,,,,,,,,,,,,,,,,,,,,,,,,,,,,,,,,,,,,,,,,,,
,,,,,,,,,R_3Rf41HmUdWO9jSZ,2022-11-20_11h25.34.650,jpn_C01,2022.1.2,Linux x86_64,59.99520038,,,space,2.5473,0,11,11,31,1,パツ　ムク　ルピン,,,CartoonStims/cowboy_shoot_burglar_r.jpg,audio/patsumukulupin.mp3,,,,,,,,,,,,,,,,,,,,,,,,,,,,,,,,,,,,,,,,,,,,,,,,,,,,,,,,,,,,,,,,,,,,,,,,,,
,,,,,,,,,R_3Rf41HmUdWO9jSZ,2022-11-20_11h25.34.650,jpn_C01,2022.1.2,Linux x86_64,59.99520038,,,space,3.036,0,12,12,25,1,パツ　シド　ピポ,,,CartoonStims/artist_shoot_doctor_r.jpg,audio/patsusidopipo.mp3,,,,,,,,,,,,,,,,,,,,,,,,,,,,,,,,,,,,,,,,,,,,,,,,,,,,,,,,,,,,,,,,,,,,,,,,,,
,,,,,,,,,R_3Rf41HmUdWO9jSZ,2022-11-20_11h25.34.650,jpn_C01,2022.1.2,Linux x86_64,59.99520038,,,space,3.8393,0,13,13,28,1,パツ　ホレト　ドキ,,,CartoonStims/chef_shoot_boxer_r.jpg,audio/patsuhoretodoki.mp3,,,,,,,,,,,,,,,,,,,,,,,,,,,,,,,,,,,,,,,,,,,,,,,,,,,,,,,,,,,,,,,,,,,,,,,,,,
,,,,,,,,,R_3Rf41HmUdWO9jSZ,2022-11-20_11h25.34.650,jpn_C01,2022.1.2,Linux x86_64,59.99520038,,,space,2.6363,0,14,14,29,1,パツ　ホレト　シド,,,CartoonStims/chef_shoot_artist_r.jpg,audio/patsuhoretosido.mp3,,,,,,,,,,,,,,,,,,,,,,,,,,,,,,,,,,,,,,,,,,,,,,,,,,,,,,,,,,,,,,,,,,,,,,,,,,
,,,,,,,,,R_3Rf41HmUdWO9jSZ,2022-11-20_11h25.34.650,jpn_C01,2022.1.2,Linux x86_64,59.99520038,,,space,6.939,0,15,15,43,1,プミ　ムク　ホレト,,,CartoonStims/cowboy_punch_chef_r.jpg,audio/pumimukuhoreto.mp3,,,,,,,,,,,,,,,,,,,,,,,,,,,,,,,,,,,,,,,,,,,,,,,,,,,,,,,,,,,,,,,,,,,,,,,,,,
,,,,,,,,,R_3Rf41HmUdWO9jSZ,2022-11-20_11h25.34.650,jpn_C01,2022.1.2,Linux x86_64,59.99520038,,,space,5.6948,0,16,16,9,1,セル　ピポ　シド,,,CartoonStims/doctor_kick_artist_r.jpg,audio/serupiposido.mp3,,,,,,,,,,,,,,,,,,,,,,,,,,,,,,,,,,,,,,,,,,,,,,,,,,,,,,,,,,,,,,,,,,,,,,,,,,
,,,,,,,,,R_3Rf41HmUdWO9jSZ,2022-11-20_11h25.34.650,jpn_C01,2022.1.2,Linux x86_64,59.99520038,,,space,1.8248,0,17,17,27,1,パツ　ルピン　ドキ,,,CartoonStims/burglar_shoot_boxer_r.jpg,audio/patsulupindoki.mp3,,,,,,,,,,,,,,,,,,,,,,,,,,,,,,,,,,,,,,,,,,,,,,,,,,,,,,,,,,,,,,,,,,,,,,,,,,
,,,,,,,,,R_3Rf41HmUdWO9jSZ,2022-11-20_11h25.34.650,jpn_C01,2022.1.2,Linux x86_64,59.99520038,,,space,16.808,0,18,18,21,1,トマ　ピポ　ルピン,,,CartoonStims/doctor_point_burglar_r.jpg,audio/tomapipolupin.mp3,,,,,,,,,,,,,,,,,,,,,,,,,,,,,,,,,,,,,,,,,,,,,,,,,,,,,,,,,,,,,,,,,,,,,,,,,,
,,,,,,,,,R_3Rf41HmUdWO9jSZ,2022-11-20_11h25.34.650,jpn_C01,2022.1.2,Linux x86_64,59.99520038,,,space,2.2374,0,19,19,19,1,トマ　ムク　シド,,,CartoonStims/cowboy_point_artist_r.jpg,audio/tomamukusido.mp3,,,,,,,,,,,,,,,,,,,,,,,,,,,,,,,,,,,,,,,,,,,,,,,,,,,,,,,,,,,,,,,,,,,,,,,,,,
,,,,,,,,,R_3Rf41HmUdWO9jSZ,2022-11-20_11h25.34.650,jpn_C01,2022.1.2,Linux x86_64,59.99520038,,,space,2.4542,0,20,20,15,1,トマ　ルピン　ピポ,,,CartoonStims/burglar_point_doctor_r.jpg,audio/tomalupinpipo.mp3,,,,,,,,,,,,,,,,,,,,,,,,,,,,,,,,,,,,,,,,,,,,,,,,,,,,,,,,,,,,,,,,,,,,,,,,,,
,,,,,,,,,R_3Rf41HmUdWO9jSZ,2022-11-20_11h25.34.650,jpn_C01,2022.1.2,Linux x86_64,59.99520038,,,space,24.829,0,21,21,39,1,プミ　ルピン　シド,,,CartoonStims/burglar_punch_artist_r.jpg,audio/pumilupinsido.mp3,,,,,,,,,,,,,,,,,,,,,,,,,,,,,,,,,,,,,,,,,,,,,,,,,,,,,,,,,,,,,,,,,,,,,,,,,,
,,,,,,,,,R_3Rf41HmUdWO9jSZ,2022-11-20_11h25.34.650,jpn_C01,2022.1.2,Linux x86_64,59.99520038,,,space,7.2607,0,22,22,10,1,セル　ドキ　シド,,,CartoonStims/boxer_kick_artist_r.jpg,audio/serudokisido.mp3,,,,,,,,,,,,,,,,,,,,,,,,,,,,,,,,,,,,,,,,,,,,,,,,,,,,,,,,,,,,,,,,,,,,,,,,,,
,,,,,,,,,R_3Rf41HmUdWO9jSZ,2022-11-20_11h25.34.650,jpn_C01,2022.1.2,Linux x86_64,59.99520038,,,space,9.6495,0,23,23,45,1,プミ　ピポ　ムク,,,CartoonStims/doctor_punch_cowboy_r.jpg,audio/pumipipomuku.mp3,,,,,,,,,,,,,,,,,,,,,,,,,,,,,,,,,,,,,,,,,,,,,,,,,,,,,,,,,,,,,,,,,,,,,,,,,,
,,,,,,,,,R_3Rf41HmUdWO9jSZ,2022-11-20_11h25.34.650,jpn_C01,2022.1.2,Linux x86_64,59.99520038,,,space,11.9239,0,24,24,33,1,パツ　ピポ　ホレト,,,CartoonStims/doctor_shoot_chef_r.jpg,audio/patsupipohoreto.mp3,,,,,,,,,,,,,,,,,,,,,,,,,,,,,,,,,,,,,,,,,,,,,,,,,,,,,,,,,,,,,,,,,,,,,,,,,,
,,,,,,,,,R_3Rf41HmUdWO9jSZ,2022-11-20_11h25.34.650,jpn_C01,2022.1.2,Linux x86_64,59.99520038,,,space,7.0226,0,25,25,0,1,セル　シド　ルピン,,,CartoonStims/artist_kick_burglar_r.jpg,audio/serusidolupin.mp3,,,,,,,,,,,,,,,,,,,,,,,,,,,,,,,,,,,,,,,,,,,,,,,,,,,,,,,,,,,,,,,,,,,,,,,,,,
,,,,,,,,,R_3Rf41HmUdWO9jSZ,2022-11-20_11h25.34.650,jpn_C01,2022.1.2,Linux x86_64,59.99520038,,,space,13.628,0,26,26,41,1,プミ　ホレト　ルピン,,,CartoonStims/chef_punch_burglar_r.jpg,audio/pumihoretolupin.mp3,,,,,,,,,,,,,,,,,,,,,,,,,,,,,,,,,,,,,,,,,,,,,,,,,,,,,,,,,,,,,,,,,,,,,,,,,,
,,,,,,,,,R_3Rf41HmUdWO9jSZ,2022-11-20_11h25.34.650,jpn_C01,2022.1.2,Linux x86_64,59.99520038,,,space,3.7461,0,27,27,14,1,トマ　ルピン　ムク,,,CartoonStims/burglar_point_cowboy_r.jpg,audio/tomalupinmuku.mp3,,,,,,,,,,,,,,,,,,,,,,,,,,,,,,,,,,,,,,,,,,,,,,,,,,,,,,,,,,,,,,,,,,,,,,,,,,
,,,,,,,,,R_3Rf41HmUdWO9jSZ,2022-11-20_11h25.34.650,jpn_C01,2022.1.2,Linux x86_64,59.99520038,,,space,7.0106,0,28,28,11,1,セル　ドキ　ルピン,,,CartoonStims/boxer_kick_burglar_r.jpg,audio/serudokilupin.mp3,,,,,,,,,,,,,,,,,,,,,,,,,,,,,,,,,,,,,,,,,,,,,,,,,,,,,,,,,,,,,,,,,,,,,,,,,,
,,,,,,,,,R_3Rf41HmUdWO9jSZ,2022-11-20_11h25.34.650,jpn_C01,2022.1.2,Linux x86_64,59.99520038,,,space,5.0573,0,29,29,40,1,プミ　ホレト　シド,,,CartoonStims/chef_punch_artist_r.jpg,audio/pumihoretosido.mp3,,,,,,,,,,,,,,,,,,,,,,,,,,,,,,,,,,,,,,,,,,,,,,,,,,,,,,,,,,,,,,,,,,,,,,,,,,
,,,,,,,,,R_3Rf41HmUdWO9jSZ,2022-11-20_11h25.34.650,jpn_C01,2022.1.2,Linux x86_64,59.99520038,,,space,3.036,0,30,30,36,1,プミ　シド　ピポ,,,CartoonStims/artist_punch_doctor_r.jpg,audio/pumisidopipo.mp3,,,,,,,,,,,,,,,,,,,,,,,,,,,,,,,,,,,,,,,,,,,,,,,,,,,,,,,,,,,,,,,,,,,,,,,,,,
,,,,,,,,,R_3Rf41HmUdWO9jSZ,2022-11-20_11h25.34.650,jpn_C01,2022.1.2,Linux x86_64,59.99520038,,,space,4.986,0,31,31,35,1,パツ　ドキ　ムク,,,CartoonStims/boxer_shoot_cowboy_r.jpg,audio/patsudokimuku.mp3,,,,,,,,,,,,,,,,,,,,,,,,,,,,,,,,,,,,,,,,,,,,,,,,,,,,,,,,,,,,,,,,,,,,,,,,,,
,,,,,,,,,R_3Rf41HmUdWO9jSZ,2022-11-20_11h25.34.650,jpn_C01,2022.1.2,Linux x86_64,59.99520038,,,space,2.0228,0,32,32,38,1,プミ　ルピン　ドキ,,,CartoonStims/burglar_punch_boxer_r.jpg,audio/pumilupindoki.mp3,,,,,,,,,,,,,,,,,,,,,,,,,,,,,,,,,,,,,,,,,,,,,,,,,,,,,,,,,,,,,,,,,,,,,,,,,,
,,,,,,,,,R_3Rf41HmUdWO9jSZ,2022-11-20_11h25.34.650,jpn_C01,2022.1.2,Linux x86_64,59.99520038,,,space,1.5293,0,33,33,13,1,トマ　シド　ムク,,,CartoonStims/artist_point_cowboy_r.jpg,audio/tomasidomuku.mp3,,,,,,,,,,,,,,,,,,,,,,,,,,,,,,,,,,,,,,,,,,,,,,,,,,,,,,,,,,,,,,,,,,,,,,,,,,
,,,,,,,,,R_3Rf41HmUdWO9jSZ,2022-11-20_11h25.34.650,jpn_C01,2022.1.2,Linux x86_64,59.99520038,,,space,2.9355,0,34,34,1,1,セル 　シド 　ホレト,,,CartoonStims/artist_kick_chef_r.jpg,audio/serusidohoreto.mp3,,,,,,,,,,,,,,,,,,,,,,,,,,,,,,,,,,,,,,,,,,,,,,,,,,,,,,,,,,,,,,,,,,,,,,,,,,
,,,,,,,,,R_3Rf41HmUdWO9jSZ,2022-11-20_11h25.34.650,jpn_C01,2022.1.2,Linux x86_64,59.99520038,,,space,2.7882,0,35,35,30,1,パツ　ムク　シド,,,CartoonStims/cowboy_shoot_artist_r.jpg,audio/patsumukusido.mp3,,,,,,,,,,,,,,,,,,,,,,,,,,,,,,,,,,,,,,,,,,,,,,,,,,,,,,,,,,,,,,,,,,,,,,,,,,
,,,,,,,,,R_3Rf41HmUdWO9jSZ,2022-11-20_11h25.34.650,jpn_C01,2022.1.2,Linux x86_64,59.99520038,,,space,6.1247,0,36,36,37,1,プミ　シド　ドキ,,,CartoonStims/artist_punch_boxer_r.jpg,audio/pumisidodoki.mp3,,,,,,,,,,,,,,,,,,,,,,,,,,,,,,,,,,,,,,,,,,,,,,,,,,,,,,,,,,,,,,,,,,,,,,,,,,
,,,,,,,,,R_3Rf41HmUdWO9jSZ,2022-11-20_11h25.34.650,jpn_C01,2022.1.2,Linux x86_64,59.99520038,,,space,4.1165,0,37,37,7,1,セル　ムク　ドキ,,,CartoonStims/cowboy_kick_boxer_r.jpg,audio/serumukudoki.mp3,,,,,,,,,,,,,,,,,,,,,,,,,,,,,,,,,,,,,,,,,,,,,,,,,,,,,,,,,,,,,,,,,,,,,,,,,,
,,,,,,,,,R_3Rf41HmUdWO9jSZ,2022-11-20_11h25.34.650,jpn_C01,2022.1.2,Linux x86_64,59.99520038,,,space,3.3235,0,38,38,18,1,トマ　ムク　ドキ,,,CartoonStims/cowboy_point_boxer_r.jpg,audio/tomamukudoki.mp3,,,,,,,,,,,,,,,,,,,,,,,,,,,,,,,,,,,,,,,,,,,,,,,,,,,,,,,,,,,,,,,,,,,,,,,,,,
,,,,,,,,,R_3Rf41HmUdWO9jSZ,2022-11-20_11h25.34.650,jpn_C01,2022.1.2,Linux x86_64,59.99520038,,,space,4.5565,0,39,39,2,1,セル 　ルピン 　ホレト,,,CartoonStims/burglar_kick_chef_r.jpg,audio/serulupinhoreto.mp3,,,,,,,,,,,,,,,,,,,,,,,,,,,,,,,,,,,,,,,,,,,,,,,,,,,,,,,,,,,,,,,,,,,,,,,,,,
,,,,,,,,,R_3Rf41HmUdWO9jSZ,2022-11-20_11h25.34.650,jpn_C01,2022.1.2,Linux x86_64,59.99520038,,,space,10.6558,0,40,40,22,1,トマ　ドキ　ルピン,,,CartoonStims/boxer_point_burglar_r.jpg,audio/tomadokilupin.mp3,,,,,,,,,,,,,,,,,,,,,,,,,,,,,,,,,,,,,,,,,,,,,,,,,,,,,,,,,,,,,,,,,,,,,,,,,,
,,,,,,,,,R_3Rf41HmUdWO9jSZ,2022-11-20_11h25.34.650,jpn_C01,2022.1.2,Linux x86_64,59.99520038,,,space,5.6743,0,41,41,32,1,パツ　ピポ　ルピン,,,CartoonStims/doctor_shoot_burglar_r.jpg,audio/patsupipolupin.mp3,,,,,,,,,,,,,,,,,,,,,,,,,,,,,,,,,,,,,,,,,,,,,,,,,,,,,,,,,,,,,,,,,,,,,,,,,,
,,,,,,,,,R_3Rf41HmUdWO9jSZ,2022-11-20_11h25.34.650,jpn_C01,2022.1.2,Linux x86_64,59.99520038,,,space,12.0245,0,42,42,20,1,トマ　ピポ　シド,,,CartoonStims/doctor_point_artist_r.jpg,audio/tomapiposido.mp3,,,,,,,,,,,,,,,,,,,,,,,,,,,,,,,,,,,,,,,,,,,,,,,,,,,,,,,,,,,,,,,,,,,,,,,,,,
,,,,,,,,,R_3Rf41HmUdWO9jSZ,2022-11-20_11h25.34.650,jpn_C01,2022.1.2,Linux x86_64,59.99520038,,,space,4.2224,0,43,43,4,1,セル　ホレト　ムク,,,CartoonStims/chef_kick_cowboy_r.jpg,audio/seruhoretomuku.mp3,,,,,,,,,,,,,,,,,,,,,,,,,,,,,,,,,,,,,,,,,,,,,,,,,,,,,,,,,,,,,,,,,,,,,,,,,,
,,,,,,,,,R_3Rf41HmUdWO9jSZ,2022-11-20_11h25.34.650,jpn_C01,2022.1.2,Linux x86_64,59.99520038,,,space,3.0698,0,44,44,16,1,トマ　ホレト　ピポ,,,CartoonStims/chef_point_doctor_r.jpg,audio/tomahoretopipo.mp3,,,,,,,,,,,,,,,,,,,,,,,,,,,,,,,,,,,,,,,,,,,,,,,,,,,,,,,,,,,,,,,,,,,,,,,,,,
,,,,,,,,,R_3Rf41HmUdWO9jSZ,2022-11-20_11h25.34.650,jpn_C01,2022.1.2,Linux x86_64,59.99520038,,,space,7.2589,0,45,45,46,1,プミ　ドキ　ムク,,,CartoonStims/boxer_punch_cowboy_r.jpg,audio/pumidokimuku.mp3,,,,,,,,,,,,,,,,,,,,,,,,,,,,,,,,,,,,,,,,,,,,,,,,,,,,,,,,,,,,,,,,,,,,,,,,,,
,,,,,,,,,R_3Rf41HmUdWO9jSZ,2022-11-20_11h25.34.650,jpn_C01,2022.1.2,Linux x86_64,59.99520038,,,space,2.3184,0,46,46,47,1,プミ　ドキ　ピポ,,,CartoonStims/boxer_punch_doctor_r.jpg,audio/pumidokipipo.mp3,,,,,,,,,,,,,,,,,,,,,,,,,,,,,,,,,,,,,,,,,,,,,,,,,,,,,,,,,,,,,,,,,,,,,,,,,,
,,,,,,,,,R_3Rf41HmUdWO9jSZ,2022-11-20_11h25.34.650,jpn_C01,2022.1.2,Linux x86_64,59.99520038,,,space,26.5122,0,47,47,12,1,トマ　シド　ホレト,,,CartoonStims/artist_point_chef_r.jpg,audio/tomasidohoreto.mp3,,,,,,,,,,,,,,,,,,,,,,,,,,,,,,,,,,,,,,,,,,,,,,,,,,,,,,,,,,,,,,,,,,,,,,,,,,
,,,,,,,,,R_3Rf41HmUdWO9jSZ,2022-11-20_11h25.34.650,jpn_C01,2022.1.2,Linux x86_64,59.99520038,,,,,,,,,,,,,,,space,0.9833,left,1,4.7001,,,,,,,,,,,,,,,,,,0,0,0,0,1,,,,,,,,,,,,,,,,,,,,,,,,,,,,,,,,,,,,,,,,,,,,,,,
,,,,,,,,,R_3Rf41HmUdWO9jSZ,2022-11-20_11h25.34.650,jpn_C01,2022.1.2,Linux x86_64,59.99520038,,,,,,,,,,,,,,,,,,,,,,,,,0,0,0,0,1,CartoonStims/doctor_kick_burglar_r.jpg,セル　ピポ　ルピン,CartoonStims/doctor_kick_chef_r.jpg,left,CartoonStims/doctor_kick_burglar_r.jpg,audio/serupipolupin.mp3,残念！ こちらが正しい画像です。,,,,,,,,,,,,,,,,,,,,,,,,,,,,,,,,,,,,,,,,,,,,,,,,,,,,
,,,,,,,,,R_3Rf41HmUdWO9jSZ,2022-11-20_11h25.34.650,jpn_C01,2022.1.2,Linux x86_64,59.99520038,,,,,,,,,,,,,,,,,right,1,3.4875,0,0,0,0,1,,,,,,,,,,,,,,,,,,,,,,,,,,,,,,,,,,,,,,,,,,,,,,,,,,,,,,,,,,,,,,,,
,,,,,,,,,R_3Rf41HmUdWO9jSZ,2022-11-20_11h25.34.650,jpn_C01,2022.1.2,Linux x86_64,59.99520038,,,,,,,,,,,,,,,,,,,,,,,,,0,1,1,9,1,CartoonStims/chef_kick_artist_r.jpg,セル　ムク　シド,CartoonStims/cowboy_kick_artist_r.jpg,right,CartoonStims/cowboy_kick_artist_r.jpg,audio/serumukusido.mp3,残念！ こちらが正しい画像です。,,,,,,,,,,,,,,,,,,,,,,,,,,,,,,,,,,,,,,,,,,,,,,,,,,,,
,,,,,,,,,R_3Rf41HmUdWO9jSZ,2022-11-20_11h25.34.650,jpn_C01,2022.1.2,Linux x86_64,59.99520038,,,,,,,,,,,,,,,,,right,0,14.2758,,,,,,,,,,,,,,,,,,,,,,,,,,,,0,0,0,0,1,,,,,,,,,,,,,,,,,,,,,,,,,,,,,,,,,,,,,
,,,,,,,,,R_3Rf41HmUdWO9jSZ,2022-11-20_11h25.34.650,jpn_C01,2022.1.2,Linux x86_64,59.99520038,,,,,,,,,,,,,,,,,,,,,,,,,0,2,2,10,1,CartoonStims/artist_shoot_burglar_r.jpg,パツ　シド　ルピン,CartoonStims/chef_shoot_burglar_r.jpg,left,CartoonStims/artist_shoot_burglar_r.jpg,audio/patsusidolupin.mp3,残念！ こちらが正しい画像です。,,,,,,,,,,,,,,,,,,,,,,,,,,,,,,,,,,,,,,,,,,,,,,,,,,,,
,,,,,,,,,R_3Rf41HmUdWO9jSZ,2022-11-20_11h25.34.650,jpn_C01,2022.1.2,Linux x86_64,59.99520038,,,,,,,,,,,,,,,,,right,1,4.0865,0,0,0,0,1,,,,,,,,,,,,,,,,,,,,,,,,,,,,,,,,,,,,,,,,,,,,,,,,,,,,,,,,,,,,,,,,
,,,,,,,,,R_3Rf41HmUdWO9jSZ,2022-11-20_11h25.34.650,jpn_C01,2022.1.2,Linux x86_64,59.99520038,,,,,,,,,,,,,,,,,,,,,,,,,0,3,3,11,1,CartoonStims/burglar_punch_cowboy_r.jpg,プミ　ホレト　ムク,CartoonStims/chef_punch_cowboy_r.jpg,right,CartoonStims/chef_punch_cowboy_r.jpg,audio/pumihoretomuku.mp3,残念！ こちらが正しい画像です。,,,,,,,,,,,,,,,,,,,,,,,,,,,,,,,,,,,,,,,,,,,,,,,,,,,,
,,,,,,,,,R_3Rf41HmUdWO9jSZ,2022-11-20_11h25.34.650,jpn_C01,2022.1.2,Linux x86_64,59.99520038,,,,,,,,,,,,,,,,,right,1,3.5231,0,0,0,0,1,,,,,,,,,,,,,,,,,,,,,,,,,,,,,,,,,,,,,,,,,,,,,,,,,,,,,,,,,,,,,,,,
,,,,,,,,,R_3Rf41HmUdWO9jSZ,2022-11-20_11h25.34.650,jpn_C01,2022.1.2,Linux x86_64,59.99520038,,,,,,,,,,,,,,,,,,,,,,,,,0,4,4,1,1,CartoonStims/chef_point_burglar_r.jpg,トマ　ホレト　シド,CartoonStims/chef_point_artist_r.jpg,right,CartoonStims/chef_point_artist_r.jpg,audio/tomahoretosido.mp3,残念！ こちらが正しい画像です。,,,,,,,,,,,,,,,,,,,,,,,,,,,,,,,,,,,,,,,,,,,,,,,,,,,,
,,,,,,,,,R_3Rf41HmUdWO9jSZ,2022-11-20_11h25.34.650,jpn_C01,2022.1.2,Linux x86_64,59.99520038,,,,,,,,,,,,,,,,,left,1,4.7063,,,,,,,,,,,,,,,,,,0,0,0,0,1,,,,,,,,,,,,,,,,,,,,,,,,,,,,,,,,,,,,,,,,,,,,,,,
,,,,,,,,,R_3Rf41HmUdWO9jSZ,2022-11-20_11h25.34.650,jpn_C01,2022.1.2,Linux x86_64,59.99520038,,,,,,,,,,,,,,,,,,,,,,,,,0,5,5,6,1,CartoonStims/doctor_punch_boxer_r.jpg,プミ　ピポ　ドキ,CartoonStims/doctor_shoot_boxer_r.jpg,left,CartoonStims/doctor_punch_boxer_r.jpg,audio/pumipipodoki.mp3,残念！ こちらが正しい画像です。,,,,,,,,,,,,,,,,,,,,,,,,,,,,,,,,,,,,,,,,,,,,,,,,,,,,
,,,,,,,,,R_3Rf41HmUdWO9jSZ,2022-11-20_11h25.34.650,jpn_C01,2022.1.2,Linux x86_64,59.99520038,,,,,,,,,,,,,,,,,right,1,2.9869,0,0,0,0,1,,,,,,,,,,,,,,,,,,,,,,,,,,,,,,,,,,,,,,,,,,,,,,,,,,,,,,,,,,,,,,,,
,,,,,,,,,R_3Rf41HmUdWO9jSZ,2022-11-20_11h25.34.650,jpn_C01,2022.1.2,Linux x86_64,59.99520038,,,,,,,,,,,,,,,,,,,,,,,,,0,6,6,3,1,CartoonStims/cowboy_punch_doctor_r.jpg,プミ　ムク　ドキ,CartoonStims/cowboy_punch_boxer_r.jpg,right,CartoonStims/cowboy_punch_boxer_r.jpg,audio/pumimukudoki.mp3,残念！ こちらが正しい画像です。,,,,,,,,,,,,,,,,,,,,,,,,,,,,,,,,,,,,,,,,,,,,,,,,,,,,
,,,,,,,,,R_3Rf41HmUdWO9jSZ,2022-11-20_11h25.34.650,jpn_C01,2022.1.2,Linux x86_64,59.99520038,,,,,,,,,,,,,,,,,left,1,4.8605,,,,,,,,,,,,,,,,,,0,0,0,0,1,,,,,,,,,,,,,,,,,,,,,,,,,,,,,,,,,,,,,,,,,,,,,,,
,,,,,,,,,R_3Rf41HmUdWO9jSZ,2022-11-20_11h25.34.650,jpn_C01,2022.1.2,Linux x86_64,59.99520038,,,,,,,,,,,,,,,,,,,,,,,,,0,7,7,2,1,CartoonStims/boxer_shoot_doctor_r.jpg,パツ　ドキ　ピポ,CartoonStims/boxer_shoot_artist_r.jpg,left,CartoonStims/boxer_shoot_doctor_r.jpg,audio/patsudokipipo.mp3,残念！ こちらが正しい画像です。,,,,,,,,,,,,,,,,,,,,,,,,,,,,,,,,,,,,,,,,,,,,,,,,,,,,
,,,,,,,,,R_3Rf41HmUdWO9jSZ,2022-11-20_11h25.34.650,jpn_C01,2022.1.2,Linux x86_64,59.99520038,,,,,,,,,,,,,,,,,right,1,2.5202,0,0,0,0,1,,,,,,,,,,,,,,,,,,,,,,,,,,,,,,,,,,,,,,,,,,,,,,,,,,,,,,,,,,,,,,,,
,,,,,,,,,R_3Rf41HmUdWO9jSZ,2022-11-20_11h25.34.650,jpn_C01,2022.1.2,Linux x86_64,59.99520038,,,,,,,,,,,,,,,,,,,,,,,,,0,8,8,7,1,CartoonStims/artist_punch_cowboy_r.jpg,セル　シド　ムク,CartoonStims/artist_kick_cowboy_r.jpg,right,CartoonStims/artist_kick_cowboy_r.jpg,audio/serusidomuku.mp3,残念！ こちらが正しい画像です。,,,,,,,,,,,,,,,,,,,,,,,,,,,,,,,,,,,,,,,,,,,,,,,,,,,,
,,,,,,,,,R_3Rf41HmUdWO9jSZ,2022-11-20_11h25.34.650,jpn_C01,2022.1.2,Linux x86_64,59.99520038,,,,,,,,,,,,,,,,,right,1,3.5545,0,0,0,0,1,,,,,,,,,,,,,,,,,,,,,,,,,,,,,,,,,,,,,,,,,,,,,,,,,,,,,,,,,,,,,,,,
,,,,,,,,,R_3Rf41HmUdWO9jSZ,2022-11-20_11h25.34.650,jpn_C01,2022.1.2,Linux x86_64,59.99520038,,,,,,,,,,,,,,,,,,,,,,,,,0,9,9,5,1,CartoonStims/cowboy_point_chef_r.jpg,パツ　ムク　ホレト,CartoonStims/cowboy_shoot_chef_r.jpg,right,CartoonStims/cowboy_shoot_chef_r.jpg,audio/patsumukuhoreto.mp3,残念！ こちらが正しい画像です。,,,,,,,,,,,,,,,,,,,,,,,,,,,,,,,,,,,,,,,,,,,,,,,,,,,,
,,,,,,,,,R_3Rf41HmUdWO9jSZ,2022-11-20_11h25.34.650,jpn_C01,2022.1.2,Linux x86_64,59.99520038,,,,,,,,,,,,,,,,,left,1,2.0549,,,,,,,,,,,,,,,,,,0,0,0,0,1,,,,,,,,,,,,,,,,,,,,,,,,,,,,,,,,,,,,,,,,,,,,,,,
,,,,,,,,,R_3Rf41HmUdWO9jSZ,2022-11-20_11h25.34.650,jpn_C01,2022.1.2,Linux x86_64,59.99520038,,,,,,,,,,,,,,,,,,,,,,,,,0,10,10,4,1,CartoonStims/burglar_point_boxer_r.jpg,トマ　ルピン　ドキ,CartoonStims/burglar_kick_boxer_r.jpg,left,CartoonStims/burglar_point_boxer_r.jpg,audio/tomalupindoki.mp3,残念！ こちらが正しい画像です。,,,,,,,,,,,,,,,,,,,,,,,,,,,,,,,,,,,,,,,,,,,,,,,,,,,,
,,,,,,,,,R_3Rf41HmUdWO9jSZ,2022-11-20_11h25.34.650,jpn_C01,2022.1.2,Linux x86_64,59.99520038,,,,,,,,,,,,,,,,,right,0,4.4684,,,,,,,,,,,,,,,,,,,,,,,,,,,,0,0,0,0,1,,,,,,,,,,,,,,,,,,,,,,,,,,,,,,,,,,,,,
,,,,,,,,,R_3Rf41HmUdWO9jSZ,2022-11-20_11h25.34.650,jpn_C01,2022.1.2,Linux x86_64,59.99520038,,,,,,,,,,,,,,,,,,,,,,,,,0,11,11,8,1,CartoonStims/doctor_point_cowboy_r.jpg,トマ　ピポ　ムク,CartoonStims/boxer_point_cowboy_r.jpg,left,CartoonStims/doctor_point_cowboy_r.jpg,audio/tomapipomuku.mp3,残念！ こちらが正しい画像です。,,,,,,,,,,,,,,,,,,,,,,,,,,,,,,,,,,,,,,,,,,,,,,,,,,,,
,,,,,,,,,R_3Rf41HmUdWO9jSZ,2022-11-20_11h25.34.650,jpn_C01,2022.1.2,Linux x86_64,59.99520038,,,,,,,,,,,,,,,,,,,,,,,,,,,,,,,,,,,,,,,,,,,,,,,,,,,,space,3.477,パツ　ピポ　ドキ,right,20.9097,0,0,0,0,1,,,,,,,,,,,,,,,,,,,,,,,,,,,
,,,,,,,,,R_3Rf41HmUdWO9jSZ,2022-11-20_11h25.34.650,jpn_C01,2022.1.2,Linux x86_64,59.99520038,,,,,,,,,,,,,CartoonStims/doctor_punch_boxer_r.jpg,audio/pumipipodoki.mp3,,,,,,,,,,,,,,,,,,,,,,,,,,,,,,,,,,,,,,,,,,,,,,,,0,0,0,10,1,プミ　ピポ　ドキ,,,,,,,,,,,,,,,,,,,,,
,,,,,,,,,R_3Rf41HmUdWO9jSZ,2022-11-20_11h25.34.650,jpn_C01,2022.1.2,Linux x86_64,59.99520038,,,,,,,,,,,,,,,,,,,,,,,,,,,,,,,,,,,,,,,,,,,,,,,,,,,,,,パツ　ムク　ピポ,right,11.0433,0,0,0,0,1,,,,,,,,,,,,,,,,,,,,,,,,,,,
,,,,,,,,,R_3Rf41HmUdWO9jSZ,2022-11-20_11h25.34.650,jpn_C01,2022.1.2,Linux x86_64,59.99520038,,,,,,,,,,,,,CartoonStims/cowboy_shoot_doctor_r.jpg,audio/patsumukupipo.mp3,,,,,,,,,,,,,,,,,,,,,,,,,,,,,,,,,,,,,,,,,,,,,,,,0,1,1,8,1,パツ　ムク　ピポ,,,,,,,,,,,,,,,,,,,,,
,,,,,,,,,R_3Rf41HmUdWO9jSZ,2022-11-20_11h25.34.650,jpn_C01,2022.1.2,Linux x86_64,59.99520038,,,,,,,,,,,,,,,,,,,,,,,,,,,,,,,,,,,,,,,,,,,,,,,,,,,,,,セル　ムク　ルピン,right,8.1935,0,0,0,0,1,,,,,,,,,,,,,,,,,,,,,,,,,,,
,,,,,,,,,R_3Rf41HmUdWO9jSZ,2022-11-20_11h25.34.650,jpn_C01,2022.1.2,Linux x86_64,59.99520038,,,,,,,,,,,,,CartoonStims/cowboy_kick_burglar_r.jpg,audio/serumukulupin.mp3,,,,,,,,,,,,,,,,,,,,,,,,,,,,,,,,,,,,,,,,,,,,,,,,0,2,2,0,1,セル　ムク　ルピン,,,,,,,,,,,,,,,,,,,,,
,,,,,,,,,R_3Rf41HmUdWO9jSZ,2022-11-20_11h25.34.650,jpn_C01,2022.1.2,Linux x86_64,59.99520038,,,,,,,,,,,,,,,,,,,,,,,,,,,,,,,,,,,,,,,,,,,,,,,,,,,,,,セル　ピポ　ホレト,right,7.3264,0,0,0,0,1,,,,,,,,,,,,,,,,,,,,,,,,,,,
,,,,,,,,,R_3Rf41HmUdWO9jSZ,2022-11-20_11h25.34.650,jpn_C01,2022.1.2,Linux x86_64,59.99520038,,,,,,,,,,,,,CartoonStims/doctor_kick_chef_r.jpg,audio/serupipohoreto.mp3,,,,,,,,,,,,,,,,,,,,,,,,,,,,,,,,,,,,,,,,,,,,,,,,0,3,3,1,1,セル　ピポ　ホレト,,,,,,,,,,,,,,,,,,,,,
,,,,,,,,,R_3Rf41HmUdWO9jSZ,2022-11-20_11h25.34.650,jpn_C01,2022.1.2,Linux x86_64,59.99520038,,,,,,,,,,,,,,,,,,,,,,,,,,,,,,,,,,,,,,,,,,,,,,,,,,,,,,パツ　ルピン　ホレト,right,13.9067,0,0,0,0,1,,,,,,,,,,,,,,,,,,,,,,,,,,,
,,,,,,,,,R_3Rf41HmUdWO9jSZ,2022-11-20_11h25.34.650,jpn_C01,2022.1.2,Linux x86_64,59.99520038,,,,,,,,,,,,,CartoonStims/burglar_shoot_chef_r.jpg,audio/patsulupinhoreto.mp3,,,,,,,,,,,,,,,,,,,,,,,,,,,,,,,,,,,,,,,,,,,,,,,,0,4,4,6,1,パツ　ルピン　ホレト,,,,,,,,,,,,,,,,,,,,,
,,,,,,,,,R_3Rf41HmUdWO9jSZ,2022-11-20_11h25.34.650,jpn_C01,2022.1.2,Linux x86_64,59.99520038,,,,,,,,,,,,,,,,,,,,,,,,,,,,,,,,,,,,,,,,,,,,,,,,,,,,,,パツ　ホレト　ムク,right,42.5537,0,0,0,0,1,,,,,,,,,,,,,,,,,,,,,,,,,,,
,,,,,,,,,R_3Rf41HmUdWO9jSZ,2022-11-20_11h25.34.650,jpn_C01,2022.1.2,Linux x86_64,59.99520038,,,,,,,,,,,,,CartoonStims/chef_shoot_cowboy_r.jpg,audio/patsuhoretomuku.mp3,,,,,,,,,,,,,,,,,,,,,,,,,,,,,,,,,,,,,,,,,,,,,,,,0,5,5,7,1,パツ　ホレト　ムク,,,,,,,,,,,,,,,,,,,,,
,,,,,,,,,R_3Rf41HmUdWO9jSZ,2022-11-20_11h25.34.650,jpn_C01,2022.1.2,Linux x86_64,59.99520038,,,,,,,,,,,,,,,,,,,,,,,,,,,,,,,,,,,,,,,,,,,,,,,,,,,,,,ドキ,right,37.0845,0,0,0,0,1,,,,,,,,,,,,,,,,,,,,,,,,,,,
,,,,,,,,,R_3Rf41HmUdWO9jSZ,2022-11-20_11h25.34.650,jpn_C01,2022.1.2,Linux x86_64,59.99520038,,,,,,,,,,,,,CartoonStims/artist_point_boxer_r.jpg,audio/tomasidodoki.mp3,,,,,,,,,,,,,,,,,,,,,,,,,,,,,,,,,,,,,,,,,,,,,,,,0,6,6,3,1,トマ　シド　ドキ,,,,,,,,,,,,,,,,,,,,,
,,,,,,,,,R_3Rf41HmUdWO9jSZ,2022-11-20_11h25.34.650,jpn_C01,2022.1.2,Linux x86_64,59.99520038,,,,,,,,,,,,,,,,,,,,,,,,,,,,,,,,,,,,,,,,,,,,,,,,,,,,,,セル　ドキ　ムク,right,17.3892,0,0,0,0,1,,,,,,,,,,,,,,,,,,,,,,,,,,,
,,,,,,,,,R_3Rf41HmUdWO9jSZ,2022-11-20_11h25.34.650,jpn_C01,2022.1.2,Linux x86_64,59.99520038,,,,,,,,,,,,,CartoonStims/boxer_kick_cowboy_r.jpg,audio/serudokimuku.mp3,,,,,,,,,,,,,,,,,,,,,,,,,,,,,,,,,,,,,,,,,,,,,,,,0,7,7,2,1,セル　ドキ　ムク,,,,,,,,,,,,,,,,,,,,,
,,,,,,,,,R_3Rf41HmUdWO9jSZ,2022-11-20_11h25.34.650,jpn_C01,2022.1.2,Linux x86_64,59.99520038,,,,,,,,,,,,,,,,,,,,,,,,,,,,,,,,,,,,,,,,,,,,,,,,,,,,,,トマ　シド　ルピン,right,12.8965,0,0,0,0,1,,,,,,,,,,,,,,,,,,,,,,,,,,,
,,,,,,,,,R_3Rf41HmUdWO9jSZ,2022-11-20_11h25.34.650,jpn_C01,2022.1.2,Linux x86_64,59.99520038,,,,,,,,,,,,,CartoonStims/chef_point_burglar_r.jpg,audio/tomahoretolupin.mp3,,,,,,,,,,,,,,,,,,,,,,,,,,,,,,,,,,,,,,,,,,,,,,,,0,8,8,5,1,トマ　ホレト　ルピン,,,,,,,,,,,,,,,,,,,,,
,,,,,,,,,R_3Rf41HmUdWO9jSZ,2022-11-20_11h25.34.650,jpn_C01,2022.1.2,Linux x86_64,59.99520038,,,,,,,,,,,,,,,,,,,,,,,,,,,,,,,,,,,,,,,,,,,,,,,,,,,,,,トマ　ルピン　シド,right,10.704,0,0,0,0,1,,,,,,,,,,,,,,,,,,,,,,,,,,,
,,,,,,,,,R_3Rf41HmUdWO9jSZ,2022-11-20_11h25.34.650,jpn_C01,2022.1.2,Linux x86_64,59.99520038,,,,,,,,,,,,,CartoonStims/burglar_point_artist_r.jpg,audio/tomalupinsido.mp3,,,,,,,,,,,,,,,,,,,,,,,,,,,,,,,,,,,,,,,,,,,,,,,,0,9,9,4,1,トマ　ルピン　シド,,,,,,,,,,,,,,,,,,,,,
,,,,,,,,,R_3Rf41HmUdWO9jSZ,2022-11-20_11h25.34.650,jpn_C01,2022.1.2,Linux x86_64,59.99520038,,,,,,,,,,,,,,,,,,,,,,,,,,,,,,,,,,,,,,,,,,,,,,,,,,,,,,パツ　シド　ルピン,right,22.0934,0,0,0,0,1,,,,,,,,,,,,,,,,,,,,,,,,,,,
,,,,,,,,,R_3Rf41HmUdWO9jSZ,2022-11-20_11h25.34.650,jpn_C01,2022.1.2,Linux x86_64,59.99520038,,,,,,,,,,,,,CartoonStims/artist_punch_burglar_r.jpg,audio/pumisidolupin.mp3,,,,,,,,,,,,,,,,,,,,,,,,,,,,,,,,,,,,,,,,,,,,,,,,0,10,10,9,1,プミ　シド　ルピン,,,,,,,,,,,,,,,,,,,,,
,,,,,,,,,R_3Rf41HmUdWO9jSZ,2022-11-20_11h25.34.650,jpn_C01,2022.1.2,Linux x86_64,59.99520038,,,,,,,,,,,,,,,,,,,,,,,,,,,,,,,,,,,,,,,,,,,,,,,,,,,,,,プミ　ドキン　ホレト,right,10.253,0,0,0,0,1,,,,,,,,,,,,,,,,,,,,,,,,,,,
,,,,,,,,,R_3Rf41HmUdWO9jSZ,2022-11-20_11h25.34.650,jpn_C01,2022.1.2,Linux x86_64,59.99520038,,,,,,,,,,,,,CartoonStims/boxer_punch_artist_r.jpg,audio/pumidokisido.mp3,,,,,,,,,,,,,,,,,,,,,,,,,,,,,,,,,,,,,,,,,,,,,,,,0,11,11,11,1,プミ　ドキ　シド,,,,,,,,,,,,,,,,,,,,,
,,,,,,,,,R_3Rf41HmUdWO9jSZ,2022-11-20_11h25.34.650,jpn_C01,2022.1.2,Linux x86_64,59.99520038,,,,,,,,,,,,,,,,,,,,,,,,,,,,,,,,,,,,,,,,,,,,,,,,,,,,,,,,,,,,,,,,,,,,,space,1.0531,0,1,1,1,1,AffExposure.xlsx,"第二のトライアルの学習では、この言語で書かれた文を見ていただきます。引き続き注意して、 聞こえた音を復唱してください。


スペースキーを押してください。",1,AffFCT.xlsx,ここからクイズが始まります。 スクリーンに表示されるテキストに合う画像を選んでください。,AffTest.xlsx,1,次にここまで学んだことをアウトプットしていただきます。 表示される画像を描写していると思う単語を、テキストボックスにタイプしてください。 答えを提出したあとに正しい正解が少しの間画面に写ります。,1,"これで第二のトライアルが終了しました。 ここで休憩をとっていただいても構いません。

休憩が終わりましたら、 スペースキーを押して続きの学習を行いましょう。",,,
,,,,,,,,,R_3Rf41HmUdWO9jSZ,2022-11-20_11h25.34.650,jpn_C01,2022.1.2,Linux x86_64,59.99520038,space,2.0597,space,19.1058,0,0,0,12,1,トマ　ピク　シド　ホレト,,,CartoonStims/artist_point_chef_r_no.jpg,audio/tomapikusidohoreto.mp3,,,,,,,,,,,,,,,,,,,,,,,,,,,,,,,,,,,,,,,,,,,,,,,,,,,,,,,,,,,,,,,,,,,,,,,,,,
,,,,,,,,,R_3Rf41HmUdWO9jSZ,2022-11-20_11h25.34.650,jpn_C01,2022.1.2,Linux x86_64,59.99520038,,,space,20.092,0,1,1,6,1,ピク　セル　ムク　ピポ,,,CartoonStims/cowboy_kick_doctor_r_no.jpg,audio/pikuserumukupipo.mp3,,,,,,,,,,,,,,,,,,,,,,,,,,,,,,,,,,,,,,,,,,,,,,,,,,,,,,,,,,,,,,,,,,,,,,,,,,
,,,,,,,,,R_3Rf41HmUdWO9jSZ,2022-11-20_11h25.34.650,jpn_C01,2022.1.2,Linux x86_64,59.99520038,,,space,12.0466,0,2,2,30,1,パツ　ピク　ムク　シド,,,CartoonStims/cowboy_shoot_artist_r_no.jpg,audio/patsupikumukusido.mp3,,,,,,,,,,,,,,,,,,,,,,,,,,,,,,,,,,,,,,,,,,,,,,,,,,,,,,,,,,,,,,,,,,,,,,,,,,
,,,,,,,,,R_3Rf41HmUdWO9jSZ,2022-11-20_11h25.34.650,jpn_C01,2022.1.2,Linux x86_64,59.99520038,,,space,5.7394,0,3,3,20,1,トマ　ピク　ピポ　シド,,,CartoonStims/doctor_point_artist_r_no.jpg,audio/tomapikupiposido.mp3,,,,,,,,,,,,,,,,,,,,,,,,,,,,,,,,,,,,,,,,,,,,,,,,,,,,,,,,,,,,,,,,,,,,,,,,,,
,,,,,,,,,R_3Rf41HmUdWO9jSZ,2022-11-20_11h25.34.650,jpn_C01,2022.1.2,Linux x86_64,59.99520038,,,space,26.8159,0,4,4,19,1,ピク　トマ　ムク　シド,,,CartoonStims/cowboy_point_artist_r_no.jpg,audio/pikutomamukusido.mp3,,,,,,,,,,,,,,,,,,,,,,,,,,,,,,,,,,,,,,,,,,,,,,,,,,,,,,,,,,,,,,,,,,,,,,,,,,
,,,,,,,,,R_3Rf41HmUdWO9jSZ,2022-11-20_11h25.34.650,jpn_C01,2022.1.2,Linux x86_64,59.99520038,,,space,13.3973,0,5,5,3,1,セル　ピク　ルピン　ムク,,,CartoonStims/burglar_kick_cowboy_r_no.jpg,audio/serupikulupinmuku.mp3,,,,,,,,,,,,,,,,,,,,,,,,,,,,,,,,,,,,,,,,,,,,,,,,,,,,,,,,,,,,,,,,,,,,,,,,,,
,,,,,,,,,R_3Rf41HmUdWO9jSZ,2022-11-20_11h25.34.650,jpn_C01,2022.1.2,Linux x86_64,59.99520038,,,space,13.2752,0,6,6,46,1,ピク　プミ　ドキ　ムク,,,CartoonStims/boxer_punch_cowboy_r_no.jpg,audio/pikupumidokimuku.mp3,,,,,,,,,,,,,,,,,,,,,,,,,,,,,,,,,,,,,,,,,,,,,,,,,,,,,,,,,,,,,,,,,,,,,,,,,,
,,,,,,,,,R_3Rf41HmUdWO9jSZ,2022-11-20_11h25.34.650,jpn_C01,2022.1.2,Linux x86_64,59.99520038,,,space,16.5264,0,7,7,24,1,パツ　ピク　シド　ムク,,,CartoonStims/artist_shoot_cowboy_r_no.jpg,audio/patsupikusidomuku.mp3,,,,,,,,,,,,,,,,,,,,,,,,,,,,,,,,,,,,,,,,,,,,,,,,,,,,,,,,,,,,,,,,,,,,,,,,,,
,,,,,,,,,R_3Rf41HmUdWO9jSZ,2022-11-20_11h25.34.650,jpn_C01,2022.1.2,Linux x86_64,59.99520038,,,space,8.3293,0,8,8,5,1,セル　ピク　ホレト　ピポ,,,CartoonStims/chef_kick_doctor_r_no.jpg,audio/serupikuhoretopipo.mp3,,,,,,,,,,,,,,,,,,,,,,,,,,,,,,,,,,,,,,,,,,,,,,,,,,,,,,,,,,,,,,,,,,,,,,,,,,
,,,,,,,,,R_3Rf41HmUdWO9jSZ,2022-11-20_11h25.34.650,jpn_C01,2022.1.2,Linux x86_64,59.99520038,,,space,7.6397,0,9,9,41,1,プミ　ピク　ホレト　ルピン,,,CartoonStims/chef_punch_burglar_r_no.jpg,audio/pumipikuhoretolupin.mp3,,,,,,,,,,,,,,,,,,,,,,,,,,,,,,,,,,,,,,,,,,,,,,,,,,,,,,,,,,,,,,,,,,,,,,,,,,
,,,,,,,,,R_3Rf41HmUdWO9jSZ,2022-11-20_11h25.34.650,jpn_C01,2022.1.2,Linux x86_64,59.99520038,,,space,8.6259,0,10,10,9,1,セル　ピク　ピポ　シド,,,CartoonStims/doctor_kick_artist_r_no.jpg,audio/serupikupiposido.mp3,,,,,,,,,,,,,,,,,,,,,,,,,,,,,,,,,,,,,,,,,,,,,,,,,,,,,,,,,,,,,,,,,,,,,,,,,,
,,,,,,,,,R_3Rf41HmUdWO9jSZ,2022-11-20_11h25.34.650,jpn_C01,2022.1.2,Linux x86_64,59.99520038,,,space,8.0882,0,11,11,45,1,プミ　ピク　ピポ　ムク,,,CartoonStims/doctor_punch_cowboy_r_no.jpg,audio/pumipikupipomuku.mp3,,,,,,,,,,,,,,,,,,,,,,,,,,,,,,,,,,,,,,,,,,,,,,,,,,,,,,,,,,,,,,,,,,,,,,,,,,
,,,,,,,,,R_3Rf41HmUdWO9jSZ,2022-11-20_11h25.34.650,jpn_C01,2022.1.2,Linux x86_64,59.99520038,,,space,2.3525,0,12,12,14,1,トマ　ピク　ルピン　ムク,,,CartoonStims/burglar_point_cowboy_r_no.jpg,audio/tomapikulupinmuku.mp3,,,,,,,,,,,,,,,,,,,,,,,,,,,,,,,,,,,,,,,,,,,,,,,,,,,,,,,,,,,,,,,,,,,,,,,,,,
,,,,,,,,,R_3Rf41HmUdWO9jSZ,2022-11-20_11h25.34.650,jpn_C01,2022.1.2,Linux x86_64,59.99520038,,,space,14.0079,0,13,13,2,1,ピク　セル　ルピン　ホレト,,,CartoonStims/burglar_kick_chef_r_no.jpg,audio/pikuserulupinhoreto.mp3,,,,,,,,,,,,,,,,,,,,,,,,,,,,,,,,,,,,,,,,,,,,,,,,,,,,,,,,,,,,,,,,,,,,,,,,,,
,,,,,,,,,R_3Rf41HmUdWO9jSZ,2022-11-20_11h25.34.650,jpn_C01,2022.1.2,Linux x86_64,59.99520038,,,space,11.328,0,14,14,8,1,ピク　セル　ピポ　ドキ,,,CartoonStims/doctor_kick_boxer_r_no.jpg,audio/pikuserupipodoki.mp3,,,,,,,,,,,,,,,,,,,,,,,,,,,,,,,,,,,,,,,,,,,,,,,,,,,,,,,,,,,,,,,,,,,,,,,,,,
,,,,,,,,,R_3Rf41HmUdWO9jSZ,2022-11-20_11h25.34.650,jpn_C01,2022.1.2,Linux x86_64,59.99520038,,,space,8.7386,0,15,15,38,1,ピク　プミ　ルピン　ドキ,,,CartoonStims/burglar_punch_boxer_r_no.jpg,audio/pikupumilupindoki.mp3,,,,,,,,,,,,,,,,,,,,,,,,,,,,,,,,,,,,,,,,,,,,,,,,,,,,,,,,,,,,,,,,,,,,,,,,,,
,,,,,,,,,R_3Rf41HmUdWO9jSZ,2022-11-20_11h25.34.650,jpn_C01,2022.1.2,Linux x86_64,59.99520038,,,space,12.9066,0,16,16,42,1,ピク　プミ　ムク　ルピン,,,CartoonStims/cowboy_punch_burglar_r_no.jpg,audio/pikupumimukulupin.mp3,,,,,,,,,,,,,,,,,,,,,,,,,,,,,,,,,,,,,,,,,,,,,,,,,,,,,,,,,,,,,,,,,,,,,,,,,,
,,,,,,,,,R_3Rf41HmUdWO9jSZ,2022-11-20_11h25.34.650,jpn_C01,2022.1.2,Linux x86_64,59.99520038,,,space,4.7731,0,17,17,44,1,ピク　プミ　ピポ　ホレト,,,CartoonStims/doctor_punch_chef_r_no.jpg,audio/pikupumipipohoreto.mp3,,,,,,,,,,,,,,,,,,,,,,,,,,,,,,,,,,,,,,,,,,,,,,,,,,,,,,,,,,,,,,,,,,,,,,,,,,
,,,,,,,,,R_3Rf41HmUdWO9jSZ,2022-11-20_11h25.34.650,jpn_C01,2022.1.2,Linux x86_64,59.99520038,,,space,1.872,0,18,18,32,1,パツ　ピク　ピポ　ルピン,,,CartoonStims/doctor_shoot_burglar_r_no.jpg,audio/patsupikupipolupin.mp3,,,,,,,,,,,,,,,,,,,,,,,,,,,,,,,,,,,,,,,,,,,,,,,,,,,,,,,,,,,,,,,,,,,,,,,,,,
,,,,,,,,,R_3Rf41HmUdWO9jSZ,2022-11-20_11h25.34.650,jpn_C01,2022.1.2,Linux x86_64,59.99520038,,,space,14.0423,0,19,19,25,1,ピク　パツ　シド　ピポ,,,CartoonStims/artist_shoot_doctor_r_no.jpg,audio/pikupatsusidopipo.mp3,,,,,,,,,,,,,,,,,,,,,,,,,,,,,,,,,,,,,,,,,,,,,,,,,,,,,,,,,,,,,,,,,,,,,,,,,,
,,,,,,,,,R_3Rf41HmUdWO9jSZ,2022-11-20_11h25.34.650,jpn_C01,2022.1.2,Linux x86_64,59.99520038,,,space,5.2053,0,20,20,4,1,ピク　セル　ホレト　ムク,,,CartoonStims/chef_kick_cowboy_r_no.jpg,audio/pikuseruhoretomuku.mp3,,,,,,,,,,,,,,,,,,,,,,,,,,,,,,,,,,,,,,,,,,,,,,,,,,,,,,,,,,,,,,,,,,,,,,,,,,
,,,,,,,,,R_3Rf41HmUdWO9jSZ,2022-11-20_11h25.34.650,jpn_C01,2022.1.2,Linux x86_64,59.99520038,,,space,2.6197,0,21,21,13,1,ピク　トマ　シド　ムク,,,CartoonStims/artist_point_cowboy_r_no.jpg,audio/pikutomasidomuku.mp3,,,,,,,,,,,,,,,,,,,,,,,,,,,,,,,,,,,,,,,,,,,,,,,,,,,,,,,,,,,,,,,,,,,,,,,,,,
,,,,,,,,,R_3Rf41HmUdWO9jSZ,2022-11-20_11h25.34.650,jpn_C01,2022.1.2,Linux x86_64,59.99520038,,,space,4.157,0,22,22,40,1,ピク　プミ　ホレト　シド,,,CartoonStims/chef_punch_artist_r_no.jpg,audio/pikupumihoretosido.mp3,,,,,,,,,,,,,,,,,,,,,,,,,,,,,,,,,,,,,,,,,,,,,,,,,,,,,,,,,,,,,,,,,,,,,,,,,,
,,,,,,,,,R_3Rf41HmUdWO9jSZ,2022-11-20_11h25.34.650,jpn_C01,2022.1.2,Linux x86_64,59.99520038,,,space,5.5698,0,23,23,26,1,パツ　ピク　ルピン　ピポ,,,CartoonStims/burglar_shoot_doctor_r_no.jpg,audio/patsupikulupinpipo.mp3,,,,,,,,,,,,,,,,,,,,,,,,,,,,,,,,,,,,,,,,,,,,,,,,,,,,,,,,,,,,,,,,,,,,,,,,,,
,,,,,,,,,R_3Rf41HmUdWO9jSZ,2022-11-20_11h25.34.650,jpn_C01,2022.1.2,Linux x86_64,59.99520038,,,space,7.1439,0,24,24,37,1,プミ　ピク　シド　ドキ,,,CartoonStims/artist_punch_boxer_r_no.jpg,audio/pumipikusidodoki.mp3,,,,,,,,,,,,,,,,,,,,,,,,,,,,,,,,,,,,,,,,,,,,,,,,,,,,,,,,,,,,,,,,,,,,,,,,,,
,,,,,,,,,R_3Rf41HmUdWO9jSZ,2022-11-20_11h25.34.650,jpn_C01,2022.1.2,Linux x86_64,59.99520038,,,space,2.0374,0,25,25,43,1,プミ　ピク　ムク　ホレト,,,CartoonStims/cowboy_punch_chef_r_no.jpg,audio/pumipikumukuhoreto.mp3,,,,,,,,,,,,,,,,,,,,,,,,,,,,,,,,,,,,,,,,,,,,,,,,,,,,,,,,,,,,,,,,,,,,,,,,,,
,,,,,,,,,R_3Rf41HmUdWO9jSZ,2022-11-20_11h25.34.650,jpn_C01,2022.1.2,Linux x86_64,59.99520038,,,space,3.0372,0,26,26,0,1,ピク　セル　シド　ルピン,,,CartoonStims/artist_kick_burglar_r_no.jpg,audio/pikuserusidolupin.mp3,,,,,,,,,,,,,,,,,,,,,,,,,,,,,,,,,,,,,,,,,,,,,,,,,,,,,,,,,,,,,,,,,,,,,,,,,,
,,,,,,,,,R_3Rf41HmUdWO9jSZ,2022-11-20_11h25.34.650,jpn_C01,2022.1.2,Linux x86_64,59.99520038,,,space,1.667,0,27,27,34,1,パツ　ピク　ドキ　ホレト,,,CartoonStims/boxer_shoot_chef_r_no.jpg,audio/patsupikudokihoreto.mp3,,,,,,,,,,,,,,,,,,,,,,,,,,,,,,,,,,,,,,,,,,,,,,,,,,,,,,,,,,,,,,,,,,,,,,,,,,
,,,,,,,,,R_3Rf41HmUdWO9jSZ,2022-11-20_11h25.34.650,jpn_C01,2022.1.2,Linux x86_64,59.99520038,,,space,9.6737,0,28,28,29,1,ピク　パツ　ホレト　シド,,,CartoonStims/chef_shoot_artist_r_no.jpg,audio/pikupatsuhoretosido.mp3,,,,,,,,,,,,,,,,,,,,,,,,,,,,,,,,,,,,,,,,,,,,,,,,,,,,,,,,,,,,,,,,,,,,,,,,,,
,,,,,,,,,R_3Rf41HmUdWO9jSZ,2022-11-20_11h25.34.650,jpn_C01,2022.1.2,Linux x86_64,59.99520038,,,space,9.8087,0,29,29,16,1,トマ　ピク　ホレト　ピポ,,,CartoonStims/chef_point_doctor_r_no.jpg,audio/tomapikuhoretopipo.mp3,,,,,,,,,,,,,,,,,,,,,,,,,,,,,,,,,,,,,,,,,,,,,,,,,,,,,,,,,,,,,,,,,,,,,,,,,,
,,,,,,,,,R_3Rf41HmUdWO9jSZ,2022-11-20_11h25.34.650,jpn_C01,2022.1.2,Linux x86_64,59.99520038,,,space,16.7077,0,30,30,33,1,ピク　パツ　ピポ　ホレト,,,CartoonStims/doctor_shoot_chef_r_no.jpg,audio/pikupatsupipohoreto.mp3,,,,,,,,,,,,,,,,,,,,,,,,,,,,,,,,,,,,,,,,,,,,,,,,,,,,,,,,,,,,,,,,,,,,,,,,,,
,,,,,,,,,R_3Rf41HmUdWO9jSZ,2022-11-20_11h25.34.650,jpn_C01,2022.1.2,Linux x86_64,59.99520038,,,space,3.3911,0,31,31,47,1,プミ　ピク　ドキ　ピポ,,,CartoonStims/boxer_punch_doctor_r_no.jpg,audio/pumipikudokipipo.mp3,,,,,,,,,,,,,,,,,,,,,,,,,,,,,,,,,,,,,,,,,,,,,,,,,,,,,,,,,,,,,,,,,,,,,,,,,,
,,,,,,,,,R_3Rf41HmUdWO9jSZ,2022-11-20_11h25.34.650,jpn_C01,2022.1.2,Linux x86_64,59.99520038,,,space,16.3268,0,32,32,17,1,ピク　トマ　ホレト　ドキ,,,CartoonStims/chef_point_boxer_r_no.jpg,audio/pikutomahoretodoki.mp3,,,,,,,,,,,,,,,,,,,,,,,,,,,,,,,,,,,,,,,,,,,,,,,,,,,,,,,,,,,,,,,,,,,,,,,,,,
,,,,,,,,,R_3Rf41HmUdWO9jSZ,2022-11-20_11h25.34.650,jpn_C01,2022.1.2,Linux x86_64,59.99520038,,,space,10.9389,0,33,33,36,1,ピク　プミ　シド　ピポ,,,CartoonStims/artist_punch_doctor_r_no.jpg,audio/pikupumisidopipo.mp3,,,,,,,,,,,,,,,,,,,,,,,,,,,,,,,,,,,,,,,,,,,,,,,,,,,,,,,,,,,,,,,,,,,,,,,,,,
,,,,,,,,,R_3Rf41HmUdWO9jSZ,2022-11-20_11h25.34.650,jpn_C01,2022.1.2,Linux x86_64,59.99520038,,,space,5.1894,0,34,34,39,1,プミ　ピク　ルピン　シド,,,CartoonStims/burglar_punch_artist_r_no.jpg,audio/pumipikulupinsido.mp3,,,,,,,,,,,,,,,,,,,,,,,,,,,,,,,,,,,,,,,,,,,,,,,,,,,,,,,,,,,,,,,,,,,,,,,,,,
,,,,,,,,,R_3Rf41HmUdWO9jSZ,2022-11-20_11h25.34.650,jpn_C01,2022.1.2,Linux x86_64,59.99520038,,,space,4.7957,0,35,35,22,1,トマ　ピク　ドキ　ルピン,,,CartoonStims/boxer_point_burglar_r_no.jpg,audio/tomapikudokilupin.mp3,,,,,,,,,,,,,,,,,,,,,,,,,,,,,,,,,,,,,,,,,,,,,,,,,,,,,,,,,,,,,,,,,,,,,,,,,,
,,,,,,,,,R_3Rf41HmUdWO9jSZ,2022-11-20_11h25.34.650,jpn_C01,2022.1.2,Linux x86_64,59.99520038,,,space,16.3735,0,36,36,15,1,ピク　トマ　ルピン　ピポ,,,CartoonStims/burglar_point_doctor_r_no.jpg,audio/pikutomalupinpipo.mp3,,,,,,,,,,,,,,,,,,,,,,,,,,,,,,,,,,,,,,,,,,,,,,,,,,,,,,,,,,,,,,,,,,,,,,,,,,
,,,,,,,,,R_3Rf41HmUdWO9jSZ,2022-11-20_11h25.34.650,jpn_C01,2022.1.2,Linux x86_64,59.99520038,,,space,8.8768,0,37,37,28,1,パツ　ピク　ホレト　ドキ,,,CartoonStims/chef_shoot_boxer_r_no.jpg,audio/patsupikuhoretodoki.mp3,,,,,,,,,,,,,,,,,,,,,,,,,,,,,,,,,,,,,,,,,,,,,,,,,,,,,,,,,,,,,,,,,,,,,,,,,,
,,,,,,,,,R_3Rf41HmUdWO9jSZ,2022-11-20_11h25.34.650,jpn_C01,2022.1.2,Linux x86_64,59.99520038,,,space,5.7433,0,38,38,31,1,ピク　パツ　ムク　ルピン,,,CartoonStims/cowboy_shoot_burglar_r_no.jpg,audio/pikupatsumukulupin.mp3,,,,,,,,,,,,,,,,,,,,,,,,,,,,,,,,,,,,,,,,,,,,,,,,,,,,,,,,,,,,,,,,,,,,,,,,,,
,,,,,,,,,R_3Rf41HmUdWO9jSZ,2022-11-20_11h25.34.650,jpn_C01,2022.1.2,Linux x86_64,59.99520038,,,space,10.6129,0,39,39,35,1,ピク　パツ　ドキ　ムク,,,CartoonStims/boxer_shoot_cowboy_r_no.jpg,audio/pikupatsudokimuku.mp3,,,,,,,,,,,,,,,,,,,,,,,,,,,,,,,,,,,,,,,,,,,,,,,,,,,,,,,,,,,,,,,,,,,,,,,,,,
,,,,,,,,,R_3Rf41HmUdWO9jSZ,2022-11-20_11h25.34.650,jpn_C01,2022.1.2,Linux x86_64,59.99520038,,,space,3.3748,0,40,40,27,1,ピク　パツ　ルピン　ドキ,,,CartoonStims/burglar_shoot_boxer_r_no.jpg,audio/pikupatsulupindoki.mp3,,,,,,,,,,,,,,,,,,,,,,,,,,,,,,,,,,,,,,,,,,,,,,,,,,,,,,,,,,,,,,,,,,,,,,,,,,
,,,,,,,,,R_3Rf41HmUdWO9jSZ,2022-11-20_11h25.34.650,jpn_C01,2022.1.2,Linux x86_64,59.99520038,,,space,9.4485,0,41,41,11,1,セル　ピク　ドキ　ルピン,,,CartoonStims/boxer_kick_burglar_r_no.jpg,audio/serupikudokilupin.mp3,,,,,,,,,,,,,,,,,,,,,,,,,,,,,,,,,,,,,,,,,,,,,,,,,,,,,,,,,,,,,,,,,,,,,,,,,,
,,,,,,,,,R_3Rf41HmUdWO9jSZ,2022-11-20_11h25.34.650,jpn_C01,2022.1.2,Linux x86_64,59.99520038,,,space,5.0878,0,42,42,18,1,トマ　ピク　ムク　ドキ,,,CartoonStims/cowboy_point_boxer_r_no.jpg,audio/tomapikumukudoki.mp3,,,,,,,,,,,,,,,,,,,,,,,,,,,,,,,,,,,,,,,,,,,,,,,,,,,,,,,,,,,,,,,,,,,,,,,,,,
,,,,,,,,,R_3Rf41HmUdWO9jSZ,2022-11-20_11h25.34.650,jpn_C01,2022.1.2,Linux x86_64,59.99520038,,,space,9.1898,0,43,43,10,1,ピク　セル　ドキ　シド,,,CartoonStims/boxer_kick_artist_r_no.jpg,audio/pikuserudokisido.mp3,,,,,,,,,,,,,,,,,,,,,,,,,,,,,,,,,,,,,,,,,,,,,,,,,,,,,,,,,,,,,,,,,,,,,,,,,,
,,,,,,,,,R_3Rf41HmUdWO9jSZ,2022-11-20_11h25.34.650,jpn_C01,2022.1.2,Linux x86_64,59.99520038,,,space,8.406,0,44,44,23,1,ピク　トマ　ドキ　ホレト,,,CartoonStims/boxer_point_chef_r_no.jpg,audio/pikutomadokihoreto.mp3,,,,,,,,,,,,,,,,,,,,,,,,,,,,,,,,,,,,,,,,,,,,,,,,,,,,,,,,,,,,,,,,,,,,,,,,,,
,,,,,,,,,R_3Rf41HmUdWO9jSZ,2022-11-20_11h25.34.650,jpn_C01,2022.1.2,Linux x86_64,59.99520038,,,space,14.3078,0,45,45,7,1,セル　ピク　ムク　ドキ,,,CartoonStims/cowboy_kick_boxer_r_no.jpg,audio/serupikumukudoki.mp3,,,,,,,,,,,,,,,,,,,,,,,,,,,,,,,,,,,,,,,,,,,,,,,,,,,,,,,,,,,,,,,,,,,,,,,,,,
,,,,,,,,,R_3Rf41HmUdWO9jSZ,2022-11-20_11h25.34.650,jpn_C01,2022.1.2,Linux x86_64,59.99520038,,,space,5.0706,0,46,46,21,1,ピク　トマ　ピポ　ルピン,,,CartoonStims/doctor_point_burglar_r_no.jpg,audio/pikutomapipolupin.mp3,,,,,,,,,,,,,,,,,,,,,,,,,,,,,,,,,,,,,,,,,,,,,,,,,,,,,,,,,,,,,,,,,,,,,,,,,,
,,,,,,,,,R_3Rf41HmUdWO9jSZ,2022-11-20_11h25.34.650,jpn_C01,2022.1.2,Linux x86_64,59.99520038,,,space,14.6157,0,47,47,1,1,セル　ピク　シド　ホレト,,,CartoonStims/artist_kick_chef_r_no.jpg,audio/serupikusidohoreto.mp3,,,,,,,,,,,,,,,,,,,,,,,,,,,,,,,,,,,,,,,,,,,,,,,,,,,,,,,,,,,,,,,,,,,,,,,,,,
,,,,,,,,,R_3Rf41HmUdWO9jSZ,2022-11-20_11h25.34.650,jpn_C01,2022.1.2,Linux x86_64,59.99520038,,,,,,,,,,,,,,,space,0.4035,left,0,41.2442,,,,,,,,,,,,,,,,,,,,,,,0,0,0,0,1,,,,,,,,,,,,,,,,,,,,,,,,,,,,,,,,,,,,,,,,,,
,,,,,,,,,R_3Rf41HmUdWO9jSZ,2022-11-20_11h25.34.650,jpn_C01,2022.1.2,Linux x86_64,59.99520038,,,,,,,,,,,,,,,,,,,,,,,,,0,0,0,7,1,CartoonStims/cowboy_point_chef_r.jpg,ピク　トマ　ムク　ホレト,CartoonStims/cowboy_kick_chef_r.jpg,right,CartoonStims/cowboy_kick_chef_r.jpg,audio/pikutomamukuhoreto.mp3,"残念！ こちらが正しい画像です。

否定文は起きていないことを示しているのを思い出してください。",,,,,,,,,,,,,,,,,,,,,,,,,,,,,,,,,,,,,,,,,,,,,,,,,,,,
,,,,,,,,,R_3Rf41HmUdWO9jSZ,2022-11-20_11h25.34.650,jpn_C01,2022.1.2,Linux x86_64,59.99520038,,,,,,,,,,,,,,,,,right,1,29.9444,0,0,0,0,1,,,,,,,,,,,,,,,,,,,,,,,,,,,,,,,,,,,,,,,,,,,,,,,,,,,,,,,,,,,,,,,,
,,,,,,,,,R_3Rf41HmUdWO9jSZ,2022-11-20_11h25.34.650,jpn_C01,2022.1.2,Linux x86_64,59.99520038,,,,,,,,,,,,,,,,,,,,,,,,,0,1,1,3,1,CartoonStims/chef_kick_artist_r.jpg,ピク　セル　ホレト　シド,CartoonStims/chef_point_artist_r.jpg,right,CartoonStims/chef_point_artist_r.jpg,audio/pikuseruhoretosido.mp3,"残念！ こちらが正しい画像です。

否定文は起きていないことを示しているのを思い出してください。",,,,,,,,,,,,,,,,,,,,,,,,,,,,,,,,,,,,,,,,,,,,,,,,,,,,
,,,,,,,,,R_3Rf41HmUdWO9jSZ,2022-11-20_11h25.34.650,jpn_C01,2022.1.2,Linux x86_64,59.99520038,,,,,,,,,,,,,,,,,left,1,13.7389,,,,,,,,,,,,,,,,,,0,0,0,0,1,,,,,,,,,,,,,,,,,,,,,,,,,,,,,,,,,,,,,,,,,,,,,,,
,,,,,,,,,R_3Rf41HmUdWO9jSZ,2022-11-20_11h25.34.650,jpn_C01,2022.1.2,Linux x86_64,59.99520038,,,,,,,,,,,,,,,,,,,,,,,,,0,2,2,10,1,CartoonStims/doctor_punch_cowboy_r.jpg,ピク　パツ　ピポ　ムク,CartoonStims/doctor_shoot_cowboy_r.jpg,left,CartoonStims/doctor_punch_cowboy_r.jpg,audio/pikupatsupipomuku.mp3,"残念！ こちらが正しい画像です。

否定文は起きていないことを示しているのを思い出してください。",,,,,,,,,,,,,,,,,,,,,,,,,,,,,,,,,,,,,,,,,,,,,,,,,,,,
,,,,,,,,,R_3Rf41HmUdWO9jSZ,2022-11-20_11h25.34.650,jpn_C01,2022.1.2,Linux x86_64,59.99520038,,,,,,,,,,,,,,,,,left,1,7.5234,,,,,,,,,,,,,,,,,,0,0,0,0,1,,,,,,,,,,,,,,,,,,,,,,,,,,,,,,,,,,,,,,,,,,,,,,,
,,,,,,,,,R_3Rf41HmUdWO9jSZ,2022-11-20_11h25.34.650,jpn_C01,2022.1.2,Linux x86_64,59.99520038,,,,,,,,,,,,,,,,,,,,,,,,,0,3,3,6,1,CartoonStims/artist_shoot_boxer_r.jpg,トマ　ピク　シド　ドキ,CartoonStims/artist_point_boxer_r.jpg,left,CartoonStims/artist_shoot_boxer_r.jpg,audio/tomapikusidodoki.mp3,"残念！ こちらが正しい画像です。

否定文は起きていないことを示しているのを思い出してください。",,,,,,,,,,,,,,,,,,,,,,,,,,,,,,,,,,,,,,,,,,,,,,,,,,,,
,,,,,,,,,R_3Rf41HmUdWO9jSZ,2022-11-20_11h25.34.650,jpn_C01,2022.1.2,Linux x86_64,59.99520038,,,,,,,,,,,,,,,,,left,1,5.5374,,,,,,,,,,,,,,,,,,0,0,0,0,1,,,,,,,,,,,,,,,,,,,,,,,,,,,,,,,,,,,,,,,,,,,,,,,
,,,,,,,,,R_3Rf41HmUdWO9jSZ,2022-11-20_11h25.34.650,jpn_C01,2022.1.2,Linux x86_64,59.99520038,,,,,,,,,,,,,,,,,,,,,,,,,0,4,4,0,1,CartoonStims/artist_shoot_burglar_r.jpg,ピク　プミ　シド　ルピン,CartoonStims/artist_punch_burglar_r.jpg,left,CartoonStims/artist_shoot_burglar_r.jpg,audio/pikupumisidolupin.mp3,"残念！ こちらが正しい画像です。

否定文は起きていないことを示しているのを思い出してください。",,,,,,,,,,,,,,,,,,,,,,,,,,,,,,,,,,,,,,,,,,,,,,,,,,,,
,,,,,,,,,R_3Rf41HmUdWO9jSZ,2022-11-20_11h25.34.650,jpn_C01,2022.1.2,Linux x86_64,59.99520038,,,,,,,,,,,,,,,,,right,1,21.7432,0,0,0,0,1,,,,,,,,,,,,,,,,,,,,,,,,,,,,,,,,,,,,,,,,,,,,,,,,,,,,,,,,,,,,,,,,
,,,,,,,,,R_3Rf41HmUdWO9jSZ,2022-11-20_11h25.34.650,jpn_C01,2022.1.2,Linux x86_64,59.99520038,,,,,,,,,,,,,,,,,,,,,,,,,0,5,5,1,1,CartoonStims/chef_punch_cowboy_r.jpg,プミ　ピク　ホレト　ムク,CartoonStims/chef_kick_cowboy_r.jpg,right,CartoonStims/chef_kick_cowboy_r.jpg,audio/pumipikuhoretomuku.mp3,"残念！ こちらが正しい画像です。

否定文は起きていないことを示しているのを思い出してください。",,,,,,,,,,,,,,,,,,,,,,,,,,,,,,,,,,,,,,,,,,,,,,,,,,,,
,,,,,,,,,R_3Rf41HmUdWO9jSZ,2022-11-20_11h25.34.650,jpn_C01,2022.1.2,Linux x86_64,59.99520038,,,,,,,,,,,,,,,,,right,1,13.6566,0,0,0,0,1,,,,,,,,,,,,,,,,,,,,,,,,,,,,,,,,,,,,,,,,,,,,,,,,,,,,,,,,,,,,,,,,
,,,,,,,,,R_3Rf41HmUdWO9jSZ,2022-11-20_11h25.34.650,jpn_C01,2022.1.2,Linux x86_64,59.99520038,,,,,,,,,,,,,,,,,,,,,,,,,0,6,6,9,1,CartoonStims/boxer_shoot_doctor_r.jpg,パツ　ピク　ドキ　ピポ,CartoonStims/boxer_point_doctor_r.jpg,right,CartoonStims/boxer_point_doctor_r.jpg,audio/patsupikudokipipo.mp3,"残念！ こちらが正しい画像です。

否定文は起きていないことを示しているのを思い出してください。",,,,,,,,,,,,,,,,,,,,,,,,,,,,,,,,,,,,,,,,,,,,,,,,,,,,
,,,,,,,,,R_3Rf41HmUdWO9jSZ,2022-11-20_11h25.34.650,jpn_C01,2022.1.2,Linux x86_64,59.99520038,,,,,,,,,,,,,,,,,left,1,13.5441,,,,,,,,,,,,,,,,,,0,0,0,0,1,,,,,,,,,,,,,,,,,,,,,,,,,,,,,,,,,,,,,,,,,,,,,,,
,,,,,,,,,R_3Rf41HmUdWO9jSZ,2022-11-20_11h25.34.650,jpn_C01,2022.1.2,Linux x86_64,59.99520038,,,,,,,,,,,,,,,,,,,,,,,,,0,7,7,4,1,CartoonStims/burglar_shoot_doctor_r.jpg,セル　ピク　ルピン　ピポ,CartoonStims/burglar_kick_doctor_r.jpg,left,CartoonStims/burglar_shoot_doctor_r.jpg,audio/serupikulupinpipo.mp3,"残念！ こちらが正しい画像です。

否定文は起きていないことを示しているのを思い出してください。",,,,,,,,,,,,,,,,,,,,,,,,,,,,,,,,,,,,,,,,,,,,,,,,,,,,
,,,,,,,,,R_3Rf41HmUdWO9jSZ,2022-11-20_11h25.34.650,jpn_C01,2022.1.2,Linux x86_64,59.99520038,,,,,,,,,,,,,,,,,right,1,4.1617,0,0,0,0,1,,,,,,,,,,,,,,,,,,,,,,,,,,,,,,,,,,,,,,,,,,,,,,,,,,,,,,,,,,,,,,,,
,,,,,,,,,R_3Rf41HmUdWO9jSZ,2022-11-20_11h25.34.650,jpn_C01,2022.1.2,Linux x86_64,59.99520038,,,,,,,,,,,,,,,,,,,,,,,,,0,8,8,5,1,CartoonStims/boxer_kick_cowboy_r.jpg,ピク　セル　ドキ　ムク,CartoonStims/boxer_punch_cowboy_r.jpg,right,CartoonStims/boxer_punch_cowboy_r.jpg,audio/pikuserudokimuku.mp3,"残念！ こちらが正しい画像です。

否定文は起きていないことを示しているのを思い出してください。",,,,,,,,,,,,,,,,,,,,,,,,,,,,,,,,,,,,,,,,,,,,,,,,,,,,
,,,,,,,,,R_3Rf41HmUdWO9jSZ,2022-11-20_11h25.34.650,jpn_C01,2022.1.2,Linux x86_64,59.99520038,,,,,,,,,,,,,,,,,left,1,5.5967,,,,,,,,,,,,,,,,,,0,0,0,0,1,,,,,,,,,,,,,,,,,,,,,,,,,,,,,,,,,,,,,,,,,,,,,,,
,,,,,,,,,R_3Rf41HmUdWO9jSZ,2022-11-20_11h25.34.650,jpn_C01,2022.1.2,Linux x86_64,59.99520038,,,,,,,,,,,,,,,,,,,,,,,,,0,9,9,2,1,CartoonStims/doctor_point_boxer_r.jpg,ピク　プミ　ピポ　ドキ,CartoonStims/doctor_punch_boxer_r.jpg,left,CartoonStims/doctor_point_boxer_r.jpg,audio/pikupumipipodoki.mp3,"残念！ こちらが正しい画像です。

否定文は起きていないことを示しているのを思い出してください。",,,,,,,,,,,,,,,,,,,,,,,,,,,,,,,,,,,,,,,,,,,,,,,,,,,,
,,,,,,,,,R_3Rf41HmUdWO9jSZ,2022-11-20_11h25.34.650,jpn_C01,2022.1.2,Linux x86_64,59.99520038,,,,,,,,,,,,,,,,,right,1,1.3723,0,0,0,0,1,,,,,,,,,,,,,,,,,,,,,,,,,,,,,,,,,,,,,,,,,,,,,,,,,,,,,,,,,,,,,,,,
,,,,,,,,,R_3Rf41HmUdWO9jSZ,2022-11-20_11h25.34.650,jpn_C01,2022.1.2,Linux x86_64,59.99520038,,,,,,,,,,,,,,,,,,,,,,,,,0,10,10,11,1,CartoonStims/chef_shoot_burglar_r.jpg,パツ　ピク　ホレト　ルピン,CartoonStims/chef_kick_burglar_r.jpg,right,CartoonStims/chef_kick_burglar_r.jpg,audio/patsupikuhoretolupin.mp3,"残念！ こちらが正しい画像です。

否定文は起きていないことを示しているのを思い出してください。",,,,,,,,,,,,,,,,,,,,,,,,,,,,,,,,,,,,,,,,,,,,,,,,,,,,
,,,,,,,,,R_3Rf41HmUdWO9jSZ,2022-11-20_11h25.34.650,jpn_C01,2022.1.2,Linux x86_64,59.99520038,,,,,,,,,,,,,,,,,left,1,15.2918,,,,,,,,,,,,,,,,,,0,0,0,0,1,,,,,,,,,,,,,,,,,,,,,,,,,,,,,,,,,,,,,,,,,,,,,,,
,,,,,,,,,R_3Rf41HmUdWO9jSZ,2022-11-20_11h25.34.650,jpn_C01,2022.1.2,Linux x86_64,59.99520038,,,,,,,,,,,,,,,,,,,,,,,,,0,11,11,8,1,CartoonStims/burglar_punch_artist_r.jpg,トマ　ピク　ルピン　シド,CartoonStims/burglar_point_artist_r.jpg,left,CartoonStims/burglar_punch_artist_r.jpg,audio/tomapikulupinsido.mp3,"残念！ こちらが正しい画像です。

否定文は起きていないことを示しているのを思い出してください。",,,,,,,,,,,,,,,,,,,,,,,,,,,,,,,,,,,,,,,,,,,,,,,,,,,,
,,,,,,,,,R_3Rf41HmUdWO9jSZ,2022-11-20_11h25.34.650,jpn_C01,2022.1.2,Linux x86_64,59.99520038,,,,,,,,,,,,,CartoonStims/chef_point_cowboy_r_no.jpg,,,,,,,,,,,,,,,,,,,,,,,,,,,,,,,,,,,,,,,space,7.0114,トマ　ピク　ホレト　ムク,right,16.3878,,,,,,0,0,0,8,1,,,,,,,,,,,,,,,,,,,,ピク　トマ　ホレト　ムク,トマ　ピク　ホレト　ムク,1
,,,,,,,,,R_3Rf41HmUdWO9jSZ,2022-11-20_11h25.34.650,jpn_C01,2022.1.2,Linux x86_64,59.99520038,,,,,,,,,,,,,CartoonStims/cowboy_kick_chef_r_no.jpg,,,,,,,,,,,,,,,,,,,,,,,,,,,,,,,,,,,,,,,,,ピク　ムク　ホレト,right,30.6752,,,,,,0,1,1,3,1,,,,,,,,,,,,,,,,,,,,ピク　セル　ムク　ホレト,セル　ピク　ムク　ホレト,1
,,,,,,,,,R_3Rf41HmUdWO9jSZ,2022-11-20_11h25.34.650,jpn_C01,2022.1.2,Linux x86_64,59.99520038,,,,,,,,,,,,,CartoonStims/burglar_punch_doctor_r_no.jpg,,,,,,,,,,,,,,,,,,,,,,,,,,,,,,,,,,,,,,,,,,right,0.0762,,,,,,0,2,2,19,1,,,,,,,,,,,,,,,,,,,,ピク　プミ　ルピン　ピポ,プミ　ピク　ルピン　ピポ,1
,,,,,,,,,R_3Rf41HmUdWO9jSZ,2022-11-20_11h25.34.650,jpn_C01,2022.1.2,Linux x86_64,59.99520038,,,,,,,,,,,,,CartoonStims/cowboy_punch_artist_r_no.jpg,,,,,,,,,,,,,,,,,,,,,,,,,,,,,,,,,,,,,,,,,,right,0.1052,,,,,,0,3,3,21,1,,,,,,,,,,,,,,,,,,,,ピク　プミ　ムク　シド,プミ　ピク　ムク　シド,1
,,,,,,,,,R_3Rf41HmUdWO9jSZ,2022-11-20_11h25.34.650,jpn_C01,2022.1.2,Linux x86_64,59.99520038,,,,,,,,,,,,,CartoonStims/boxer_punch_artist_r.jpg,,,,,,,,,,,,,,,,,,,,,,,,,,,,,,,,,,,,,,,,,ピク　プミ　ドキ　ホレト,right,41.4813,,,,,,0,4,4,35,1,,,,,,,,,,,,,,,,,,,,プミ　ドキ　シド,プミ　ドキ　シド,0
,,,,,,,,,R_3Rf41HmUdWO9jSZ,2022-11-20_11h25.34.650,jpn_C01,2022.1.2,Linux x86_64,59.99520038,,,,,,,,,,,,,CartoonStims/artist_punch_cowboy_r_no.jpg,,,,,,,,,,,,,,,,,,,,,,,,,,,,,,,,,,,,,,,,,ピク　プミ　ホレト　ムク,right,35.4108,,,,,,0,5,5,18,1,,,,,,,,,,,,,,,,,,,,ピク　プミ　シド　ムク,プミ　ピク　シド　ムク,1
,,,,,,,,,R_3Rf41HmUdWO9jSZ,2022-11-20_11h25.34.650,jpn_C01,2022.1.2,Linux x86_64,59.99520038,,,,,,,,,,,,,CartoonStims/burglar_point_chef_r_no.jpg,,,,,,,,,,,,,,,,,,,,,,,,,,,,,,,,,,,,,,,,,トマ　ピク　ルピン　ホルト,right,54.4937,,,,,,0,6,6,7,1,,,,,,,,,,,,,,,,,,,,ピク　トマ　ルピン　ホレト,トマ　ピク　ルピン　ホレト,1
,,,,,,,,,R_3Rf41HmUdWO9jSZ,2022-11-20_11h25.34.650,jpn_C01,2022.1.2,Linux x86_64,59.99520038,,,,,,,,,,,,,CartoonStims/burglar_shoot_cowboy_r_no.jpg,,,,,,,,,,,,,,,,,,,,,,,,,,,,,,,,,,,,,,,,,,right,0.1773,,,,,,0,7,7,13,1,,,,,,,,,,,,,,,,,,,,ピク　パツ　ルピン　ムク,パツ　ピク　ルピン　ムク,1
,,,,,,,,,R_3Rf41HmUdWO9jSZ,2022-11-20_11h25.34.650,jpn_C01,2022.1.2,Linux x86_64,59.99520038,,,,,,,,,,,,,CartoonStims/boxer_kick_cowboy_r.jpg,,,,,,,,,,,,,,,,,,,,,,,,,,,,,,,,,,,,,,,,,ピク　パツ　ドキ　ムク,right,46.8295,,,,,,0,8,8,26,1,,,,,,,,,,,,,,,,,,,,セル　ドキ　ムク,セル　ドキ　ムク,0
,,,,,,,,,R_3Rf41HmUdWO9jSZ,2022-11-20_11h25.34.650,jpn_C01,2022.1.2,Linux x86_64,59.99520038,,,,,,,,,,,,,CartoonStims/doctor_kick_chef_r.jpg,,,,,,,,,,,,,,,,,,,,,,,,,,,,,,,,,,,,,,,,,ピク　プミ　ピポ　ホレト,right,37.2068,,,,,,0,9,9,25,1,,,,,,,,,,,,,,,,,,,,セル　ピポ　ホレト,セル　ピポ　ホレト,0
,,,,,,,,,R_3Rf41HmUdWO9jSZ,2022-11-20_11h25.34.650,jpn_C01,2022.1.2,Linux x86_64,59.99520038,,,,,,,,,,,,,CartoonStims/artist_point_burglar_r_no.jpg,,,,,,,,,,,,,,,,,,,,,,,,,,,,,,,,,,,,,,,,,トマ　ピク　ホレト　ルピン,right,86.3656,,,,,,0,10,10,6,1,,,,,,,,,,,,,,,,,,,,ピク　トマ　シド　ルピン,トマ　ピク　シド　ルピン,1
,,,,,,,,,R_3Rf41HmUdWO9jSZ,2022-11-20_11h25.34.650,jpn_C01,2022.1.2,Linux x86_64,59.99520038,,,,,,,,,,,,,CartoonStims/doctor_shoot_artist_r_no.jpg,,,,,,,,,,,,,,,,,,,,,,,,,,,,,,,,,,,,,,,,,ピク　パツ　ピポ　ホレト,right,24.2804,,,,,,0,11,11,16,1,,,,,,,,,,,,,,,,,,,,ピク　パツ　ピポ　シド,パツ　ピク　ピポ　シド,1
,,,,,,,,,R_3Rf41HmUdWO9jSZ,2022-11-20_11h25.34.650,jpn_C01,2022.1.2,Linux x86_64,59.99520038,,,,,,,,,,,,,CartoonStims/boxer_point_artist_r_no.jpg,,,,,,,,,,,,,,,,,,,,,,,,,,,,,,,,,,,,,,,,,トマ　ピク　ドキ　ホレト,right,12.2752,,,,,,0,12,12,11,1,,,,,,,,,,,,,,,,,,,,ピク　トマ　ドキ　シド,トマ　ピク　ドキ　シド,1
,,,,,,,,,R_3Rf41HmUdWO9jSZ,2022-11-20_11h25.34.650,jpn_C01,2022.1.2,Linux x86_64,59.99520038,,,,,,,,,,,,,CartoonStims/cowboy_shoot_boxer_r_no.jpg,,,,,,,,,,,,,,,,,,,,,,,,,,,,,,,,,,,,,,,,,ピク　パツ　ムク　ドキ,right,17.2118,,,,,,0,13,13,15,1,,,,,,,,,,,,,,,,,,,,ピク　パツ　ムク　ドキ,パツ　ピク　ムク　ドキ,1
,,,,,,,,,R_3Rf41HmUdWO9jSZ,2022-11-20_11h25.34.650,jpn_C01,2022.1.2,Linux x86_64,59.99520038,,,,,,,,,,,,,CartoonStims/chef_kick_burglar_r_no.jpg,,,,,,,,,,,,,,,,,,,,,,,,,,,,,,,,,,,,,,,,,ピク　セル　〇〇　ルピン,right,54.5591,,,,,,0,14,14,2,1,,,,,,,,,,,,,,,,,,,,ピク　セル　ホレト　ルピン,セル　ピク　ホレト　ルピン,1
,,,,,,,,,R_3Rf41HmUdWO9jSZ,2022-11-20_11h25.34.650,jpn_C01,2022.1.2,Linux x86_64,59.99520038,,,,,,,,,,,,,CartoonStims/boxer_kick_doctor_r_no.jpg,,,,,,,,,,,,,,,,,,,,,,,,,,,,,,,,,,,,,,,,,ピク　セル　ドキ　ピポ,right,24.2086,,,,,,0,15,15,5,1,,,,,,,,,,,,,,,,,,,,ピク　セル　ドキ　ピポ,セル　ピク　ドキ　ピポ,1
,,,,,,,,,R_3Rf41HmUdWO9jSZ,2022-11-20_11h25.34.650,jpn_C01,2022.1.2,Linux x86_64,59.99520038,,,,,,,,,,,,,CartoonStims/artist_shoot_chef_r_no.jpg,,,,,,,,,,,,,,,,,,,,,,,,,,,,,,,,,,,,,,,,,ピク　パツ　〇〇　○○,right,45.8572,,,,,,0,16,16,12,1,,,,,,,,,,,,,,,,,,,,ピク　パツ　シド　ホレト,パツ　ピク　シド　ホレト,1
,,,,,,,,,R_3Rf41HmUdWO9jSZ,2022-11-20_11h25.34.650,jpn_C01,2022.1.2,Linux x86_64,59.99520038,,,,,,,,,,,,,CartoonStims/boxer_punch_chef_r_no.jpg,,,,,,,,,,,,,,,,,,,,,,,,,,,,,,,,,,,,,,,,,ピク　プミ　ドキ　〇〇,right,70.9692,,,,,,0,17,17,23,1,,,,,,,,,,,,,,,,,,,,ピク　プミ　ドキ　ホレト,プミ　ピク　ドキ　ホレト,1
,,,,,,,,,R_3Rf41HmUdWO9jSZ,2022-11-20_11h25.34.650,jpn_C01,2022.1.2,Linux x86_64,59.99520038,,,,,,,,,,,,,CartoonStims/artist_point_boxer_r.jpg,,,,,,,,,,,,,,,,,,,,,,,,,,,,,,,,,,,,,,,,,ピク　パツ　ホレト　ドキ,right,23.0515,,,,,,0,18,18,27,1,,,,,,,,,,,,,,,,,,,,トマ　シド　ドキ,トマ　シド　ドキ,0
,,,,,,,,,R_3Rf41HmUdWO9jSZ,2022-11-20_11h25.34.650,jpn_C01,2022.1.2,Linux x86_64,59.99520038,,,,,,,,,,,,,CartoonStims/doctor_kick_cowboy_r_no.jpg,,,,,,,,,,,,,,,,,,,,,,,,,,,,,,,,,,,,,,,,,ピク　セル　ピポ　ムク,right,13.0158,,,,,,0,19,19,4,1,,,,,,,,,,,,,,,,,,,,ピク　セル　ピポ　ムク,セル　ピク　ピポ　ムク,1
,,,,,,,,,R_3Rf41HmUdWO9jSZ,2022-11-20_11h25.34.650,jpn_C01,2022.1.2,Linux x86_64,59.99520038,,,,,,,,,,,,,CartoonStims/chef_shoot_doctor_r_no.jpg,,,,,,,,,,,,,,,,,,,,,,,,,,,,,,,,,,,,,,,,,ピク　パツ　〇〇　ピポ,right,23.6405,,,,,,0,20,20,14,1,,,,,,,,,,,,,,,,,,,,ピク　パツ　ホレト　ピポ,パツ　ピク　ホレト　ピポ,1
,,,,,,,,,R_3Rf41HmUdWO9jSZ,2022-11-20_11h25.34.650,jpn_C01,2022.1.2,Linux x86_64,59.99520038,,,,,,,,,,,,,CartoonStims/chef_point_burglar_r.jpg,,,,,,,,,,,,,,,,,,,,,,,,,,,,,,,,,,,,,,,,,ピク　パツ　〇〇　ルピン,right,25.6345,,,,,,0,21,21,29,1,,,,,,,,,,,,,,,,,,,,トマ　ホレト　ルピン,トマ　ホレト　ルピン,0
,,,,,,,,,R_3Rf41HmUdWO9jSZ,2022-11-20_11h25.34.650,jpn_C01,2022.1.2,Linux x86_64,59.99520038,,,,,,,,,,,,,CartoonStims/boxer_shoot_burglar_r_no.jpg,,,,,,,,,,,,,,,,,,,,,,,,,,,,,,,,,,,,,,,,,ピク　パツ　ドキ　ルピン,right,14.3611,,,,,,0,22,22,17,1,,,,,,,,,,,,,,,,,,,,ピク　パツ　ドキ　ルピン,パツ　ピク　ドキ　ルピン,1
,,,,,,,,,R_3Rf41HmUdWO9jSZ,2022-11-20_11h25.34.650,jpn_C01,2022.1.2,Linux x86_64,59.99520038,,,,,,,,,,,,,CartoonStims/chef_shoot_cowboy_r.jpg,,,,,,,,,,,,,,,,,,,,,,,,,,,,,,,,,,,,,,,,,トマ　ピク　〇〇　ムク,right,42.2755,,,,,,0,23,23,31,1,,,,,,,,,,,,,,,,,,,,パツ　ホレト　ムク,パツ　ホレト　ムク,0
,,,,,,,,,R_3Rf41HmUdWO9jSZ,2022-11-20_11h25.34.650,jpn_C01,2022.1.2,Linux x86_64,59.99520038,,,,,,,,,,,,,CartoonStims/doctor_punch_burglar_r_no.jpg,,,,,,,,,,,,,,,,,,,,,,,,,,,,,,,,,,,,,,,,,ピク　プミ　ピポ　ルピン,right,22.2759,,,,,,0,24,24,22,1,,,,,,,,,,,,,,,,,,,,ピク　プミ　ピポ　ルピン,プミ　ピク　ピポ　ルピン,1
,,,,,,,,,R_3Rf41HmUdWO9jSZ,2022-11-20_11h25.34.650,jpn_C01,2022.1.2,Linux x86_64,59.99520038,,,,,,,,,,,,,CartoonStims/cowboy_shoot_doctor_r.jpg,,,,,,,,,,,,,,,,,,,,,,,,,,,,,,,,,,,,,,,,,,right,0.0078,,,,,,0,25,25,32,1,,,,,,,,,,,,,,,,,,,,パツ　ムク　ピポ,パツ　ムク　ピポ,0
,,,,,,,,,R_3Rf41HmUdWO9jSZ,2022-11-20_11h25.34.650,jpn_C01,2022.1.2,Linux x86_64,59.99520038,,,,,,,,,,,,,CartoonStims/cowboy_point_doctor_r_no.jpg,,,,,,,,,,,,,,,,,,,,,,,,,,,,,,,,,,,,,,,,,トマ　ピク　ムク　ピポ,right,9.5819,,,,,,0,26,26,9,1,,,,,,,,,,,,,,,,,,,,ピク　トマ　ムク　ピポ,トマ　ピク　ムク　ピポ,1
,,,,,,,,,R_3Rf41HmUdWO9jSZ,2022-11-20_11h25.34.650,jpn_C01,2022.1.2,Linux x86_64,59.99520038,,,,,,,,,,,,,CartoonStims/artist_punch_burglar_r.jpg,,,,,,,,,,,,,,,,,,,,,,,,,,,,,,,,,,,,,,,,,ピク　パツ　ホレト　ルピン,right,28.6351,,,,,,0,27,27,33,1,,,,,,,,,,,,,,,,,,,,プミ　シド　ルピン,プミ　シド　ルピン,0
,,,,,,,,,R_3Rf41HmUdWO9jSZ,2022-11-20_11h25.34.650,jpn_C01,2022.1.2,Linux x86_64,59.99520038,,,,,,,,,,,,,CartoonStims/cowboy_kick_burglar_r.jpg,,,,,,,,,,,,,,,,,,,,,,,,,,,,,,,,,,,,,,,,,ピポ　パツ　ムク　ルピン,right,10.5529,,,,,,0,28,28,24,1,,,,,,,,,,,,,,,,,,,,セル　ムク　ルピン,セル　ムク　ルピン,0
,,,,,,,,,R_3Rf41HmUdWO9jSZ,2022-11-20_11h25.34.650,jpn_C01,2022.1.2,Linux x86_64,59.99520038,,,,,,,,,,,,,CartoonStims/doctor_punch_boxer_r.jpg,,,,,,,,,,,,,,,,,,,,,,,,,,,,,,,,,,,,,,,,,ピク　パツ　ピポ　ドキ,right,12.2659,,,,,,0,29,29,34,1,,,,,,,,,,,,,,,,,,,,プミ　ピポ　ドキ,プミ　ピポ　ドキ,0
,,,,,,,,,R_3Rf41HmUdWO9jSZ,2022-11-20_11h25.34.650,jpn_C01,2022.1.2,Linux x86_64,59.99520038,,,,,,,,,,,,,CartoonStims/doctor_point_boxer_r_no.jpg,,,,,,,,,,,,,,,,,,,,,,,,,,,,,,,,,,,,,,,,,トマ　ピク　ピポ　ドキ,right,13.6123,,,,,,0,30,30,10,1,,,,,,,,,,,,,,,,,,,,ピク　トマ　ピポ　ドキ,トマ　ピク　ピポ　ドキ,1
,,,,,,,,,R_3Rf41HmUdWO9jSZ,2022-11-20_11h25.34.650,jpn_C01,2022.1.2,Linux x86_64,59.99520038,,,,,,,,,,,,,CartoonStims/burglar_kick_artist_r_no.jpg,,,,,,,,,,,,,,,,,,,,,,,,,,,,,,,,,,,,,,,,,ピク　セル　ルピン　ホレト,right,17.1385,,,,,,0,31,31,1,1,,,,,,,,,,,,,,,,,,,,ピク　セル　ルピン　シド,セル　ピク　ルピン　シド,1
,,,,,,,,,R_3Rf41HmUdWO9jSZ,2022-11-20_11h25.34.650,jpn_C01,2022.1.2,Linux x86_64,59.99520038,,,,,,,,,,,,,CartoonStims/artist_kick_boxer_r_no.jpg,,,,,,,,,,,,,,,,,,,,,,,,,,,,,,,,,,,,,,,,,セル　ピク　ホレト　ドキ,right,45.5058,,,,,,0,32,32,0,1,,,,,,,,,,,,,,,,,,,,ピク　セル　シド　ドキ,セル　ピク　シド　ドキ,1
,,,,,,,,,R_3Rf41HmUdWO9jSZ,2022-11-20_11h25.34.650,jpn_C01,2022.1.2,Linux x86_64,59.99520038,,,,,,,,,,,,,CartoonStims/burglar_point_artist_r.jpg,,,,,,,,,,,,,,,,,,,,,,,,,,,,,,,,,,,,,,,,,ピク　パツ　ルピン　ホレト,right,14.6439,,,,,,0,33,33,28,1,,,,,,,,,,,,,,,,,,,,トマ　ルピン　シド,トマ　ルピン　シド,0
,,,,,,,,,R_3Rf41HmUdWO9jSZ,2022-11-20_11h25.34.650,jpn_C01,2022.1.2,Linux x86_64,59.99520038,,,,,,,,,,,,,CartoonStims/chef_punch_boxer_r_no.jpg,,,,,,,,,,,,,,,,,,,,,,,,,,,,,,,,,,,,,,,,,プミ　ピク　〇〇　ドキ,right,27.1141,,,,,,0,34,34,20,1,,,,,,,,,,,,,,,,,,,,ピク　プミ　ホレト　ドキ,プミ　ピク　ホレト　ドキ,1
,,,,,,,,,R_3Rf41HmUdWO9jSZ,2022-11-20_11h25.34.650,jpn_C01,2022.1.2,Linux x86_64,59.99520038,,,,,,,,,,,,,CartoonStims/burglar_shoot_chef_r.jpg,,,,,,,,,,,,,,,,,,,,,,,,,,,,,,,,,,,,,,,,,トマ　ピク　ホレト　〇〇,right,23.7539,,,,,,0,35,35,30,1,,,,,,,,,,,,,,,,,,,,パツ　ルピン　ホレト,パツ　ルピン　ホレト,0
,,,,,,,,,R_3Rf41HmUdWO9jSZ,2022-11-20_11h25.34.650,jpn_C01,2022.1.2,Linux x86_64,59.99520038,,,,,,,,,,,,,,,,,,,,,,,,,,,,,,,,,,,,,,,,,,,,,,,,,,,,,,,,,,,,,,,,,,,,,space,2.2708,0,2,2,2,1,EquiprobableCondition.xlsx,"ここではこの言語における否定の文を学習していただきます。引き続き注意して、 聞こえた音を復唱してください。

スペースキーを押してください。",1,EquiFCT.xlsx,ここからクイズが始まります。 スクリーンに表示されるテキストに合うイメージを選んでください。,NegTest.xlsx,1,最後にここまで学んだことをアウトプットしていただきます。 テキストボックスにあるイメージを描写するテキストを入力してください。 このタスクでは、 答え合わせは行いません。,0,これですべての実験が終わりました。 お疲れさまです。 この後はアンケートに答えていただきます。,,,