key_resp_instr_a.keys,key_resp_instr_a.rt,key_resp_instr_b.keys,key_resp_instr_b.rt,dummy.thisRepN,dummy.thisTrialN,dummy.thisN,dummy.thisIndex,dummy.ran,participant,date,expName,psychopyVersion,OS,frameRate,key_resp_instr1.keys,key_resp_instr1.rt,key_resp.keys,key_resp.rt,exp_loop.thisRepN,exp_loop.thisTrialN,exp_loop.thisN,exp_loop.thisIndex,exp_loop.ran,Word,English,Flip,Path,Audio,key_resp_instr2.keys,key_resp_instr2.rt,key_resp_fct.keys,key_resp_fct.corr,key_resp_fct.rt,trials.thisRepN,trials.thisTrialN,trials.thisN,trials.thisIndex,trials.ran,fct_loop.thisRepN,fct_loop.thisTrialN,fct_loop.thisN,fct_loop.thisIndex,fct_loop.ran,left_img,word,right_img,correctans,correct_img,audio,incorrect_feedback,trials_2.thisRepN,trials_2.thisTrialN,trials_2.thisN,trials_2.thisIndex,trials_2.ran,key_resp_instr3.keys,key_resp_instr3.rt,textbox.text,key_resp_2.keys,key_resp_2.rt,fb_yn.thisRepN,fb_yn.thisTrialN,fb_yn.thisN,fb_yn.thisIndex,fb_yn.ran,gather_loop.thisRepN,gather_loop.thisTrialN,gather_loop.thisN,gather_loop.thisIndex,gather_loop.ran,Text,Wordbank,key_resp_instr4.keys,key_resp_instr4.rt,master_loop.thisRepN,master_loop.thisTrialN,master_loop.thisN,master_loop.thisIndex,master_loop.ran,exposure_file,instr_1,exp_reps,fct_file,instr_2,gather_file,gather_reps,instr_3,fReps,instr_4,NegVSentence,VNegSentence,NegTF
space,6.6018,space,10.618,0,0,0,0,1,R_WreRxGiHz0XYI7f,2022-07-03_18h59.14.587,jpn_C01,2022.1.2,MacIntel,59.99880002,,,,,,,,,,,,,,,,,,,,,,,,,,,,,,,,,,,,,,,,,,,,,,,,,,,,,,,,,,,,,,,,,,,,,,,,,,,,,,
,,,,,,,,,R_WreRxGiHz0XYI7f,2022-07-03_18h59.14.587,jpn_C01,2022.1.2,MacIntel,59.99880002,space,10.4375,space,6.2581,0,0,0,3,1,ムク,cowboy,,CartoonStims/cowboy_r.jpg,audio/muku.mp3,,,,,,,,,,,,,,,,,,,,,,,,,,,,,,,,,,,,,,,,,,,,,,,,,,,,,,,,,,,,,,,,
,,,,,,,,,R_WreRxGiHz0XYI7f,2022-07-03_18h59.14.587,jpn_C01,2022.1.2,MacIntel,59.99880002,,,space,6.8508,0,1,1,5,1,ドキ,boxer,,CartoonStims/boxer_r.jpg,audio/doki.mp3,,,,,,,,,,,,,,,,,,,,,,,,,,,,,,,,,,,,,,,,,,,,,,,,,,,,,,,,,,,,,,,,
,,,,,,,,,R_WreRxGiHz0XYI7f,2022-07-03_18h59.14.587,jpn_C01,2022.1.2,MacIntel,59.99880002,,,space,13.178,0,2,2,1,1,ルピン,burglar,,CartoonStims/burglar_r.jpg,audio/lupin.mp3,,,,,,,,,,,,,,,,,,,,,,,,,,,,,,,,,,,,,,,,,,,,,,,,,,,,,,,,,,,,,,,,
,,,,,,,,,R_WreRxGiHz0XYI7f,2022-07-03_18h59.14.587,jpn_C01,2022.1.2,MacIntel,59.99880002,,,space,7.5853,0,3,3,4,1,ピポ,doctor,,CartoonStims/doctor_r.jpg,audio/pipo.mp3,,,,,,,,,,,,,,,,,,,,,,,,,,,,,,,,,,,,,,,,,,,,,,,,,,,,,,,,,,,,,,,,
,,,,,,,,,R_WreRxGiHz0XYI7f,2022-07-03_18h59.14.587,jpn_C01,2022.1.2,MacIntel,59.99880002,,,space,10.6393,0,4,4,0,1,シド,artist,,CartoonStims/artist_r.jpg,audio/sido.mp3,,,,,,,,,,,,,,,,,,,,,,,,,,,,,,,,,,,,,,,,,,,,,,,,,,,,,,,,,,,,,,,,
,,,,,,,,,R_WreRxGiHz0XYI7f,2022-07-03_18h59.14.587,jpn_C01,2022.1.2,MacIntel,59.99880002,,,space,6.9575,0,5,5,2,1,ホレト,chef,,CartoonStims/chef_r.jpg,audio/horeto.mp3,,,,,,,,,,,,,,,,,,,,,,,,,,,,,,,,,,,,,,,,,,,,,,,,,,,,,,,,,,,,,,,,
,,,,,,,,,R_WreRxGiHz0XYI7f,2022-07-03_18h59.14.587,jpn_C01,2022.1.2,MacIntel,59.99880002,,,space,8.0332,1,0,6,1,1,ルピン,burglar,,CartoonStims/burglar_r.jpg,audio/lupin.mp3,,,,,,,,,,,,,,,,,,,,,,,,,,,,,,,,,,,,,,,,,,,,,,,,,,,,,,,,,,,,,,,,
,,,,,,,,,R_WreRxGiHz0XYI7f,2022-07-03_18h59.14.587,jpn_C01,2022.1.2,MacIntel,59.99880002,,,space,4.6558,1,1,7,5,1,ドキ,boxer,,CartoonStims/boxer_r.jpg,audio/doki.mp3,,,,,,,,,,,,,,,,,,,,,,,,,,,,,,,,,,,,,,,,,,,,,,,,,,,,,,,,,,,,,,,,
,,,,,,,,,R_WreRxGiHz0XYI7f,2022-07-03_18h59.14.587,jpn_C01,2022.1.2,MacIntel,59.99880002,,,space,3.9972,1,2,8,0,1,シド,artist,,CartoonStims/artist_r.jpg,audio/sido.mp3,,,,,,,,,,,,,,,,,,,,,,,,,,,,,,,,,,,,,,,,,,,,,,,,,,,,,,,,,,,,,,,,
,,,,,,,,,R_WreRxGiHz0XYI7f,2022-07-03_18h59.14.587,jpn_C01,2022.1.2,MacIntel,59.99880002,,,space,5.0924,1,3,9,3,1,ムク,cowboy,,CartoonStims/cowboy_r.jpg,audio/muku.mp3,,,,,,,,,,,,,,,,,,,,,,,,,,,,,,,,,,,,,,,,,,,,,,,,,,,,,,,,,,,,,,,,
,,,,,,,,,R_WreRxGiHz0XYI7f,2022-07-03_18h59.14.587,jpn_C01,2022.1.2,MacIntel,59.99880002,,,space,3.2388,1,4,10,2,1,ホレト,chef,,CartoonStims/chef_r.jpg,audio/horeto.mp3,,,,,,,,,,,,,,,,,,,,,,,,,,,,,,,,,,,,,,,,,,,,,,,,,,,,,,,,,,,,,,,,
,,,,,,,,,R_WreRxGiHz0XYI7f,2022-07-03_18h59.14.587,jpn_C01,2022.1.2,MacIntel,59.99880002,,,space,4.3545,1,5,11,4,1,ピポ,doctor,,CartoonStims/doctor_r.jpg,audio/pipo.mp3,,,,,,,,,,,,,,,,,,,,,,,,,,,,,,,,,,,,,,,,,,,,,,,,,,,,,,,,,,,,,,,,
,,,,,,,,,R_WreRxGiHz0XYI7f,2022-07-03_18h59.14.587,jpn_C01,2022.1.2,MacIntel,59.99880002,,,space,2.6011,2,0,12,4,1,ピポ,doctor,,CartoonStims/doctor_r.jpg,audio/pipo.mp3,,,,,,,,,,,,,,,,,,,,,,,,,,,,,,,,,,,,,,,,,,,,,,,,,,,,,,,,,,,,,,,,
,,,,,,,,,R_WreRxGiHz0XYI7f,2022-07-03_18h59.14.587,jpn_C01,2022.1.2,MacIntel,59.99880002,,,space,1.6302,2,1,13,1,1,ルピン,burglar,,CartoonStims/burglar_r.jpg,audio/lupin.mp3,,,,,,,,,,,,,,,,,,,,,,,,,,,,,,,,,,,,,,,,,,,,,,,,,,,,,,,,,,,,,,,,
,,,,,,,,,R_WreRxGiHz0XYI7f,2022-07-03_18h59.14.587,jpn_C01,2022.1.2,MacIntel,59.99880002,,,space,1.1133,2,2,14,2,1,ホレト,chef,,CartoonStims/chef_r.jpg,audio/horeto.mp3,,,,,,,,,,,,,,,,,,,,,,,,,,,,,,,,,,,,,,,,,,,,,,,,,,,,,,,,,,,,,,,,
,,,,,,,,,R_WreRxGiHz0XYI7f,2022-07-03_18h59.14.587,jpn_C01,2022.1.2,MacIntel,59.99880002,,,space,1.5951,2,3,15,0,1,シド,artist,,CartoonStims/artist_r.jpg,audio/sido.mp3,,,,,,,,,,,,,,,,,,,,,,,,,,,,,,,,,,,,,,,,,,,,,,,,,,,,,,,,,,,,,,,,
,,,,,,,,,R_WreRxGiHz0XYI7f,2022-07-03_18h59.14.587,jpn_C01,2022.1.2,MacIntel,59.99880002,,,space,0.9347,2,4,16,3,1,ムク,cowboy,,CartoonStims/cowboy_r.jpg,audio/muku.mp3,,,,,,,,,,,,,,,,,,,,,,,,,,,,,,,,,,,,,,,,,,,,,,,,,,,,,,,,,,,,,,,,
,,,,,,,,,R_WreRxGiHz0XYI7f,2022-07-03_18h59.14.587,jpn_C01,2022.1.2,MacIntel,59.99880002,,,space,1.0686,2,5,17,5,1,ドキ,boxer,,CartoonStims/boxer_r.jpg,audio/doki.mp3,,,,,,,,,,,,,,,,,,,,,,,,,,,,,,,,,,,,,,,,,,,,,,,,,,,,,,,,,,,,,,,,
,,,,,,,,,R_WreRxGiHz0XYI7f,2022-07-03_18h59.14.587,jpn_C01,2022.1.2,MacIntel,59.99880002,,,,,,,,,,,,,,,space,3.6704,left,1,3.199,0,0,0,0,1,,,,,,,,,,,,,,,,,,,,,,,,,,,,,,,,,,,,,,,,,,,,,,,,,,,,,,
,,,,,,,,,R_WreRxGiHz0XYI7f,2022-07-03_18h59.14.587,jpn_C01,2022.1.2,MacIntel,59.99880002,,,,,,,,,,,,,,,,,,,,,,,,,0,0,0,0,1,CartoonStims/artist_r.jpg,シド,CartoonStims/burglar_r.jpg,left,CartoonStims/artist_r.jpg,audio/sido.mp3,残念！ こちらが正しい画像です。,,,,,,,,,,,,,,,,,,,,,,,,,,,,,,,,,,,,,,,,,,
,,,,,,,,,R_WreRxGiHz0XYI7f,2022-07-03_18h59.14.587,jpn_C01,2022.1.2,MacIntel,59.99880002,,,,,,,,,,,,,,,,,left,1,1.5005,0,0,0,0,1,,,,,,,,,,,,,,,,,,,,,,,,,,,,,,,,,,,,,,,,,,,,,,,,,,,,,,
,,,,,,,,,R_WreRxGiHz0XYI7f,2022-07-03_18h59.14.587,jpn_C01,2022.1.2,MacIntel,59.99880002,,,,,,,,,,,,,,,,,,,,,,,,,0,1,1,4,1,CartoonStims/doctor_r.jpg,ピポ,CartoonStims/boxer_r.jpg,left,CartoonStims/doctor_r.jpg,audio/pipo.mp3,残念！ こちらが正しい画像です。,,,,,,,,,,,,,,,,,,,,,,,,,,,,,,,,,,,,,,,,,,
,,,,,,,,,R_WreRxGiHz0XYI7f,2022-07-03_18h59.14.587,jpn_C01,2022.1.2,MacIntel,59.99880002,,,,,,,,,,,,,,,,,left,1,0.5618,0,0,0,0,1,,,,,,,,,,,,,,,,,,,,,,,,,,,,,,,,,,,,,,,,,,,,,,,,,,,,,,
,,,,,,,,,R_WreRxGiHz0XYI7f,2022-07-03_18h59.14.587,jpn_C01,2022.1.2,MacIntel,59.99880002,,,,,,,,,,,,,,,,,,,,,,,,,0,2,2,1,1,CartoonStims/burglar_r.jpg,ルピン,CartoonStims/chef_r.jpg,left,CartoonStims/burglar_r.jpg,audio/lupin.mp3,残念！ こちらが正しい画像です。,,,,,,,,,,,,,,,,,,,,,,,,,,,,,,,,,,,,,,,,,,
,,,,,,,,,R_WreRxGiHz0XYI7f,2022-07-03_18h59.14.587,jpn_C01,2022.1.2,MacIntel,59.99880002,,,,,,,,,,,,,,,,,left,1,1.5047,0,0,0,0,1,,,,,,,,,,,,,,,,,,,,,,,,,,,,,,,,,,,,,,,,,,,,,,,,,,,,,,
,,,,,,,,,R_WreRxGiHz0XYI7f,2022-07-03_18h59.14.587,jpn_C01,2022.1.2,MacIntel,59.99880002,,,,,,,,,,,,,,,,,,,,,,,,,0,3,3,3,1,CartoonStims/cowboy_r.jpg,ムク,CartoonStims/doctor_r.jpg,left,CartoonStims/cowboy_r.jpg,audio/muku.mp3,残念！ こちらが正しい画像です。,,,,,,,,,,,,,,,,,,,,,,,,,,,,,,,,,,,,,,,,,,
,,,,,,,,,R_WreRxGiHz0XYI7f,2022-07-03_18h59.14.587,jpn_C01,2022.1.2,MacIntel,59.99880002,,,,,,,,,,,,,,,,,right,1,5.2879,,,,,,,,,,,,,,,,,,0,0,0,0,1,,,,,,,,,,,,,,,,,,,,,,,,,,,,,,,,,,,,,
,,,,,,,,,R_WreRxGiHz0XYI7f,2022-07-03_18h59.14.587,jpn_C01,2022.1.2,MacIntel,59.99880002,,,,,,,,,,,,,,,,,,,,,,,,,0,4,4,6,1,CartoonStims/chef_r.jpg,シド,CartoonStims/artist_r.jpg,right,CartoonStims/artist_r.jpg,audio/sido.mp3,残念！ こちらが正しい画像です。,,,,,,,,,,,,,,,,,,,,,,,,,,,,,,,,,,,,,,,,,,
,,,,,,,,,R_WreRxGiHz0XYI7f,2022-07-03_18h59.14.587,jpn_C01,2022.1.2,MacIntel,59.99880002,,,,,,,,,,,,,,,,,right,1,0.6617,,,,,,,,,,,,,,,,,,0,0,0,0,1,,,,,,,,,,,,,,,,,,,,,,,,,,,,,,,,,,,,,
,,,,,,,,,R_WreRxGiHz0XYI7f,2022-07-03_18h59.14.587,jpn_C01,2022.1.2,MacIntel,59.99880002,,,,,,,,,,,,,,,,,,,,,,,,,0,5,5,7,1,CartoonStims/cowboy_r.jpg,ルピン,CartoonStims/burglar_r.jpg,right,CartoonStims/burglar_r.jpg,audio/lupin.mp3,残念！ こちらが正しい画像です。,,,,,,,,,,,,,,,,,,,,,,,,,,,,,,,,,,,,,,,,,,
,,,,,,,,,R_WreRxGiHz0XYI7f,2022-07-03_18h59.14.587,jpn_C01,2022.1.2,MacIntel,59.99880002,,,,,,,,,,,,,,,,,right,1,1.5927,,,,,,,,,,,,,,,,,,0,0,0,0,1,,,,,,,,,,,,,,,,,,,,,,,,,,,,,,,,,,,,,
,,,,,,,,,R_WreRxGiHz0XYI7f,2022-07-03_18h59.14.587,jpn_C01,2022.1.2,MacIntel,59.99880002,,,,,,,,,,,,,,,,,,,,,,,,,0,6,6,9,1,CartoonStims/boxer_r.jpg,ムク,CartoonStims/cowboy_r.jpg,right,CartoonStims/cowboy_r.jpg,audio/muku.mp3,残念！ こちらが正しい画像です。,,,,,,,,,,,,,,,,,,,,,,,,,,,,,,,,,,,,,,,,,,
,,,,,,,,,R_WreRxGiHz0XYI7f,2022-07-03_18h59.14.587,jpn_C01,2022.1.2,MacIntel,59.99880002,,,,,,,,,,,,,,,,,right,1,1.2417,,,,,,,,,,,,,,,,,,0,0,0,0,1,,,,,,,,,,,,,,,,,,,,,,,,,,,,,,,,,,,,,
,,,,,,,,,R_WreRxGiHz0XYI7f,2022-07-03_18h59.14.587,jpn_C01,2022.1.2,MacIntel,59.99880002,,,,,,,,,,,,,,,,,,,,,,,,,0,7,7,11,1,CartoonStims/burglar_r.jpg,ドキ,CartoonStims/boxer_r.jpg,right,CartoonStims/boxer_r.jpg,audio/doki.mp3,残念！ こちらが正しい画像です。,,,,,,,,,,,,,,,,,,,,,,,,,,,,,,,,,,,,,,,,,,
,,,,,,,,,R_WreRxGiHz0XYI7f,2022-07-03_18h59.14.587,jpn_C01,2022.1.2,MacIntel,59.99880002,,,,,,,,,,,,,,,,,left,1,1.0377,0,0,0,0,1,,,,,,,,,,,,,,,,,,,,,,,,,,,,,,,,,,,,,,,,,,,,,,,,,,,,,,
,,,,,,,,,R_WreRxGiHz0XYI7f,2022-07-03_18h59.14.587,jpn_C01,2022.1.2,MacIntel,59.99880002,,,,,,,,,,,,,,,,,,,,,,,,,0,8,8,5,1,CartoonStims/boxer_r.jpg,ドキ,CartoonStims/artist_r.jpg,left,CartoonStims/boxer_r.jpg,audio/doki.mp3,残念！ こちらが正しい画像です。,,,,,,,,,,,,,,,,,,,,,,,,,,,,,,,,,,,,,,,,,,
,,,,,,,,,R_WreRxGiHz0XYI7f,2022-07-03_18h59.14.587,jpn_C01,2022.1.2,MacIntel,59.99880002,,,,,,,,,,,,,,,,,left,1,1.1776,0,0,0,0,1,,,,,,,,,,,,,,,,,,,,,,,,,,,,,,,,,,,,,,,,,,,,,,,,,,,,,,
,,,,,,,,,R_WreRxGiHz0XYI7f,2022-07-03_18h59.14.587,jpn_C01,2022.1.2,MacIntel,59.99880002,,,,,,,,,,,,,,,,,,,,,,,,,0,9,9,2,1,CartoonStims/chef_r.jpg,ホレト,CartoonStims/cowboy_r.jpg,left,CartoonStims/chef_r.jpg,audio/horeto.mp3,残念！ こちらが正しい画像です。,,,,,,,,,,,,,,,,,,,,,,,,,,,,,,,,,,,,,,,,,,
,,,,,,,,,R_WreRxGiHz0XYI7f,2022-07-03_18h59.14.587,jpn_C01,2022.1.2,MacIntel,59.99880002,,,,,,,,,,,,,,,,,right,1,2.2903,,,,,,,,,,,,,,,,,,0,0,0,0,1,,,,,,,,,,,,,,,,,,,,,,,,,,,,,,,,,,,,,
,,,,,,,,,R_WreRxGiHz0XYI7f,2022-07-03_18h59.14.587,jpn_C01,2022.1.2,MacIntel,59.99880002,,,,,,,,,,,,,,,,,,,,,,,,,0,10,10,10,1,CartoonStims/artist_r.jpg,ピポ,CartoonStims/doctor_r.jpg,right,CartoonStims/doctor_r.jpg,audio/pipo.mp3,残念！ こちらが正しい画像です。,,,,,,,,,,,,,,,,,,,,,,,,,,,,,,,,,,,,,,,,,,
,,,,,,,,,R_WreRxGiHz0XYI7f,2022-07-03_18h59.14.587,jpn_C01,2022.1.2,MacIntel,59.99880002,,,,,,,,,,,,,,,,,right,1,2.1694,,,,,,,,,,,,,,,,,,0,0,0,0,1,,,,,,,,,,,,,,,,,,,,,,,,,,,,,,,,,,,,,
,,,,,,,,,R_WreRxGiHz0XYI7f,2022-07-03_18h59.14.587,jpn_C01,2022.1.2,MacIntel,59.99880002,,,,,,,,,,,,,,,,,,,,,,,,,0,11,11,8,1,CartoonStims/doctor_r.jpg,ホレト,CartoonStims/chef_r.jpg,right,CartoonStims/chef_r.jpg,audio/horeto.mp3,残念！ こちらが正しい画像です。,,,,,,,,,,,,,,,,,,,,,,,,,,,,,,,,,,,,,,,,,,
,,,,,,,,,R_WreRxGiHz0XYI7f,2022-07-03_18h59.14.587,jpn_C01,2022.1.2,MacIntel,59.99880002,,,,,,,,,,,,,,,,,,,,,,,,,,,,,,,,,,,,,,,,,,space,5.1059,ルピン,right,17.843,0,0,0,0,1,,,,,,,,,,,,,,,,,,,,,,,,,,,
,,,,,,,,,R_WreRxGiHz0XYI7f,2022-07-03_18h59.14.587,jpn_C01,2022.1.2,MacIntel,59.99880002,,,,,,,,,,,,,CartoonStims/burglar_r.jpg,audio/lupin.mp3,,,,,,,,,,,,,,,,,,,,,,,,,,,,,,,,,,,,,,0,0,0,1,1,ルピン,,,,,,,,,,,,,,,,,,,,,
,,,,,,,,,R_WreRxGiHz0XYI7f,2022-07-03_18h59.14.587,jpn_C01,2022.1.2,MacIntel,59.99880002,,,,,,,,,,,,,,,,,,,,,,,,,,,,,,,,,,,,,,,,,,,,ピポ,right,7.286,0,0,0,0,1,,,,,,,,,,,,,,,,,,,,,,,,,,,
,,,,,,,,,R_WreRxGiHz0XYI7f,2022-07-03_18h59.14.587,jpn_C01,2022.1.2,MacIntel,59.99880002,,,,,,,,,,,,,CartoonStims/doctor_r.jpg,audio/pipo.mp3,,,,,,,,,,,,,,,,,,,,,,,,,,,,,,,,,,,,,,0,1,1,4,1,ピポ,,,,,,,,,,,,,,,,,,,,,
,,,,,,,,,R_WreRxGiHz0XYI7f,2022-07-03_18h59.14.587,jpn_C01,2022.1.2,MacIntel,59.99880002,,,,,,,,,,,,,,,,,,,,,,,,,,,,,,,,,,,,,,,,,,,,シド,right,13.4327,0,0,0,0,1,,,,,,,,,,,,,,,,,,,,,,,,,,,
,,,,,,,,,R_WreRxGiHz0XYI7f,2022-07-03_18h59.14.587,jpn_C01,2022.1.2,MacIntel,59.99880002,,,,,,,,,,,,,CartoonStims/artist_r.jpg,audio/sido.mp3,,,,,,,,,,,,,,,,,,,,,,,,,,,,,,,,,,,,,,0,2,2,0,1,シド,,,,,,,,,,,,,,,,,,,,,
,,,,,,,,,R_WreRxGiHz0XYI7f,2022-07-03_18h59.14.587,jpn_C01,2022.1.2,MacIntel,59.99880002,,,,,,,,,,,,,,,,,,,,,,,,,,,,,,,,,,,,,,,,,,,,ホレト,right,6.3123,0,0,0,0,1,,,,,,,,,,,,,,,,,,,,,,,,,,,
,,,,,,,,,R_WreRxGiHz0XYI7f,2022-07-03_18h59.14.587,jpn_C01,2022.1.2,MacIntel,59.99880002,,,,,,,,,,,,,CartoonStims/chef_r.jpg,audio/horeto.mp3,,,,,,,,,,,,,,,,,,,,,,,,,,,,,,,,,,,,,,0,3,3,2,1,ホレト,,,,,,,,,,,,,,,,,,,,,
,,,,,,,,,R_WreRxGiHz0XYI7f,2022-07-03_18h59.14.587,jpn_C01,2022.1.2,MacIntel,59.99880002,,,,,,,,,,,,,,,,,,,,,,,,,,,,,,,,,,,,,,,,,,,,ムク,right,5.5335,0,0,0,0,1,,,,,,,,,,,,,,,,,,,,,,,,,,,
,,,,,,,,,R_WreRxGiHz0XYI7f,2022-07-03_18h59.14.587,jpn_C01,2022.1.2,MacIntel,59.99880002,,,,,,,,,,,,,CartoonStims/cowboy_r.jpg,audio/muku.mp3,,,,,,,,,,,,,,,,,,,,,,,,,,,,,,,,,,,,,,0,4,4,3,1,ムク,,,,,,,,,,,,,,,,,,,,,
,,,,,,,,,R_WreRxGiHz0XYI7f,2022-07-03_18h59.14.587,jpn_C01,2022.1.2,MacIntel,59.99880002,,,,,,,,,,,,,,,,,,,,,,,,,,,,,,,,,,,,,,,,,,,,ドキ,right,4.0988,0,0,0,0,1,,,,,,,,,,,,,,,,,,,,,,,,,,,
,,,,,,,,,R_WreRxGiHz0XYI7f,2022-07-03_18h59.14.587,jpn_C01,2022.1.2,MacIntel,59.99880002,,,,,,,,,,,,,CartoonStims/boxer_r.jpg,audio/doki.mp3,,,,,,,,,,,,,,,,,,,,,,,,,,,,,,,,,,,,,,0,5,5,5,1,ドキ,,,,,,,,,,,,,,,,,,,,,
,,,,,,,,,R_WreRxGiHz0XYI7f,2022-07-03_18h59.14.587,jpn_C01,2022.1.2,MacIntel,59.99880002,,,,,,,,,,,,,,,,,,,,,,,,,,,,,,,,,,,,,,,,,,,,シド,right,4.2831,0,0,0,0,1,,,,,,,,,,,,,,,,,,,,,,,,,,,
,,,,,,,,,R_WreRxGiHz0XYI7f,2022-07-03_18h59.14.587,jpn_C01,2022.1.2,MacIntel,59.99880002,,,,,,,,,,,,,CartoonStims/artist_r.jpg,audio/sido.mp3,,,,,,,,,,,,,,,,,,,,,,,,,,,,,,,,,,,,,,1,0,6,0,1,シド,,,,,,,,,,,,,,,,,,,,,
,,,,,,,,,R_WreRxGiHz0XYI7f,2022-07-03_18h59.14.587,jpn_C01,2022.1.2,MacIntel,59.99880002,,,,,,,,,,,,,,,,,,,,,,,,,,,,,,,,,,,,,,,,,,,,ピポ,right,5.585,0,0,0,0,1,,,,,,,,,,,,,,,,,,,,,,,,,,,
,,,,,,,,,R_WreRxGiHz0XYI7f,2022-07-03_18h59.14.587,jpn_C01,2022.1.2,MacIntel,59.99880002,,,,,,,,,,,,,CartoonStims/doctor_r.jpg,audio/pipo.mp3,,,,,,,,,,,,,,,,,,,,,,,,,,,,,,,,,,,,,,1,1,7,4,1,ピポ,,,,,,,,,,,,,,,,,,,,,
,,,,,,,,,R_WreRxGiHz0XYI7f,2022-07-03_18h59.14.587,jpn_C01,2022.1.2,MacIntel,59.99880002,,,,,,,,,,,,,,,,,,,,,,,,,,,,,,,,,,,,,,,,,,,,ドキ,right,2.8698,0,0,0,0,1,,,,,,,,,,,,,,,,,,,,,,,,,,,
,,,,,,,,,R_WreRxGiHz0XYI7f,2022-07-03_18h59.14.587,jpn_C01,2022.1.2,MacIntel,59.99880002,,,,,,,,,,,,,CartoonStims/boxer_r.jpg,audio/doki.mp3,,,,,,,,,,,,,,,,,,,,,,,,,,,,,,,,,,,,,,1,2,8,5,1,ドキ,,,,,,,,,,,,,,,,,,,,,
,,,,,,,,,R_WreRxGiHz0XYI7f,2022-07-03_18h59.14.587,jpn_C01,2022.1.2,MacIntel,59.99880002,,,,,,,,,,,,,,,,,,,,,,,,,,,,,,,,,,,,,,,,,,,,ムク,right,3.8062,0,0,0,0,1,,,,,,,,,,,,,,,,,,,,,,,,,,,
,,,,,,,,,R_WreRxGiHz0XYI7f,2022-07-03_18h59.14.587,jpn_C01,2022.1.2,MacIntel,59.99880002,,,,,,,,,,,,,CartoonStims/cowboy_r.jpg,audio/muku.mp3,,,,,,,,,,,,,,,,,,,,,,,,,,,,,,,,,,,,,,1,3,9,3,1,ムク,,,,,,,,,,,,,,,,,,,,,
,,,,,,,,,R_WreRxGiHz0XYI7f,2022-07-03_18h59.14.587,jpn_C01,2022.1.2,MacIntel,59.99880002,,,,,,,,,,,,,,,,,,,,,,,,,,,,,,,,,,,,,,,,,,,,ルピン,right,4.3377,0,0,0,0,1,,,,,,,,,,,,,,,,,,,,,,,,,,,
,,,,,,,,,R_WreRxGiHz0XYI7f,2022-07-03_18h59.14.587,jpn_C01,2022.1.2,MacIntel,59.99880002,,,,,,,,,,,,,CartoonStims/burglar_r.jpg,audio/lupin.mp3,,,,,,,,,,,,,,,,,,,,,,,,,,,,,,,,,,,,,,1,4,10,1,1,ルピン,,,,,,,,,,,,,,,,,,,,,
,,,,,,,,,R_WreRxGiHz0XYI7f,2022-07-03_18h59.14.587,jpn_C01,2022.1.2,MacIntel,59.99880002,,,,,,,,,,,,,,,,,,,,,,,,,,,,,,,,,,,,,,,,,,,,ホレト,right,4.5102,0,0,0,0,1,,,,,,,,,,,,,,,,,,,,,,,,,,,
,,,,,,,,,R_WreRxGiHz0XYI7f,2022-07-03_18h59.14.587,jpn_C01,2022.1.2,MacIntel,59.99880002,,,,,,,,,,,,,CartoonStims/chef_r.jpg,audio/horeto.mp3,,,,,,,,,,,,,,,,,,,,,,,,,,,,,,,,,,,,,,1,5,11,2,1,ホレト,,,,,,,,,,,,,,,,,,,,,
,,,,,,,,,R_WreRxGiHz0XYI7f,2022-07-03_18h59.14.587,jpn_C01,2022.1.2,MacIntel,59.99880002,,,,,,,,,,,,,,,,,,,,,,,,,,,,,,,,,,,,,,,,,,,,,,,,,,,,,,,,,,,space,1.8629,0,0,0,0,1,NounExposure.xlsx,"最初のトライアルでは、 画像が表示され、 その画像の下に単語が出てきます。 またこの単語の音も聞くことができます。 この音を大きな声で復唱してください。 そしてこの画像がどのような単語を示しているのか, 考えてみてください。 その後、 続きのボタンを押すと次の単語の学習が始まります。

スペースキーを押して、学習を始めましょう。",3,NounFCT.xlsx,ここから語彙のクイズが始まります。スクリーンに表示される単語に合う画像をキーボードの右と左の矢印キーを使って選択してください。,NounTest.xlsx,2,次に、これまで学習してきたことをアウトプットしていただきます。 表示される画像を描写していると思う単語を、テキストボックスにタイプしてください。,1,"ここまでが最初のトライアルです。ここで休憩をとっても構いません。

休憩が済みましたら、スペースキーを押して続きを始めましょう。",,,
,,,,,,,,,R_WreRxGiHz0XYI7f,2022-07-03_18h59.14.587,jpn_C01,2022.1.2,MacIntel,59.99880002,space,4.3207,space,21.4745,0,0,0,6,1,セル　ムク　ピポ,,,CartoonStims/cowboy_kick_doctor_r.jpg,audio/serumukupipo.mp3,,,,,,,,,,,,,,,,,,,,,,,,,,,,,,,,,,,,,,,,,,,,,,,,,,,,,,,,,,,,,,,,
,,,,,,,,,R_WreRxGiHz0XYI7f,2022-07-03_18h59.14.587,jpn_C01,2022.1.2,MacIntel,59.99880002,,,space,9.2966,0,1,1,26,1,パツ　ルピン　ピポ,,,CartoonStims/burglar_shoot_doctor_r.jpg,audio/patsulupinpipo.mp3,,,,,,,,,,,,,,,,,,,,,,,,,,,,,,,,,,,,,,,,,,,,,,,,,,,,,,,,,,,,,,,,
,,,,,,,,,R_WreRxGiHz0XYI7f,2022-07-03_18h59.14.587,jpn_C01,2022.1.2,MacIntel,59.99880002,,,space,4.6318,0,2,2,9,1,セル　ピポ　シド,,,CartoonStims/doctor_kick_artist_r.jpg,audio/serupiposido.mp3,,,,,,,,,,,,,,,,,,,,,,,,,,,,,,,,,,,,,,,,,,,,,,,,,,,,,,,,,,,,,,,,
,,,,,,,,,R_WreRxGiHz0XYI7f,2022-07-03_18h59.14.587,jpn_C01,2022.1.2,MacIntel,59.99880002,,,space,3.604,0,3,3,15,1,トマ　ルピン　ピポ,,,CartoonStims/burglar_point_doctor_r.jpg,audio/tomalupinpipo.mp3,,,,,,,,,,,,,,,,,,,,,,,,,,,,,,,,,,,,,,,,,,,,,,,,,,,,,,,,,,,,,,,,
,,,,,,,,,R_WreRxGiHz0XYI7f,2022-07-03_18h59.14.587,jpn_C01,2022.1.2,MacIntel,59.99880002,,,space,10.422,0,4,4,40,1,プミ　ホレト　シド,,,CartoonStims/chef_punch_artist_r.jpg,audio/pumihoretosido.mp3,,,,,,,,,,,,,,,,,,,,,,,,,,,,,,,,,,,,,,,,,,,,,,,,,,,,,,,,,,,,,,,,
,,,,,,,,,R_WreRxGiHz0XYI7f,2022-07-03_18h59.14.587,jpn_C01,2022.1.2,MacIntel,59.99880002,,,space,5.6798,0,5,5,23,1,トマ　ドキ　ホレト,,,CartoonStims/boxer_point_chef_r.jpg,audio/tomadokihoreto.mp3,,,,,,,,,,,,,,,,,,,,,,,,,,,,,,,,,,,,,,,,,,,,,,,,,,,,,,,,,,,,,,,,
,,,,,,,,,R_WreRxGiHz0XYI7f,2022-07-03_18h59.14.587,jpn_C01,2022.1.2,MacIntel,59.99880002,,,space,3.0354,0,6,6,1,1,セル 　シド 　ホレト,,,CartoonStims/artist_kick_chef_r.jpg,audio/serusidohoreto.mp3,,,,,,,,,,,,,,,,,,,,,,,,,,,,,,,,,,,,,,,,,,,,,,,,,,,,,,,,,,,,,,,,
,,,,,,,,,R_WreRxGiHz0XYI7f,2022-07-03_18h59.14.587,jpn_C01,2022.1.2,MacIntel,59.99880002,,,space,6.6565,0,7,7,41,1,プミ　ホレト　ルピン,,,CartoonStims/chef_punch_burglar_r.jpg,audio/pumihoretolupin.mp3,,,,,,,,,,,,,,,,,,,,,,,,,,,,,,,,,,,,,,,,,,,,,,,,,,,,,,,,,,,,,,,,
,,,,,,,,,R_WreRxGiHz0XYI7f,2022-07-03_18h59.14.587,jpn_C01,2022.1.2,MacIntel,59.99880002,,,space,5.692,0,8,8,7,1,セル　ムク　ドキ,,,CartoonStims/cowboy_kick_boxer_r.jpg,audio/serumukudoki.mp3,,,,,,,,,,,,,,,,,,,,,,,,,,,,,,,,,,,,,,,,,,,,,,,,,,,,,,,,,,,,,,,,
,,,,,,,,,R_WreRxGiHz0XYI7f,2022-07-03_18h59.14.587,jpn_C01,2022.1.2,MacIntel,59.99880002,,,space,6.3034,0,9,9,44,1,プミ　ピポ　ホレト,,,CartoonStims/doctor_punch_chef_r.jpg,audio/pumipipohoreto.mp3,,,,,,,,,,,,,,,,,,,,,,,,,,,,,,,,,,,,,,,,,,,,,,,,,,,,,,,,,,,,,,,,
,,,,,,,,,R_WreRxGiHz0XYI7f,2022-07-03_18h59.14.587,jpn_C01,2022.1.2,MacIntel,59.99880002,,,space,2.5181,0,10,10,18,1,トマ　ムク　ドキ,,,CartoonStims/cowboy_point_boxer_r.jpg,audio/tomamukudoki.mp3,,,,,,,,,,,,,,,,,,,,,,,,,,,,,,,,,,,,,,,,,,,,,,,,,,,,,,,,,,,,,,,,
,,,,,,,,,R_WreRxGiHz0XYI7f,2022-07-03_18h59.14.587,jpn_C01,2022.1.2,MacIntel,59.99880002,,,space,4.2026,0,11,11,33,1,パツ　ピポ　ホレト,,,CartoonStims/doctor_shoot_chef_r.jpg,audio/patsupipohoreto.mp3,,,,,,,,,,,,,,,,,,,,,,,,,,,,,,,,,,,,,,,,,,,,,,,,,,,,,,,,,,,,,,,,
,,,,,,,,,R_WreRxGiHz0XYI7f,2022-07-03_18h59.14.587,jpn_C01,2022.1.2,MacIntel,59.99880002,,,space,1.5028,0,12,12,22,1,トマ　ドキ　ルピン,,,CartoonStims/boxer_point_burglar_r.jpg,audio/tomadokilupin.mp3,,,,,,,,,,,,,,,,,,,,,,,,,,,,,,,,,,,,,,,,,,,,,,,,,,,,,,,,,,,,,,,,
,,,,,,,,,R_WreRxGiHz0XYI7f,2022-07-03_18h59.14.587,jpn_C01,2022.1.2,MacIntel,59.99880002,,,space,1.3795,0,13,13,27,1,パツ　ルピン　ドキ,,,CartoonStims/burglar_shoot_boxer_r.jpg,audio/patsulupindoki.mp3,,,,,,,,,,,,,,,,,,,,,,,,,,,,,,,,,,,,,,,,,,,,,,,,,,,,,,,,,,,,,,,,
,,,,,,,,,R_WreRxGiHz0XYI7f,2022-07-03_18h59.14.587,jpn_C01,2022.1.2,MacIntel,59.99880002,,,space,2.2344,0,14,14,32,1,パツ　ピポ　ルピン,,,CartoonStims/doctor_shoot_burglar_r.jpg,audio/patsupipolupin.mp3,,,,,,,,,,,,,,,,,,,,,,,,,,,,,,,,,,,,,,,,,,,,,,,,,,,,,,,,,,,,,,,,
,,,,,,,,,R_WreRxGiHz0XYI7f,2022-07-03_18h59.14.587,jpn_C01,2022.1.2,MacIntel,59.99880002,,,space,1.9571,0,15,15,35,1,パツ　ドキ　ムク,,,CartoonStims/boxer_shoot_cowboy_r.jpg,audio/patsudokimuku.mp3,,,,,,,,,,,,,,,,,,,,,,,,,,,,,,,,,,,,,,,,,,,,,,,,,,,,,,,,,,,,,,,,
,,,,,,,,,R_WreRxGiHz0XYI7f,2022-07-03_18h59.14.587,jpn_C01,2022.1.2,MacIntel,59.99880002,,,space,2.8382,0,16,16,13,1,トマ　シド　ムク,,,CartoonStims/artist_point_cowboy_r.jpg,audio/tomasidomuku.mp3,,,,,,,,,,,,,,,,,,,,,,,,,,,,,,,,,,,,,,,,,,,,,,,,,,,,,,,,,,,,,,,,
,,,,,,,,,R_WreRxGiHz0XYI7f,2022-07-03_18h59.14.587,jpn_C01,2022.1.2,MacIntel,59.99880002,,,space,1.4869,0,17,17,39,1,プミ　ルピン　シド,,,CartoonStims/burglar_punch_artist_r.jpg,audio/pumilupinsido.mp3,,,,,,,,,,,,,,,,,,,,,,,,,,,,,,,,,,,,,,,,,,,,,,,,,,,,,,,,,,,,,,,,
,,,,,,,,,R_WreRxGiHz0XYI7f,2022-07-03_18h59.14.587,jpn_C01,2022.1.2,MacIntel,59.99880002,,,space,1.5042,0,18,18,4,1,セル　ホレト　ムク,,,CartoonStims/chef_kick_cowboy_r.jpg,audio/seruhoretomuku.mp3,,,,,,,,,,,,,,,,,,,,,,,,,,,,,,,,,,,,,,,,,,,,,,,,,,,,,,,,,,,,,,,,
,,,,,,,,,R_WreRxGiHz0XYI7f,2022-07-03_18h59.14.587,jpn_C01,2022.1.2,MacIntel,59.99880002,,,space,1.2722,0,19,19,24,1,パツ　シド　ムク,,,CartoonStims/artist_shoot_cowboy_r.jpg,audio/patsusidomuku.mp3,,,,,,,,,,,,,,,,,,,,,,,,,,,,,,,,,,,,,,,,,,,,,,,,,,,,,,,,,,,,,,,,
,,,,,,,,,R_WreRxGiHz0XYI7f,2022-07-03_18h59.14.587,jpn_C01,2022.1.2,MacIntel,59.99880002,,,space,3.4525,0,20,20,43,1,プミ　ムク　ホレト,,,CartoonStims/cowboy_punch_chef_r.jpg,audio/pumimukuhoreto.mp3,,,,,,,,,,,,,,,,,,,,,,,,,,,,,,,,,,,,,,,,,,,,,,,,,,,,,,,,,,,,,,,,
,,,,,,,,,R_WreRxGiHz0XYI7f,2022-07-03_18h59.14.587,jpn_C01,2022.1.2,MacIntel,59.99880002,,,space,1.6224,0,21,21,21,1,トマ　ピポ　ルピン,,,CartoonStims/doctor_point_burglar_r.jpg,audio/tomapipolupin.mp3,,,,,,,,,,,,,,,,,,,,,,,,,,,,,,,,,,,,,,,,,,,,,,,,,,,,,,,,,,,,,,,,
,,,,,,,,,R_WreRxGiHz0XYI7f,2022-07-03_18h59.14.587,jpn_C01,2022.1.2,MacIntel,59.99880002,,,space,2.0689,0,22,22,47,1,プミ　ドキ　ピポ,,,CartoonStims/boxer_punch_doctor_r.jpg,audio/pumidokipipo.mp3,,,,,,,,,,,,,,,,,,,,,,,,,,,,,,,,,,,,,,,,,,,,,,,,,,,,,,,,,,,,,,,,
,,,,,,,,,R_WreRxGiHz0XYI7f,2022-07-03_18h59.14.587,jpn_C01,2022.1.2,MacIntel,59.99880002,,,space,2.1388,0,23,23,30,1,パツ　ムク　シド,,,CartoonStims/cowboy_shoot_artist_r.jpg,audio/patsumukusido.mp3,,,,,,,,,,,,,,,,,,,,,,,,,,,,,,,,,,,,,,,,,,,,,,,,,,,,,,,,,,,,,,,,
,,,,,,,,,R_WreRxGiHz0XYI7f,2022-07-03_18h59.14.587,jpn_C01,2022.1.2,MacIntel,59.99880002,,,space,1.0914,0,24,24,31,1,パツ　ムク　ルピン,,,CartoonStims/cowboy_shoot_burglar_r.jpg,audio/patsumukulupin.mp3,,,,,,,,,,,,,,,,,,,,,,,,,,,,,,,,,,,,,,,,,,,,,,,,,,,,,,,,,,,,,,,,
,,,,,,,,,R_WreRxGiHz0XYI7f,2022-07-03_18h59.14.587,jpn_C01,2022.1.2,MacIntel,59.99880002,,,space,2.2223,0,25,25,5,1,セル　ホレト　ピポ,,,CartoonStims/chef_kick_doctor_r.jpg,audio/seruhoretopipo.mp3,,,,,,,,,,,,,,,,,,,,,,,,,,,,,,,,,,,,,,,,,,,,,,,,,,,,,,,,,,,,,,,,
,,,,,,,,,R_WreRxGiHz0XYI7f,2022-07-03_18h59.14.587,jpn_C01,2022.1.2,MacIntel,59.99880002,,,space,2.8053,0,26,26,42,1,プミ　ムク　ルピン,,,CartoonStims/cowboy_punch_burglar_r.jpg,audio/pumimukulupin.mp3,,,,,,,,,,,,,,,,,,,,,,,,,,,,,,,,,,,,,,,,,,,,,,,,,,,,,,,,,,,,,,,,
,,,,,,,,,R_WreRxGiHz0XYI7f,2022-07-03_18h59.14.587,jpn_C01,2022.1.2,MacIntel,59.99880002,,,space,2.6707,0,27,27,0,1,セル　シド　ルピン,,,CartoonStims/artist_kick_burglar_r.jpg,audio/serusidolupin.mp3,,,,,,,,,,,,,,,,,,,,,,,,,,,,,,,,,,,,,,,,,,,,,,,,,,,,,,,,,,,,,,,,
,,,,,,,,,R_WreRxGiHz0XYI7f,2022-07-03_18h59.14.587,jpn_C01,2022.1.2,MacIntel,59.99880002,,,space,2.6194,0,28,28,17,1,トマ　ホレト　ドキ,,,CartoonStims/chef_point_boxer_r.jpg,audio/tomahoretodoki.mp3,,,,,,,,,,,,,,,,,,,,,,,,,,,,,,,,,,,,,,,,,,,,,,,,,,,,,,,,,,,,,,,,
,,,,,,,,,R_WreRxGiHz0XYI7f,2022-07-03_18h59.14.587,jpn_C01,2022.1.2,MacIntel,59.99880002,,,space,1.3378,0,29,29,14,1,トマ　ルピン　ムク,,,CartoonStims/burglar_point_cowboy_r.jpg,audio/tomalupinmuku.mp3,,,,,,,,,,,,,,,,,,,,,,,,,,,,,,,,,,,,,,,,,,,,,,,,,,,,,,,,,,,,,,,,
,,,,,,,,,R_WreRxGiHz0XYI7f,2022-07-03_18h59.14.587,jpn_C01,2022.1.2,MacIntel,59.99880002,,,space,3.8255,0,30,30,45,1,プミ　ピポ　ムク,,,CartoonStims/doctor_punch_cowboy_r.jpg,audio/pumipipomuku.mp3,,,,,,,,,,,,,,,,,,,,,,,,,,,,,,,,,,,,,,,,,,,,,,,,,,,,,,,,,,,,,,,,
,,,,,,,,,R_WreRxGiHz0XYI7f,2022-07-03_18h59.14.587,jpn_C01,2022.1.2,MacIntel,59.99880002,,,space,1.6163,0,31,31,29,1,パツ　ホレト　シド,,,CartoonStims/chef_shoot_artist_r.jpg,audio/patsuhoretosido.mp3,,,,,,,,,,,,,,,,,,,,,,,,,,,,,,,,,,,,,,,,,,,,,,,,,,,,,,,,,,,,,,,,
,,,,,,,,,R_WreRxGiHz0XYI7f,2022-07-03_18h59.14.587,jpn_C01,2022.1.2,MacIntel,59.99880002,,,space,2.3053,0,32,32,16,1,トマ　ホレト　ピポ,,,CartoonStims/chef_point_doctor_r.jpg,audio/tomahoretopipo.mp3,,,,,,,,,,,,,,,,,,,,,,,,,,,,,,,,,,,,,,,,,,,,,,,,,,,,,,,,,,,,,,,,
,,,,,,,,,R_WreRxGiHz0XYI7f,2022-07-03_18h59.14.587,jpn_C01,2022.1.2,MacIntel,59.99880002,,,space,2.1427,0,33,33,46,1,プミ　ドキ　ムク,,,CartoonStims/boxer_punch_cowboy_r.jpg,audio/pumidokimuku.mp3,,,,,,,,,,,,,,,,,,,,,,,,,,,,,,,,,,,,,,,,,,,,,,,,,,,,,,,,,,,,,,,,
,,,,,,,,,R_WreRxGiHz0XYI7f,2022-07-03_18h59.14.587,jpn_C01,2022.1.2,MacIntel,59.99880002,,,space,1.4842,0,34,34,3,1,セル　ルピン　ムク,,,CartoonStims/burglar_kick_cowboy_r.jpg,audio/serulupinmuku.mp3,,,,,,,,,,,,,,,,,,,,,,,,,,,,,,,,,,,,,,,,,,,,,,,,,,,,,,,,,,,,,,,,
,,,,,,,,,R_WreRxGiHz0XYI7f,2022-07-03_18h59.14.587,jpn_C01,2022.1.2,MacIntel,59.99880002,,,space,1.203,0,35,35,36,1,プミ　シド　ピポ,,,CartoonStims/artist_punch_doctor_r.jpg,audio/pumisidopipo.mp3,,,,,,,,,,,,,,,,,,,,,,,,,,,,,,,,,,,,,,,,,,,,,,,,,,,,,,,,,,,,,,,,
,,,,,,,,,R_WreRxGiHz0XYI7f,2022-07-03_18h59.14.587,jpn_C01,2022.1.2,MacIntel,59.99880002,,,space,2.2525,0,36,36,20,1,トマ　ピポ　シド,,,CartoonStims/doctor_point_artist_r.jpg,audio/tomapiposido.mp3,,,,,,,,,,,,,,,,,,,,,,,,,,,,,,,,,,,,,,,,,,,,,,,,,,,,,,,,,,,,,,,,
,,,,,,,,,R_WreRxGiHz0XYI7f,2022-07-03_18h59.14.587,jpn_C01,2022.1.2,MacIntel,59.99880002,,,space,2.3421,0,37,37,8,1,セル　ピポ　ドキ,,,CartoonStims/doctor_kick_boxer_r.jpg,audio/serupipodoki.mp3,,,,,,,,,,,,,,,,,,,,,,,,,,,,,,,,,,,,,,,,,,,,,,,,,,,,,,,,,,,,,,,,
,,,,,,,,,R_WreRxGiHz0XYI7f,2022-07-03_18h59.14.587,jpn_C01,2022.1.2,MacIntel,59.99880002,,,space,1.986,0,38,38,34,1,パツ　ドキ　ホレト,,,CartoonStims/boxer_shoot_chef_r.jpg,audio/patsudokihoreto.mp3,,,,,,,,,,,,,,,,,,,,,,,,,,,,,,,,,,,,,,,,,,,,,,,,,,,,,,,,,,,,,,,,
,,,,,,,,,R_WreRxGiHz0XYI7f,2022-07-03_18h59.14.587,jpn_C01,2022.1.2,MacIntel,59.99880002,,,space,1.1036,0,39,39,28,1,パツ　ホレト　ドキ,,,CartoonStims/chef_shoot_boxer_r.jpg,audio/patsuhoretodoki.mp3,,,,,,,,,,,,,,,,,,,,,,,,,,,,,,,,,,,,,,,,,,,,,,,,,,,,,,,,,,,,,,,,
,,,,,,,,,R_WreRxGiHz0XYI7f,2022-07-03_18h59.14.587,jpn_C01,2022.1.2,MacIntel,59.99880002,,,space,0.9457,0,40,40,10,1,セル　ドキ　シド,,,CartoonStims/boxer_kick_artist_r.jpg,audio/serudokisido.mp3,,,,,,,,,,,,,,,,,,,,,,,,,,,,,,,,,,,,,,,,,,,,,,,,,,,,,,,,,,,,,,,,
,,,,,,,,,R_WreRxGiHz0XYI7f,2022-07-03_18h59.14.587,jpn_C01,2022.1.2,MacIntel,59.99880002,,,space,1.2035,0,41,41,25,1,パツ　シド　ピポ,,,CartoonStims/artist_shoot_doctor_r.jpg,audio/patsusidopipo.mp3,,,,,,,,,,,,,,,,,,,,,,,,,,,,,,,,,,,,,,,,,,,,,,,,,,,,,,,,,,,,,,,,
,,,,,,,,,R_WreRxGiHz0XYI7f,2022-07-03_18h59.14.587,jpn_C01,2022.1.2,MacIntel,59.99880002,,,space,1.4043,0,42,42,2,1,セル 　ルピン 　ホレト,,,CartoonStims/burglar_kick_chef_r.jpg,audio/serulupinhoreto.mp3,,,,,,,,,,,,,,,,,,,,,,,,,,,,,,,,,,,,,,,,,,,,,,,,,,,,,,,,,,,,,,,,
,,,,,,,,,R_WreRxGiHz0XYI7f,2022-07-03_18h59.14.587,jpn_C01,2022.1.2,MacIntel,59.99880002,,,space,1.7206,0,43,43,19,1,トマ　ムク　シド,,,CartoonStims/cowboy_point_artist_r.jpg,audio/tomamukusido.mp3,,,,,,,,,,,,,,,,,,,,,,,,,,,,,,,,,,,,,,,,,,,,,,,,,,,,,,,,,,,,,,,,
,,,,,,,,,R_WreRxGiHz0XYI7f,2022-07-03_18h59.14.587,jpn_C01,2022.1.2,MacIntel,59.99880002,,,space,2.416,0,44,44,38,1,プミ　ルピン　ドキ,,,CartoonStims/burglar_punch_boxer_r.jpg,audio/pumilupindoki.mp3,,,,,,,,,,,,,,,,,,,,,,,,,,,,,,,,,,,,,,,,,,,,,,,,,,,,,,,,,,,,,,,,
,,,,,,,,,R_WreRxGiHz0XYI7f,2022-07-03_18h59.14.587,jpn_C01,2022.1.2,MacIntel,59.99880002,,,space,1.454,0,45,45,11,1,セル　ドキ　ルピン,,,CartoonStims/boxer_kick_burglar_r.jpg,audio/serudokilupin.mp3,,,,,,,,,,,,,,,,,,,,,,,,,,,,,,,,,,,,,,,,,,,,,,,,,,,,,,,,,,,,,,,,
,,,,,,,,,R_WreRxGiHz0XYI7f,2022-07-03_18h59.14.587,jpn_C01,2022.1.2,MacIntel,59.99880002,,,space,1.1201,0,46,46,12,1,トマ　シド　ホレト,,,CartoonStims/artist_point_chef_r.jpg,audio/tomasidohoreto.mp3,,,,,,,,,,,,,,,,,,,,,,,,,,,,,,,,,,,,,,,,,,,,,,,,,,,,,,,,,,,,,,,,
,,,,,,,,,R_WreRxGiHz0XYI7f,2022-07-03_18h59.14.587,jpn_C01,2022.1.2,MacIntel,59.99880002,,,space,1.82,0,47,47,37,1,プミ　シド　ドキ,,,CartoonStims/artist_punch_boxer_r.jpg,audio/pumisidodoki.mp3,,,,,,,,,,,,,,,,,,,,,,,,,,,,,,,,,,,,,,,,,,,,,,,,,,,,,,,,,,,,,,,,
,,,,,,,,,R_WreRxGiHz0XYI7f,2022-07-03_18h59.14.587,jpn_C01,2022.1.2,MacIntel,59.99880002,,,,,,,,,,,,,,,space,1.0285,left,1,3.7027,0,0,0,0,1,,,,,,,,,,,,,,,,,,,,,,,,,,,,,,,,,,,,,,,,,,,,,,,,,,,,,,
,,,,,,,,,R_WreRxGiHz0XYI7f,2022-07-03_18h59.14.587,jpn_C01,2022.1.2,MacIntel,59.99880002,,,,,,,,,,,,,,,,,,,,,,,,,0,0,0,4,1,CartoonStims/burglar_point_boxer_r.jpg,トマ　ルピン　ドキ,CartoonStims/burglar_kick_boxer_r.jpg,left,CartoonStims/burglar_point_boxer_r.jpg,audio/tomalupindoki.mp3,残念！ こちらが正しい画像です。,,,,,,,,,,,,,,,,,,,,,,,,,,,,,,,,,,,,,,,,,,
,,,,,,,,,R_WreRxGiHz0XYI7f,2022-07-03_18h59.14.587,jpn_C01,2022.1.2,MacIntel,59.99880002,,,,,,,,,,,,,,,,,right,1,3.7587,,,,,,,,,,,,,,,,,,0,0,0,0,1,,,,,,,,,,,,,,,,,,,,,,,,,,,,,,,,,,,,,
,,,,,,,,,R_WreRxGiHz0XYI7f,2022-07-03_18h59.14.587,jpn_C01,2022.1.2,MacIntel,59.99880002,,,,,,,,,,,,,,,,,,,,,,,,,0,1,1,9,1,CartoonStims/chef_kick_artist_r.jpg,セル　ムク　シド,CartoonStims/cowboy_kick_artist_r.jpg,right,CartoonStims/cowboy_kick_artist_r.jpg,audio/serumukusido.mp3,残念！ こちらが正しい画像です。,,,,,,,,,,,,,,,,,,,,,,,,,,,,,,,,,,,,,,,,,,
,,,,,,,,,R_WreRxGiHz0XYI7f,2022-07-03_18h59.14.587,jpn_C01,2022.1.2,MacIntel,59.99880002,,,,,,,,,,,,,,,,,left,1,2.8424,0,0,0,0,1,,,,,,,,,,,,,,,,,,,,,,,,,,,,,,,,,,,,,,,,,,,,,,,,,,,,,,
,,,,,,,,,R_WreRxGiHz0XYI7f,2022-07-03_18h59.14.587,jpn_C01,2022.1.2,MacIntel,59.99880002,,,,,,,,,,,,,,,,,,,,,,,,,0,2,2,2,1,CartoonStims/boxer_shoot_doctor_r.jpg,パツ　ドキ　ピポ,CartoonStims/boxer_shoot_artist_r.jpg,left,CartoonStims/boxer_shoot_doctor_r.jpg,audio/patsudokipipo.mp3,残念！ こちらが正しい画像です。,,,,,,,,,,,,,,,,,,,,,,,,,,,,,,,,,,,,,,,,,,
,,,,,,,,,R_WreRxGiHz0XYI7f,2022-07-03_18h59.14.587,jpn_C01,2022.1.2,MacIntel,59.99880002,,,,,,,,,,,,,,,,,right,1,4.184,,,,,,,,,,,,,,,,,,0,0,0,0,1,,,,,,,,,,,,,,,,,,,,,,,,,,,,,,,,,,,,,
,,,,,,,,,R_WreRxGiHz0XYI7f,2022-07-03_18h59.14.587,jpn_C01,2022.1.2,MacIntel,59.99880002,,,,,,,,,,,,,,,,,,,,,,,,,0,3,3,11,1,CartoonStims/burglar_punch_cowboy_r.jpg,プミ　ホレト　ムク,CartoonStims/chef_punch_cowboy_r.jpg,right,CartoonStims/chef_punch_cowboy_r.jpg,audio/pumihoretomuku.mp3,残念！ こちらが正しい画像です。,,,,,,,,,,,,,,,,,,,,,,,,,,,,,,,,,,,,,,,,,,
,,,,,,,,,R_WreRxGiHz0XYI7f,2022-07-03_18h59.14.587,jpn_C01,2022.1.2,MacIntel,59.99880002,,,,,,,,,,,,,,,,,left,1,3.8881,0,0,0,0,1,,,,,,,,,,,,,,,,,,,,,,,,,,,,,,,,,,,,,,,,,,,,,,,,,,,,,,
,,,,,,,,,R_WreRxGiHz0XYI7f,2022-07-03_18h59.14.587,jpn_C01,2022.1.2,MacIntel,59.99880002,,,,,,,,,,,,,,,,,,,,,,,,,0,4,4,0,1,CartoonStims/doctor_kick_burglar_r.jpg,セル　ピポ　ルピン,CartoonStims/doctor_kick_chef_r.jpg,left,CartoonStims/doctor_kick_burglar_r.jpg,audio/serupipolupin.mp3,残念！ こちらが正しい画像です。,,,,,,,,,,,,,,,,,,,,,,,,,,,,,,,,,,,,,,,,,,
,,,,,,,,,R_WreRxGiHz0XYI7f,2022-07-03_18h59.14.587,jpn_C01,2022.1.2,MacIntel,59.99880002,,,,,,,,,,,,,,,,,left,1,2.1874,0,0,0,0,1,,,,,,,,,,,,,,,,,,,,,,,,,,,,,,,,,,,,,,,,,,,,,,,,,,,,,,
,,,,,,,,,R_WreRxGiHz0XYI7f,2022-07-03_18h59.14.587,jpn_C01,2022.1.2,MacIntel,59.99880002,,,,,,,,,,,,,,,,,,,,,,,,,0,5,5,8,1,CartoonStims/doctor_point_cowboy_r.jpg,トマ　ピポ　ムク,CartoonStims/boxer_point_cowboy_r.jpg,left,CartoonStims/doctor_point_cowboy_r.jpg,audio/tomapipomuku.mp3,残念！ こちらが正しい画像です。,,,,,,,,,,,,,,,,,,,,,,,,,,,,,,,,,,,,,,,,,,
,,,,,,,,,R_WreRxGiHz0XYI7f,2022-07-03_18h59.14.587,jpn_C01,2022.1.2,MacIntel,59.99880002,,,,,,,,,,,,,,,,,right,1,1.3854,,,,,,,,,,,,,,,,,,0,0,0,0,1,,,,,,,,,,,,,,,,,,,,,,,,,,,,,,,,,,,,,
,,,,,,,,,R_WreRxGiHz0XYI7f,2022-07-03_18h59.14.587,jpn_C01,2022.1.2,MacIntel,59.99880002,,,,,,,,,,,,,,,,,,,,,,,,,0,6,6,5,1,CartoonStims/cowboy_point_chef_r.jpg,パツ　ムク　ホレト,CartoonStims/cowboy_shoot_chef_r.jpg,right,CartoonStims/cowboy_shoot_chef_r.jpg,audio/patsumukuhoreto.mp3,残念！ こちらが正しい画像です。,,,,,,,,,,,,,,,,,,,,,,,,,,,,,,,,,,,,,,,,,,
,,,,,,,,,R_WreRxGiHz0XYI7f,2022-07-03_18h59.14.587,jpn_C01,2022.1.2,MacIntel,59.99880002,,,,,,,,,,,,,,,,,right,1,2.9656,,,,,,,,,,,,,,,,,,0,0,0,0,1,,,,,,,,,,,,,,,,,,,,,,,,,,,,,,,,,,,,,
,,,,,,,,,R_WreRxGiHz0XYI7f,2022-07-03_18h59.14.587,jpn_C01,2022.1.2,MacIntel,59.99880002,,,,,,,,,,,,,,,,,,,,,,,,,0,7,7,3,1,CartoonStims/cowboy_punch_doctor_r.jpg,プミ　ムク　ドキ,CartoonStims/cowboy_punch_boxer_r.jpg,right,CartoonStims/cowboy_punch_boxer_r.jpg,audio/pumimukudoki.mp3,残念！ こちらが正しい画像です。,,,,,,,,,,,,,,,,,,,,,,,,,,,,,,,,,,,,,,,,,,
,,,,,,,,,R_WreRxGiHz0XYI7f,2022-07-03_18h59.14.587,jpn_C01,2022.1.2,MacIntel,59.99880002,,,,,,,,,,,,,,,,,right,1,2.789,,,,,,,,,,,,,,,,,,0,0,0,0,1,,,,,,,,,,,,,,,,,,,,,,,,,,,,,,,,,,,,,
,,,,,,,,,R_WreRxGiHz0XYI7f,2022-07-03_18h59.14.587,jpn_C01,2022.1.2,MacIntel,59.99880002,,,,,,,,,,,,,,,,,,,,,,,,,0,8,8,7,1,CartoonStims/artist_punch_cowboy_r.jpg,セル　シド　ムク,CartoonStims/artist_kick_cowboy_r.jpg,right,CartoonStims/artist_kick_cowboy_r.jpg,audio/serusidomuku.mp3,残念！ こちらが正しい画像です。,,,,,,,,,,,,,,,,,,,,,,,,,,,,,,,,,,,,,,,,,,
,,,,,,,,,R_WreRxGiHz0XYI7f,2022-07-03_18h59.14.587,jpn_C01,2022.1.2,MacIntel,59.99880002,,,,,,,,,,,,,,,,,right,1,2.1062,,,,,,,,,,,,,,,,,,0,0,0,0,1,,,,,,,,,,,,,,,,,,,,,,,,,,,,,,,,,,,,,
,,,,,,,,,R_WreRxGiHz0XYI7f,2022-07-03_18h59.14.587,jpn_C01,2022.1.2,MacIntel,59.99880002,,,,,,,,,,,,,,,,,,,,,,,,,0,9,9,1,1,CartoonStims/chef_point_burglar_r.jpg,トマ　ホレト　シド,CartoonStims/chef_point_artist_r.jpg,right,CartoonStims/chef_point_artist_r.jpg,audio/tomahoretosido.mp3,残念！ こちらが正しい画像です。,,,,,,,,,,,,,,,,,,,,,,,,,,,,,,,,,,,,,,,,,,
,,,,,,,,,R_WreRxGiHz0XYI7f,2022-07-03_18h59.14.587,jpn_C01,2022.1.2,MacIntel,59.99880002,,,,,,,,,,,,,,,,,left,1,3.9205,0,0,0,0,1,,,,,,,,,,,,,,,,,,,,,,,,,,,,,,,,,,,,,,,,,,,,,,,,,,,,,,
,,,,,,,,,R_WreRxGiHz0XYI7f,2022-07-03_18h59.14.587,jpn_C01,2022.1.2,MacIntel,59.99880002,,,,,,,,,,,,,,,,,,,,,,,,,0,10,10,10,1,CartoonStims/artist_shoot_burglar_r.jpg,パツ　シド　ルピン,CartoonStims/chef_shoot_burglar_r.jpg,left,CartoonStims/artist_shoot_burglar_r.jpg,audio/patsusidolupin.mp3,残念！ こちらが正しい画像です。,,,,,,,,,,,,,,,,,,,,,,,,,,,,,,,,,,,,,,,,,,
,,,,,,,,,R_WreRxGiHz0XYI7f,2022-07-03_18h59.14.587,jpn_C01,2022.1.2,MacIntel,59.99880002,,,,,,,,,,,,,,,,,left,1,3.8382,0,0,0,0,1,,,,,,,,,,,,,,,,,,,,,,,,,,,,,,,,,,,,,,,,,,,,,,,,,,,,,,
,,,,,,,,,R_WreRxGiHz0XYI7f,2022-07-03_18h59.14.587,jpn_C01,2022.1.2,MacIntel,59.99880002,,,,,,,,,,,,,,,,,,,,,,,,,0,11,11,6,1,CartoonStims/doctor_punch_boxer_r.jpg,プミ　ピポ　ドキ,CartoonStims/doctor_shoot_boxer_r.jpg,left,CartoonStims/doctor_punch_boxer_r.jpg,audio/pumipipodoki.mp3,残念！ こちらが正しい画像です。,,,,,,,,,,,,,,,,,,,,,,,,,,,,,,,,,,,,,,,,,,
,,,,,,,,,R_WreRxGiHz0XYI7f,2022-07-03_18h59.14.587,jpn_C01,2022.1.2,MacIntel,59.99880002,,,,,,,,,,,,,,,,,,,,,,,,,,,,,,,,,,,,,,,,,,space,6.0193,セル　ピポ　ホレト,right,13.3179,0,0,0,0,1,,,,,,,,,,,,,,,,,,,,,,,,,,,
,,,,,,,,,R_WreRxGiHz0XYI7f,2022-07-03_18h59.14.587,jpn_C01,2022.1.2,MacIntel,59.99880002,,,,,,,,,,,,,CartoonStims/doctor_kick_chef_r.jpg,audio/serupipohoreto.mp3,,,,,,,,,,,,,,,,,,,,,,,,,,,,,,,,,,,,,,0,0,0,1,1,セル　ピポ　ホレト,,,,,,,,,,,,,,,,,,,,,
,,,,,,,,,R_WreRxGiHz0XYI7f,2022-07-03_18h59.14.587,jpn_C01,2022.1.2,MacIntel,59.99880002,,,,,,,,,,,,,,,,,,,,,,,,,,,,,,,,,,,,,,,,,,,,プミ　シド　ルピン,right,17.1526,0,0,0,0,1,,,,,,,,,,,,,,,,,,,,,,,,,,,
,,,,,,,,,R_WreRxGiHz0XYI7f,2022-07-03_18h59.14.587,jpn_C01,2022.1.2,MacIntel,59.99880002,,,,,,,,,,,,,CartoonStims/artist_punch_burglar_r.jpg,audio/pumisidolupin.mp3,,,,,,,,,,,,,,,,,,,,,,,,,,,,,,,,,,,,,,0,1,1,9,1,プミ　シド　ルピン,,,,,,,,,,,,,,,,,,,,,
,,,,,,,,,R_WreRxGiHz0XYI7f,2022-07-03_18h59.14.587,jpn_C01,2022.1.2,MacIntel,59.99880002,,,,,,,,,,,,,,,,,,,,,,,,,,,,,,,,,,,,,,,,,,,,プミ　ピポ　ドキ,right,18.7486,0,0,0,0,1,,,,,,,,,,,,,,,,,,,,,,,,,,,
,,,,,,,,,R_WreRxGiHz0XYI7f,2022-07-03_18h59.14.587,jpn_C01,2022.1.2,MacIntel,59.99880002,,,,,,,,,,,,,CartoonStims/doctor_punch_boxer_r.jpg,audio/pumipipodoki.mp3,,,,,,,,,,,,,,,,,,,,,,,,,,,,,,,,,,,,,,0,2,2,10,1,プミ　ピポ　ドキ,,,,,,,,,,,,,,,,,,,,,
,,,,,,,,,R_WreRxGiHz0XYI7f,2022-07-03_18h59.14.587,jpn_C01,2022.1.2,MacIntel,59.99880002,,,,,,,,,,,,,,,,,,,,,,,,,,,,,,,,,,,,,,,,,,,,プミ　ドキ　シド,right,12.9512,0,0,0,0,1,,,,,,,,,,,,,,,,,,,,,,,,,,,
,,,,,,,,,R_WreRxGiHz0XYI7f,2022-07-03_18h59.14.587,jpn_C01,2022.1.2,MacIntel,59.99880002,,,,,,,,,,,,,CartoonStims/boxer_punch_artist_r.jpg,audio/pumidokisido.mp3,,,,,,,,,,,,,,,,,,,,,,,,,,,,,,,,,,,,,,0,3,3,11,1,プミ　ドキ　シド,,,,,,,,,,,,,,,,,,,,,
,,,,,,,,,R_WreRxGiHz0XYI7f,2022-07-03_18h59.14.587,jpn_C01,2022.1.2,MacIntel,59.99880002,,,,,,,,,,,,,,,,,,,,,,,,,,,,,,,,,,,,,,,,,,,,パツ　ルピン　ホレト,right,11.4869,0,0,0,0,1,,,,,,,,,,,,,,,,,,,,,,,,,,,
,,,,,,,,,R_WreRxGiHz0XYI7f,2022-07-03_18h59.14.587,jpn_C01,2022.1.2,MacIntel,59.99880002,,,,,,,,,,,,,CartoonStims/burglar_shoot_chef_r.jpg,audio/patsulupinhoreto.mp3,,,,,,,,,,,,,,,,,,,,,,,,,,,,,,,,,,,,,,0,4,4,6,1,パツ　ルピン　ホレト,,,,,,,,,,,,,,,,,,,,,
,,,,,,,,,R_WreRxGiHz0XYI7f,2022-07-03_18h59.14.587,jpn_C01,2022.1.2,MacIntel,59.99880002,,,,,,,,,,,,,,,,,,,,,,,,,,,,,,,,,,,,,,,,,,,,パツ　ムク　ピポ,right,10.2309,0,0,0,0,1,,,,,,,,,,,,,,,,,,,,,,,,,,,
,,,,,,,,,R_WreRxGiHz0XYI7f,2022-07-03_18h59.14.587,jpn_C01,2022.1.2,MacIntel,59.99880002,,,,,,,,,,,,,CartoonStims/cowboy_shoot_doctor_r.jpg,audio/patsumukupipo.mp3,,,,,,,,,,,,,,,,,,,,,,,,,,,,,,,,,,,,,,0,5,5,8,1,パツ　ムク　ピポ,,,,,,,,,,,,,,,,,,,,,
,,,,,,,,,R_WreRxGiHz0XYI7f,2022-07-03_18h59.14.587,jpn_C01,2022.1.2,MacIntel,59.99880002,,,,,,,,,,,,,,,,,,,,,,,,,,,,,,,,,,,,,,,,,,,,セル　ムク　ルピン,right,9.4601,0,0,0,0,1,,,,,,,,,,,,,,,,,,,,,,,,,,,
,,,,,,,,,R_WreRxGiHz0XYI7f,2022-07-03_18h59.14.587,jpn_C01,2022.1.2,MacIntel,59.99880002,,,,,,,,,,,,,CartoonStims/cowboy_kick_burglar_r.jpg,audio/serumukulupin.mp3,,,,,,,,,,,,,,,,,,,,,,,,,,,,,,,,,,,,,,0,6,6,0,1,セル　ムク　ルピン,,,,,,,,,,,,,,,,,,,,,
,,,,,,,,,R_WreRxGiHz0XYI7f,2022-07-03_18h59.14.587,jpn_C01,2022.1.2,MacIntel,59.99880002,,,,,,,,,,,,,,,,,,,,,,,,,,,,,,,,,,,,,,,,,,,,パツ　ホレト　ムク,right,10.7128,0,0,0,0,1,,,,,,,,,,,,,,,,,,,,,,,,,,,
,,,,,,,,,R_WreRxGiHz0XYI7f,2022-07-03_18h59.14.587,jpn_C01,2022.1.2,MacIntel,59.99880002,,,,,,,,,,,,,CartoonStims/chef_shoot_cowboy_r.jpg,audio/patsuhoretomuku.mp3,,,,,,,,,,,,,,,,,,,,,,,,,,,,,,,,,,,,,,0,7,7,7,1,パツ　ホレト　ムク,,,,,,,,,,,,,,,,,,,,,
,,,,,,,,,R_WreRxGiHz0XYI7f,2022-07-03_18h59.14.587,jpn_C01,2022.1.2,MacIntel,59.99880002,,,,,,,,,,,,,,,,,,,,,,,,,,,,,,,,,,,,,,,,,,,,セル　ドキ　ムク,right,9.1701,0,0,0,0,1,,,,,,,,,,,,,,,,,,,,,,,,,,,
,,,,,,,,,R_WreRxGiHz0XYI7f,2022-07-03_18h59.14.587,jpn_C01,2022.1.2,MacIntel,59.99880002,,,,,,,,,,,,,CartoonStims/boxer_kick_cowboy_r.jpg,audio/serudokimuku.mp3,,,,,,,,,,,,,,,,,,,,,,,,,,,,,,,,,,,,,,0,8,8,2,1,セル　ドキ　ムク,,,,,,,,,,,,,,,,,,,,,
,,,,,,,,,R_WreRxGiHz0XYI7f,2022-07-03_18h59.14.587,jpn_C01,2022.1.2,MacIntel,59.99880002,,,,,,,,,,,,,,,,,,,,,,,,,,,,,,,,,,,,,,,,,,,,トマ　ホレト　ルピン,right,11.5304,0,0,0,0,1,,,,,,,,,,,,,,,,,,,,,,,,,,,
,,,,,,,,,R_WreRxGiHz0XYI7f,2022-07-03_18h59.14.587,jpn_C01,2022.1.2,MacIntel,59.99880002,,,,,,,,,,,,,CartoonStims/chef_point_burglar_r.jpg,audio/tomahoretolupin.mp3,,,,,,,,,,,,,,,,,,,,,,,,,,,,,,,,,,,,,,0,9,9,5,1,トマ　ホレト　ルピン,,,,,,,,,,,,,,,,,,,,,
,,,,,,,,,R_WreRxGiHz0XYI7f,2022-07-03_18h59.14.587,jpn_C01,2022.1.2,MacIntel,59.99880002,,,,,,,,,,,,,,,,,,,,,,,,,,,,,,,,,,,,,,,,,,,,トマ　シド　ドキ,right,8.9649,0,0,0,0,1,,,,,,,,,,,,,,,,,,,,,,,,,,,
,,,,,,,,,R_WreRxGiHz0XYI7f,2022-07-03_18h59.14.587,jpn_C01,2022.1.2,MacIntel,59.99880002,,,,,,,,,,,,,CartoonStims/artist_point_boxer_r.jpg,audio/tomasidodoki.mp3,,,,,,,,,,,,,,,,,,,,,,,,,,,,,,,,,,,,,,0,10,10,3,1,トマ　シド　ドキ,,,,,,,,,,,,,,,,,,,,,
,,,,,,,,,R_WreRxGiHz0XYI7f,2022-07-03_18h59.14.587,jpn_C01,2022.1.2,MacIntel,59.99880002,,,,,,,,,,,,,,,,,,,,,,,,,,,,,,,,,,,,,,,,,,,,トマ　ルピン　シド,right,10.649,0,0,0,0,1,,,,,,,,,,,,,,,,,,,,,,,,,,,
,,,,,,,,,R_WreRxGiHz0XYI7f,2022-07-03_18h59.14.587,jpn_C01,2022.1.2,MacIntel,59.99880002,,,,,,,,,,,,,CartoonStims/burglar_point_artist_r.jpg,audio/tomalupinsido.mp3,,,,,,,,,,,,,,,,,,,,,,,,,,,,,,,,,,,,,,0,11,11,4,1,トマ　ルピン　シド,,,,,,,,,,,,,,,,,,,,,
,,,,,,,,,R_WreRxGiHz0XYI7f,2022-07-03_18h59.14.587,jpn_C01,2022.1.2,MacIntel,59.99880002,,,,,,,,,,,,,,,,,,,,,,,,,,,,,,,,,,,,,,,,,,,,,,,,,,,,,,,,,,,space,1.388,0,1,1,1,1,AffExposure.xlsx,"第二のトライアルの学習では、この言語で書かれた文を見ていただきます。引き続き注意して、 聞こえた音を復唱してください。


スペースキーを押してください。",1,AffFCT.xlsx,ここからクイズが始まります。 スクリーンに表示されるテキストに合う画像を選んでください。,AffTest.xlsx,1,次にここまで学んだことをアウトプットしていただきます。 表示される画像を描写していると思う単語を、テキストボックスにタイプしてください。 答えを提出したあとに正しい正解が少しの間画面に写ります。,1,"これで第二のトライアルが終了しました。 ここで休憩をとっていただいても構いません。

休憩が終わりましたら、 スペースキーを押して続きの学習を行いましょう。",,,
,,,,,,,,,R_WreRxGiHz0XYI7f,2022-07-03_18h59.14.587,jpn_C01,2022.1.2,MacIntel,59.99880002,space,3.418,space,11.6015,0,0,0,47,1,プミ　ピク　ドキ　ピポ,,,CartoonStims/boxer_punch_doctor_r_no.jpg,audio/pumipikudokipipo.mp3,,,,,,,,,,,,,,,,,,,,,,,,,,,,,,,,,,,,,,,,,,,,,,,,,,,,,,,,,,,,,,,,
,,,,,,,,,R_WreRxGiHz0XYI7f,2022-07-03_18h59.14.587,jpn_C01,2022.1.2,MacIntel,59.99880002,,,space,1.5662,0,1,1,39,1,プミ　ピク　ルピン　シド,,,CartoonStims/burglar_punch_artist_r_no.jpg,audio/pumipikulupinsido.mp3,,,,,,,,,,,,,,,,,,,,,,,,,,,,,,,,,,,,,,,,,,,,,,,,,,,,,,,,,,,,,,,,
,,,,,,,,,R_WreRxGiHz0XYI7f,2022-07-03_18h59.14.587,jpn_C01,2022.1.2,MacIntel,59.99880002,,,space,16.3337,0,2,2,40,1,ピク　プミ　ホレト　シド,,,CartoonStims/chef_punch_artist_r_no.jpg,audio/pikupumihoretosido.mp3,,,,,,,,,,,,,,,,,,,,,,,,,,,,,,,,,,,,,,,,,,,,,,,,,,,,,,,,,,,,,,,,
,,,,,,,,,R_WreRxGiHz0XYI7f,2022-07-03_18h59.14.587,jpn_C01,2022.1.2,MacIntel,59.99880002,,,space,10.1011,0,3,3,23,1,ピク　トマ　ドキ　ホレト,,,CartoonStims/boxer_point_chef_r_no.jpg,audio/pikutomadokihoreto.mp3,,,,,,,,,,,,,,,,,,,,,,,,,,,,,,,,,,,,,,,,,,,,,,,,,,,,,,,,,,,,,,,,
,,,,,,,,,R_WreRxGiHz0XYI7f,2022-07-03_18h59.14.587,jpn_C01,2022.1.2,MacIntel,59.99880002,,,space,10.7995,0,4,4,37,1,プミ　ピク　シド　ドキ,,,CartoonStims/artist_punch_boxer_r_no.jpg,audio/pumipikusidodoki.mp3,,,,,,,,,,,,,,,,,,,,,,,,,,,,,,,,,,,,,,,,,,,,,,,,,,,,,,,,,,,,,,,,
,,,,,,,,,R_WreRxGiHz0XYI7f,2022-07-03_18h59.14.587,jpn_C01,2022.1.2,MacIntel,59.99880002,,,space,6.5963,0,5,5,34,1,パツ　ピク　ドキ　ホレト,,,CartoonStims/boxer_shoot_chef_r_no.jpg,audio/patsupikudokihoreto.mp3,,,,,,,,,,,,,,,,,,,,,,,,,,,,,,,,,,,,,,,,,,,,,,,,,,,,,,,,,,,,,,,,
,,,,,,,,,R_WreRxGiHz0XYI7f,2022-07-03_18h59.14.587,jpn_C01,2022.1.2,MacIntel,59.99880002,,,space,4.7504,0,6,6,31,1,ピク　パツ　ムク　ルピン,,,CartoonStims/cowboy_shoot_burglar_r_no.jpg,audio/pikupatsumukulupin.mp3,,,,,,,,,,,,,,,,,,,,,,,,,,,,,,,,,,,,,,,,,,,,,,,,,,,,,,,,,,,,,,,,
,,,,,,,,,R_WreRxGiHz0XYI7f,2022-07-03_18h59.14.587,jpn_C01,2022.1.2,MacIntel,59.99880002,,,space,2.7231,0,7,7,13,1,ピク　トマ　シド　ムク,,,CartoonStims/artist_point_cowboy_r_no.jpg,audio/pikutomasidomuku.mp3,,,,,,,,,,,,,,,,,,,,,,,,,,,,,,,,,,,,,,,,,,,,,,,,,,,,,,,,,,,,,,,,
,,,,,,,,,R_WreRxGiHz0XYI7f,2022-07-03_18h59.14.587,jpn_C01,2022.1.2,MacIntel,59.99880002,,,space,7.0226,0,8,8,26,1,パツ　ピク　ルピン　ピポ,,,CartoonStims/burglar_shoot_doctor_r_no.jpg,audio/patsupikulupinpipo.mp3,,,,,,,,,,,,,,,,,,,,,,,,,,,,,,,,,,,,,,,,,,,,,,,,,,,,,,,,,,,,,,,,
,,,,,,,,,R_WreRxGiHz0XYI7f,2022-07-03_18h59.14.587,jpn_C01,2022.1.2,MacIntel,59.99880002,,,space,3.9216,0,9,9,28,1,パツ　ピク　ホレト　ドキ,,,CartoonStims/chef_shoot_boxer_r_no.jpg,audio/patsupikuhoretodoki.mp3,,,,,,,,,,,,,,,,,,,,,,,,,,,,,,,,,,,,,,,,,,,,,,,,,,,,,,,,,,,,,,,,
,,,,,,,,,R_WreRxGiHz0XYI7f,2022-07-03_18h59.14.587,jpn_C01,2022.1.2,MacIntel,59.99880002,,,space,2.6225,0,10,10,15,1,ピク　トマ　ルピン　ピポ,,,CartoonStims/burglar_point_doctor_r_no.jpg,audio/pikutomalupinpipo.mp3,,,,,,,,,,,,,,,,,,,,,,,,,,,,,,,,,,,,,,,,,,,,,,,,,,,,,,,,,,,,,,,,
,,,,,,,,,R_WreRxGiHz0XYI7f,2022-07-03_18h59.14.587,jpn_C01,2022.1.2,MacIntel,59.99880002,,,space,2.3123,0,11,11,0,1,ピク　セル　シド　ルピン,,,CartoonStims/artist_kick_burglar_r_no.jpg,audio/pikuserusidolupin.mp3,,,,,,,,,,,,,,,,,,,,,,,,,,,,,,,,,,,,,,,,,,,,,,,,,,,,,,,,,,,,,,,,
,,,,,,,,,R_WreRxGiHz0XYI7f,2022-07-03_18h59.14.587,jpn_C01,2022.1.2,MacIntel,59.99880002,,,space,2.593,0,12,12,19,1,ピク　トマ　ムク　シド,,,CartoonStims/cowboy_point_artist_r_no.jpg,audio/pikutomamukusido.mp3,,,,,,,,,,,,,,,,,,,,,,,,,,,,,,,,,,,,,,,,,,,,,,,,,,,,,,,,,,,,,,,,
,,,,,,,,,R_WreRxGiHz0XYI7f,2022-07-03_18h59.14.587,jpn_C01,2022.1.2,MacIntel,59.99880002,,,space,12.8394,0,13,13,4,1,ピク　セル　ホレト　ムク,,,CartoonStims/chef_kick_cowboy_r_no.jpg,audio/pikuseruhoretomuku.mp3,,,,,,,,,,,,,,,,,,,,,,,,,,,,,,,,,,,,,,,,,,,,,,,,,,,,,,,,,,,,,,,,
,,,,,,,,,R_WreRxGiHz0XYI7f,2022-07-03_18h59.14.587,jpn_C01,2022.1.2,MacIntel,59.99880002,,,space,1.8027,0,14,14,43,1,プミ　ピク　ムク　ホレト,,,CartoonStims/cowboy_punch_chef_r_no.jpg,audio/pumipikumukuhoreto.mp3,,,,,,,,,,,,,,,,,,,,,,,,,,,,,,,,,,,,,,,,,,,,,,,,,,,,,,,,,,,,,,,,
,,,,,,,,,R_WreRxGiHz0XYI7f,2022-07-03_18h59.14.587,jpn_C01,2022.1.2,MacIntel,59.99880002,,,space,11.8066,0,15,15,38,1,ピク　プミ　ルピン　ドキ,,,CartoonStims/burglar_punch_boxer_r_no.jpg,audio/pikupumilupindoki.mp3,,,,,,,,,,,,,,,,,,,,,,,,,,,,,,,,,,,,,,,,,,,,,,,,,,,,,,,,,,,,,,,,
,,,,,,,,,R_WreRxGiHz0XYI7f,2022-07-03_18h59.14.587,jpn_C01,2022.1.2,MacIntel,59.99880002,,,space,9.7552,0,16,16,36,1,ピク　プミ　シド　ピポ,,,CartoonStims/artist_punch_doctor_r_no.jpg,audio/pikupumisidopipo.mp3,,,,,,,,,,,,,,,,,,,,,,,,,,,,,,,,,,,,,,,,,,,,,,,,,,,,,,,,,,,,,,,,
,,,,,,,,,R_WreRxGiHz0XYI7f,2022-07-03_18h59.14.587,jpn_C01,2022.1.2,MacIntel,59.99880002,,,space,7.5622,0,17,17,6,1,ピク　セル　ムク　ピポ,,,CartoonStims/cowboy_kick_doctor_r_no.jpg,audio/pikuserumukupipo.mp3,,,,,,,,,,,,,,,,,,,,,,,,,,,,,,,,,,,,,,,,,,,,,,,,,,,,,,,,,,,,,,,,
,,,,,,,,,R_WreRxGiHz0XYI7f,2022-07-03_18h59.14.587,jpn_C01,2022.1.2,MacIntel,59.99880002,,,space,10.634,0,18,18,3,1,セル　ピク　ルピン　ムク,,,CartoonStims/burglar_kick_cowboy_r_no.jpg,audio/serupikulupinmuku.mp3,,,,,,,,,,,,,,,,,,,,,,,,,,,,,,,,,,,,,,,,,,,,,,,,,,,,,,,,,,,,,,,,
,,,,,,,,,R_WreRxGiHz0XYI7f,2022-07-03_18h59.14.587,jpn_C01,2022.1.2,MacIntel,59.99880002,,,space,4.9149,0,19,19,24,1,パツ　ピク　シド　ムク,,,CartoonStims/artist_shoot_cowboy_r_no.jpg,audio/patsupikusidomuku.mp3,,,,,,,,,,,,,,,,,,,,,,,,,,,,,,,,,,,,,,,,,,,,,,,,,,,,,,,,,,,,,,,,
,,,,,,,,,R_WreRxGiHz0XYI7f,2022-07-03_18h59.14.587,jpn_C01,2022.1.2,MacIntel,59.99880002,,,space,3.9575,0,20,20,20,1,トマ　ピク　ピポ　シド,,,CartoonStims/doctor_point_artist_r_no.jpg,audio/tomapikupiposido.mp3,,,,,,,,,,,,,,,,,,,,,,,,,,,,,,,,,,,,,,,,,,,,,,,,,,,,,,,,,,,,,,,,
,,,,,,,,,R_WreRxGiHz0XYI7f,2022-07-03_18h59.14.587,jpn_C01,2022.1.2,MacIntel,59.99880002,,,space,5.9043,0,21,21,45,1,プミ　ピク　ピポ　ムク,,,CartoonStims/doctor_punch_cowboy_r_no.jpg,audio/pumipikupipomuku.mp3,,,,,,,,,,,,,,,,,,,,,,,,,,,,,,,,,,,,,,,,,,,,,,,,,,,,,,,,,,,,,,,,
,,,,,,,,,R_WreRxGiHz0XYI7f,2022-07-03_18h59.14.587,jpn_C01,2022.1.2,MacIntel,59.99880002,,,space,2.3205,0,22,22,33,1,ピク　パツ　ピポ　ホレト,,,CartoonStims/doctor_shoot_chef_r_no.jpg,audio/pikupatsupipohoreto.mp3,,,,,,,,,,,,,,,,,,,,,,,,,,,,,,,,,,,,,,,,,,,,,,,,,,,,,,,,,,,,,,,,
,,,,,,,,,R_WreRxGiHz0XYI7f,2022-07-03_18h59.14.587,jpn_C01,2022.1.2,MacIntel,59.99880002,,,space,29.6398,0,23,23,2,1,ピク　セル　ルピン　ホレト,,,CartoonStims/burglar_kick_chef_r_no.jpg,audio/pikuserulupinhoreto.mp3,,,,,,,,,,,,,,,,,,,,,,,,,,,,,,,,,,,,,,,,,,,,,,,,,,,,,,,,,,,,,,,,
,,,,,,,,,R_WreRxGiHz0XYI7f,2022-07-03_18h59.14.587,jpn_C01,2022.1.2,MacIntel,59.99880002,,,space,18.6177,0,24,24,35,1,ピク　パツ　ドキ　ムク,,,CartoonStims/boxer_shoot_cowboy_r_no.jpg,audio/pikupatsudokimuku.mp3,,,,,,,,,,,,,,,,,,,,,,,,,,,,,,,,,,,,,,,,,,,,,,,,,,,,,,,,,,,,,,,,
,,,,,,,,,R_WreRxGiHz0XYI7f,2022-07-03_18h59.14.587,jpn_C01,2022.1.2,MacIntel,59.99880002,,,space,10.3029,0,25,25,8,1,ピク　セル　ピポ　ドキ,,,CartoonStims/doctor_kick_boxer_r_no.jpg,audio/pikuserupipodoki.mp3,,,,,,,,,,,,,,,,,,,,,,,,,,,,,,,,,,,,,,,,,,,,,,,,,,,,,,,,,,,,,,,,
,,,,,,,,,R_WreRxGiHz0XYI7f,2022-07-03_18h59.14.587,jpn_C01,2022.1.2,MacIntel,59.99880002,,,space,5.7046,0,26,26,29,1,ピク　パツ　ホレト　シド,,,CartoonStims/chef_shoot_artist_r_no.jpg,audio/pikupatsuhoretosido.mp3,,,,,,,,,,,,,,,,,,,,,,,,,,,,,,,,,,,,,,,,,,,,,,,,,,,,,,,,,,,,,,,,
,,,,,,,,,R_WreRxGiHz0XYI7f,2022-07-03_18h59.14.587,jpn_C01,2022.1.2,MacIntel,59.99880002,,,space,46.8079,0,27,27,12,1,トマ　ピク　シド　ホレト,,,CartoonStims/artist_point_chef_r_no.jpg,audio/tomapikusidohoreto.mp3,,,,,,,,,,,,,,,,,,,,,,,,,,,,,,,,,,,,,,,,,,,,,,,,,,,,,,,,,,,,,,,,
,,,,,,,,,R_WreRxGiHz0XYI7f,2022-07-03_18h59.14.587,jpn_C01,2022.1.2,MacIntel,59.99880002,,,space,8.521,0,28,28,14,1,トマ　ピク　ルピン　ムク,,,CartoonStims/burglar_point_cowboy_r_no.jpg,audio/tomapikulupinmuku.mp3,,,,,,,,,,,,,,,,,,,,,,,,,,,,,,,,,,,,,,,,,,,,,,,,,,,,,,,,,,,,,,,,
,,,,,,,,,R_WreRxGiHz0XYI7f,2022-07-03_18h59.14.587,jpn_C01,2022.1.2,MacIntel,59.99880002,,,space,8.0219,0,29,29,32,1,パツ　ピク　ピポ　ルピン,,,CartoonStims/doctor_shoot_burglar_r_no.jpg,audio/patsupikupipolupin.mp3,,,,,,,,,,,,,,,,,,,,,,,,,,,,,,,,,,,,,,,,,,,,,,,,,,,,,,,,,,,,,,,,
,,,,,,,,,R_WreRxGiHz0XYI7f,2022-07-03_18h59.14.587,jpn_C01,2022.1.2,MacIntel,59.99880002,,,space,8.7893,0,30,30,1,1,セル　ピク　シド　ホレト,,,CartoonStims/artist_kick_chef_r_no.jpg,audio/serupikusidohoreto.mp3,,,,,,,,,,,,,,,,,,,,,,,,,,,,,,,,,,,,,,,,,,,,,,,,,,,,,,,,,,,,,,,,
,,,,,,,,,R_WreRxGiHz0XYI7f,2022-07-03_18h59.14.587,jpn_C01,2022.1.2,MacIntel,59.99880002,,,space,6.9763,0,31,31,22,1,トマ　ピク　ドキ　ルピン,,,CartoonStims/boxer_point_burglar_r_no.jpg,audio/tomapikudokilupin.mp3,,,,,,,,,,,,,,,,,,,,,,,,,,,,,,,,,,,,,,,,,,,,,,,,,,,,,,,,,,,,,,,,
,,,,,,,,,R_WreRxGiHz0XYI7f,2022-07-03_18h59.14.587,jpn_C01,2022.1.2,MacIntel,59.99880002,,,space,11.291,0,32,32,21,1,ピク　トマ　ピポ　ルピン,,,CartoonStims/doctor_point_burglar_r_no.jpg,audio/pikutomapipolupin.mp3,,,,,,,,,,,,,,,,,,,,,,,,,,,,,,,,,,,,,,,,,,,,,,,,,,,,,,,,,,,,,,,,
,,,,,,,,,R_WreRxGiHz0XYI7f,2022-07-03_18h59.14.587,jpn_C01,2022.1.2,MacIntel,59.99880002,,,space,12.8567,0,33,33,41,1,プミ　ピク　ホレト　ルピン,,,CartoonStims/chef_punch_burglar_r_no.jpg,audio/pumipikuhoretolupin.mp3,,,,,,,,,,,,,,,,,,,,,,,,,,,,,,,,,,,,,,,,,,,,,,,,,,,,,,,,,,,,,,,,
,,,,,,,,,R_WreRxGiHz0XYI7f,2022-07-03_18h59.14.587,jpn_C01,2022.1.2,MacIntel,59.99880002,,,space,7.4692,0,34,34,5,1,セル　ピク　ホレト　ピポ,,,CartoonStims/chef_kick_doctor_r_no.jpg,audio/serupikuhoretopipo.mp3,,,,,,,,,,,,,,,,,,,,,,,,,,,,,,,,,,,,,,,,,,,,,,,,,,,,,,,,,,,,,,,,
,,,,,,,,,R_WreRxGiHz0XYI7f,2022-07-03_18h59.14.587,jpn_C01,2022.1.2,MacIntel,59.99880002,,,space,10.0234,0,35,35,46,1,ピク　プミ　ドキ　ムク,,,CartoonStims/boxer_punch_cowboy_r_no.jpg,audio/pikupumidokimuku.mp3,,,,,,,,,,,,,,,,,,,,,,,,,,,,,,,,,,,,,,,,,,,,,,,,,,,,,,,,,,,,,,,,
,,,,,,,,,R_WreRxGiHz0XYI7f,2022-07-03_18h59.14.587,jpn_C01,2022.1.2,MacIntel,59.99880002,,,space,12.4318,0,36,36,18,1,トマ　ピク　ムク　ドキ,,,CartoonStims/cowboy_point_boxer_r_no.jpg,audio/tomapikumukudoki.mp3,,,,,,,,,,,,,,,,,,,,,,,,,,,,,,,,,,,,,,,,,,,,,,,,,,,,,,,,,,,,,,,,
,,,,,,,,,R_WreRxGiHz0XYI7f,2022-07-03_18h59.14.587,jpn_C01,2022.1.2,MacIntel,59.99880002,,,space,7.7544,0,37,37,11,1,セル　ピク　ドキ　ルピン,,,CartoonStims/boxer_kick_burglar_r_no.jpg,audio/serupikudokilupin.mp3,,,,,,,,,,,,,,,,,,,,,,,,,,,,,,,,,,,,,,,,,,,,,,,,,,,,,,,,,,,,,,,,
,,,,,,,,,R_WreRxGiHz0XYI7f,2022-07-03_18h59.14.587,jpn_C01,2022.1.2,MacIntel,59.99880002,,,space,5.235,0,38,38,44,1,ピク　プミ　ピポ　ホレト,,,CartoonStims/doctor_punch_chef_r_no.jpg,audio/pikupumipipohoreto.mp3,,,,,,,,,,,,,,,,,,,,,,,,,,,,,,,,,,,,,,,,,,,,,,,,,,,,,,,,,,,,,,,,
,,,,,,,,,R_WreRxGiHz0XYI7f,2022-07-03_18h59.14.587,jpn_C01,2022.1.2,MacIntel,59.99880002,,,space,8.4895,0,39,39,17,1,ピク　トマ　ホレト　ドキ,,,CartoonStims/chef_point_boxer_r_no.jpg,audio/pikutomahoretodoki.mp3,,,,,,,,,,,,,,,,,,,,,,,,,,,,,,,,,,,,,,,,,,,,,,,,,,,,,,,,,,,,,,,,
,,,,,,,,,R_WreRxGiHz0XYI7f,2022-07-03_18h59.14.587,jpn_C01,2022.1.2,MacIntel,59.99880002,,,space,7.5511,0,40,40,9,1,セル　ピク　ピポ　シド,,,CartoonStims/doctor_kick_artist_r_no.jpg,audio/serupikupiposido.mp3,,,,,,,,,,,,,,,,,,,,,,,,,,,,,,,,,,,,,,,,,,,,,,,,,,,,,,,,,,,,,,,,
,,,,,,,,,R_WreRxGiHz0XYI7f,2022-07-03_18h59.14.587,jpn_C01,2022.1.2,MacIntel,59.99880002,,,space,8.2882,0,41,41,42,1,ピク　プミ　ムク　ルピン,,,CartoonStims/cowboy_punch_burglar_r_no.jpg,audio/pikupumimukulupin.mp3,,,,,,,,,,,,,,,,,,,,,,,,,,,,,,,,,,,,,,,,,,,,,,,,,,,,,,,,,,,,,,,,
,,,,,,,,,R_WreRxGiHz0XYI7f,2022-07-03_18h59.14.587,jpn_C01,2022.1.2,MacIntel,59.99880002,,,space,7.5512,0,42,42,10,1,ピク　セル　ドキ　シド,,,CartoonStims/boxer_kick_artist_r_no.jpg,audio/pikuserudokisido.mp3,,,,,,,,,,,,,,,,,,,,,,,,,,,,,,,,,,,,,,,,,,,,,,,,,,,,,,,,,,,,,,,,
,,,,,,,,,R_WreRxGiHz0XYI7f,2022-07-03_18h59.14.587,jpn_C01,2022.1.2,MacIntel,59.99880002,,,space,9.8838,0,43,43,30,1,パツ　ピク　ムク　シド,,,CartoonStims/cowboy_shoot_artist_r_no.jpg,audio/patsupikumukusido.mp3,,,,,,,,,,,,,,,,,,,,,,,,,,,,,,,,,,,,,,,,,,,,,,,,,,,,,,,,,,,,,,,,
,,,,,,,,,R_WreRxGiHz0XYI7f,2022-07-03_18h59.14.587,jpn_C01,2022.1.2,MacIntel,59.99880002,,,space,8.5433,0,44,44,25,1,ピク　パツ　シド　ピポ,,,CartoonStims/artist_shoot_doctor_r_no.jpg,audio/pikupatsusidopipo.mp3,,,,,,,,,,,,,,,,,,,,,,,,,,,,,,,,,,,,,,,,,,,,,,,,,,,,,,,,,,,,,,,,
,,,,,,,,,R_WreRxGiHz0XYI7f,2022-07-03_18h59.14.587,jpn_C01,2022.1.2,MacIntel,59.99880002,,,space,4.8044,0,45,45,16,1,トマ　ピク　ホレト　ピポ,,,CartoonStims/chef_point_doctor_r_no.jpg,audio/tomapikuhoretopipo.mp3,,,,,,,,,,,,,,,,,,,,,,,,,,,,,,,,,,,,,,,,,,,,,,,,,,,,,,,,,,,,,,,,
,,,,,,,,,R_WreRxGiHz0XYI7f,2022-07-03_18h59.14.587,jpn_C01,2022.1.2,MacIntel,59.99880002,,,space,5.6761,0,46,46,7,1,セル　ピク　ムク　ドキ,,,CartoonStims/cowboy_kick_boxer_r_no.jpg,audio/serupikumukudoki.mp3,,,,,,,,,,,,,,,,,,,,,,,,,,,,,,,,,,,,,,,,,,,,,,,,,,,,,,,,,,,,,,,,
,,,,,,,,,R_WreRxGiHz0XYI7f,2022-07-03_18h59.14.587,jpn_C01,2022.1.2,MacIntel,59.99880002,,,space,4.0196,0,47,47,27,1,ピク　パツ　ルピン　ドキ,,,CartoonStims/burglar_shoot_boxer_r_no.jpg,audio/pikupatsulupindoki.mp3,,,,,,,,,,,,,,,,,,,,,,,,,,,,,,,,,,,,,,,,,,,,,,,,,,,,,,,,,,,,,,,,
,,,,,,,,,R_WreRxGiHz0XYI7f,2022-07-03_18h59.14.587,jpn_C01,2022.1.2,MacIntel,59.99880002,,,,,,,,,,,,,,,space,2.1516,right,1,22.268,,,,,,,,,,,,,,,,,,0,0,0,0,1,,,,,,,,,,,,,,,,,,,,,,,,,,,,,,,,,,,,,
,,,,,,,,,R_WreRxGiHz0XYI7f,2022-07-03_18h59.14.587,jpn_C01,2022.1.2,MacIntel,59.99880002,,,,,,,,,,,,,,,,,,,,,,,,,0,0,0,9,1,CartoonStims/boxer_shoot_doctor_r.jpg,パツ　ピク　ドキ　ピポ,CartoonStims/boxer_point_doctor_r.jpg,right,CartoonStims/boxer_point_doctor_r.jpg,audio/patsupikudokipipo.mp3,"残念！ こちらが正しい画像です。

否定文は起きていないことを示しているのを思い出してください。",,,,,,,,,,,,,,,,,,,,,,,,,,,,,,,,,,,,,,,,,,
,,,,,,,,,R_WreRxGiHz0XYI7f,2022-07-03_18h59.14.587,jpn_C01,2022.1.2,MacIntel,59.99880002,,,,,,,,,,,,,,,,,left,1,9.3726,0,0,0,0,1,,,,,,,,,,,,,,,,,,,,,,,,,,,,,,,,,,,,,,,,,,,,,,,,,,,,,,
,,,,,,,,,R_WreRxGiHz0XYI7f,2022-07-03_18h59.14.587,jpn_C01,2022.1.2,MacIntel,59.99880002,,,,,,,,,,,,,,,,,,,,,,,,,0,1,1,2,1,CartoonStims/doctor_point_boxer_r.jpg,ピク　プミ　ピポ　ドキ,CartoonStims/doctor_punch_boxer_r.jpg,left,CartoonStims/doctor_point_boxer_r.jpg,audio/pikupumipipodoki.mp3,"残念！ こちらが正しい画像です。

否定文は起きていないことを示しているのを思い出してください。",,,,,,,,,,,,,,,,,,,,,,,,,,,,,,,,,,,,,,,,,,
,,,,,,,,,R_WreRxGiHz0XYI7f,2022-07-03_18h59.14.587,jpn_C01,2022.1.2,MacIntel,59.99880002,,,,,,,,,,,,,,,,,right,1,7.3051,,,,,,,,,,,,,,,,,,0,0,0,0,1,,,,,,,,,,,,,,,,,,,,,,,,,,,,,,,,,,,,,
,,,,,,,,,R_WreRxGiHz0XYI7f,2022-07-03_18h59.14.587,jpn_C01,2022.1.2,MacIntel,59.99880002,,,,,,,,,,,,,,,,,,,,,,,,,0,2,2,11,1,CartoonStims/chef_shoot_burglar_r.jpg,パツ　ピク　ホレト　ルピン,CartoonStims/chef_kick_burglar_r.jpg,right,CartoonStims/chef_kick_burglar_r.jpg,audio/patsupikuhoretolupin.mp3,"残念！ こちらが正しい画像です。

否定文は起きていないことを示しているのを思い出してください。",,,,,,,,,,,,,,,,,,,,,,,,,,,,,,,,,,,,,,,,,,
,,,,,,,,,R_WreRxGiHz0XYI7f,2022-07-03_18h59.14.587,jpn_C01,2022.1.2,MacIntel,59.99880002,,,,,,,,,,,,,,,,,left,1,14.8255,0,0,0,0,1,,,,,,,,,,,,,,,,,,,,,,,,,,,,,,,,,,,,,,,,,,,,,,,,,,,,,,
,,,,,,,,,R_WreRxGiHz0XYI7f,2022-07-03_18h59.14.587,jpn_C01,2022.1.2,MacIntel,59.99880002,,,,,,,,,,,,,,,,,,,,,,,,,0,3,3,0,1,CartoonStims/artist_shoot_burglar_r.jpg,ピク　プミ　シド　ルピン,CartoonStims/artist_punch_burglar_r.jpg,left,CartoonStims/artist_shoot_burglar_r.jpg,audio/pikupumisidolupin.mp3,"残念！ こちらが正しい画像です。

否定文は起きていないことを示しているのを思い出してください。",,,,,,,,,,,,,,,,,,,,,,,,,,,,,,,,,,,,,,,,,,
,,,,,,,,,R_WreRxGiHz0XYI7f,2022-07-03_18h59.14.587,jpn_C01,2022.1.2,MacIntel,59.99880002,,,,,,,,,,,,,,,,,left,1,10.0003,0,0,0,0,1,,,,,,,,,,,,,,,,,,,,,,,,,,,,,,,,,,,,,,,,,,,,,,,,,,,,,,
,,,,,,,,,R_WreRxGiHz0XYI7f,2022-07-03_18h59.14.587,jpn_C01,2022.1.2,MacIntel,59.99880002,,,,,,,,,,,,,,,,,,,,,,,,,0,4,4,8,1,CartoonStims/burglar_punch_artist_r.jpg,トマ　ピク　ルピン　シド,CartoonStims/burglar_point_artist_r.jpg,left,CartoonStims/burglar_punch_artist_r.jpg,audio/tomapikulupinsido.mp3,"残念！ こちらが正しい画像です。

否定文は起きていないことを示しているのを思い出してください。",,,,,,,,,,,,,,,,,,,,,,,,,,,,,,,,,,,,,,,,,,
,,,,,,,,,R_WreRxGiHz0XYI7f,2022-07-03_18h59.14.587,jpn_C01,2022.1.2,MacIntel,59.99880002,,,,,,,,,,,,,,,,,right,1,13.576,,,,,,,,,,,,,,,,,,0,0,0,0,1,,,,,,,,,,,,,,,,,,,,,,,,,,,,,,,,,,,,,
,,,,,,,,,R_WreRxGiHz0XYI7f,2022-07-03_18h59.14.587,jpn_C01,2022.1.2,MacIntel,59.99880002,,,,,,,,,,,,,,,,,,,,,,,,,0,5,5,7,1,CartoonStims/cowboy_point_chef_r.jpg,ピク　トマ　ムク　ホレト,CartoonStims/cowboy_kick_chef_r.jpg,right,CartoonStims/cowboy_kick_chef_r.jpg,audio/pikutomamukuhoreto.mp3,"残念！ こちらが正しい画像です。

否定文は起きていないことを示しているのを思い出してください。",,,,,,,,,,,,,,,,,,,,,,,,,,,,,,,,,,,,,,,,,,
,,,,,,,,,R_WreRxGiHz0XYI7f,2022-07-03_18h59.14.587,jpn_C01,2022.1.2,MacIntel,59.99880002,,,,,,,,,,,,,,,,,left,1,20.6566,0,0,0,0,1,,,,,,,,,,,,,,,,,,,,,,,,,,,,,,,,,,,,,,,,,,,,,,,,,,,,,,
,,,,,,,,,R_WreRxGiHz0XYI7f,2022-07-03_18h59.14.587,jpn_C01,2022.1.2,MacIntel,59.99880002,,,,,,,,,,,,,,,,,,,,,,,,,0,6,6,4,1,CartoonStims/burglar_shoot_doctor_r.jpg,セル　ピク　ルピン　ピポ,CartoonStims/burglar_kick_doctor_r.jpg,left,CartoonStims/burglar_shoot_doctor_r.jpg,audio/serupikulupinpipo.mp3,"残念！ こちらが正しい画像です。

否定文は起きていないことを示しているのを思い出してください。",,,,,,,,,,,,,,,,,,,,,,,,,,,,,,,,,,,,,,,,,,
,,,,,,,,,R_WreRxGiHz0XYI7f,2022-07-03_18h59.14.587,jpn_C01,2022.1.2,MacIntel,59.99880002,,,,,,,,,,,,,,,,,left,1,6.0175,0,0,0,0,1,,,,,,,,,,,,,,,,,,,,,,,,,,,,,,,,,,,,,,,,,,,,,,,,,,,,,,
,,,,,,,,,R_WreRxGiHz0XYI7f,2022-07-03_18h59.14.587,jpn_C01,2022.1.2,MacIntel,59.99880002,,,,,,,,,,,,,,,,,,,,,,,,,0,7,7,10,1,CartoonStims/doctor_punch_cowboy_r.jpg,ピク　パツ　ピポ　ムク,CartoonStims/doctor_shoot_cowboy_r.jpg,left,CartoonStims/doctor_punch_cowboy_r.jpg,audio/pikupatsupipomuku.mp3,"残念！ こちらが正しい画像です。

否定文は起きていないことを示しているのを思い出してください。",,,,,,,,,,,,,,,,,,,,,,,,,,,,,,,,,,,,,,,,,,
,,,,,,,,,R_WreRxGiHz0XYI7f,2022-07-03_18h59.14.587,jpn_C01,2022.1.2,MacIntel,59.99880002,,,,,,,,,,,,,,,,,right,1,4.2345,,,,,,,,,,,,,,,,,,0,0,0,0,1,,,,,,,,,,,,,,,,,,,,,,,,,,,,,,,,,,,,,
,,,,,,,,,R_WreRxGiHz0XYI7f,2022-07-03_18h59.14.587,jpn_C01,2022.1.2,MacIntel,59.99880002,,,,,,,,,,,,,,,,,,,,,,,,,0,8,8,1,1,CartoonStims/chef_punch_cowboy_r.jpg,プミ　ピク　ホレト　ムク,CartoonStims/chef_kick_cowboy_r.jpg,right,CartoonStims/chef_kick_cowboy_r.jpg,audio/pumipikuhoretomuku.mp3,"残念！ こちらが正しい画像です。

否定文は起きていないことを示しているのを思い出してください。",,,,,,,,,,,,,,,,,,,,,,,,,,,,,,,,,,,,,,,,,,
,,,,,,,,,R_WreRxGiHz0XYI7f,2022-07-03_18h59.14.587,jpn_C01,2022.1.2,MacIntel,59.99880002,,,,,,,,,,,,,,,,,left,1,4.229,0,0,0,0,1,,,,,,,,,,,,,,,,,,,,,,,,,,,,,,,,,,,,,,,,,,,,,,,,,,,,,,
,,,,,,,,,R_WreRxGiHz0XYI7f,2022-07-03_18h59.14.587,jpn_C01,2022.1.2,MacIntel,59.99880002,,,,,,,,,,,,,,,,,,,,,,,,,0,9,9,6,1,CartoonStims/artist_shoot_boxer_r.jpg,トマ　ピク　シド　ドキ,CartoonStims/artist_point_boxer_r.jpg,left,CartoonStims/artist_shoot_boxer_r.jpg,audio/tomapikusidodoki.mp3,"残念！ こちらが正しい画像です。

否定文は起きていないことを示しているのを思い出してください。",,,,,,,,,,,,,,,,,,,,,,,,,,,,,,,,,,,,,,,,,,
,,,,,,,,,R_WreRxGiHz0XYI7f,2022-07-03_18h59.14.587,jpn_C01,2022.1.2,MacIntel,59.99880002,,,,,,,,,,,,,,,,,right,1,10.3929,,,,,,,,,,,,,,,,,,0,0,0,0,1,,,,,,,,,,,,,,,,,,,,,,,,,,,,,,,,,,,,,
,,,,,,,,,R_WreRxGiHz0XYI7f,2022-07-03_18h59.14.587,jpn_C01,2022.1.2,MacIntel,59.99880002,,,,,,,,,,,,,,,,,,,,,,,,,0,10,10,3,1,CartoonStims/chef_kick_artist_r.jpg,ピク　セル　ホレト　シド,CartoonStims/chef_point_artist_r.jpg,right,CartoonStims/chef_point_artist_r.jpg,audio/pikuseruhoretosido.mp3,"残念！ こちらが正しい画像です。

否定文は起きていないことを示しているのを思い出してください。",,,,,,,,,,,,,,,,,,,,,,,,,,,,,,,,,,,,,,,,,,
,,,,,,,,,R_WreRxGiHz0XYI7f,2022-07-03_18h59.14.587,jpn_C01,2022.1.2,MacIntel,59.99880002,,,,,,,,,,,,,,,,,right,1,8.6915,,,,,,,,,,,,,,,,,,0,0,0,0,1,,,,,,,,,,,,,,,,,,,,,,,,,,,,,,,,,,,,,
,,,,,,,,,R_WreRxGiHz0XYI7f,2022-07-03_18h59.14.587,jpn_C01,2022.1.2,MacIntel,59.99880002,,,,,,,,,,,,,,,,,,,,,,,,,0,11,11,5,1,CartoonStims/boxer_kick_cowboy_r.jpg,ピク　セル　ドキ　ムク,CartoonStims/boxer_punch_cowboy_r.jpg,right,CartoonStims/boxer_punch_cowboy_r.jpg,audio/pikuserudokimuku.mp3,"残念！ こちらが正しい画像です。

否定文は起きていないことを示しているのを思い出してください。",,,,,,,,,,,,,,,,,,,,,,,,,,,,,,,,,,,,,,,,,,
,,,,,,,,,R_WreRxGiHz0XYI7f,2022-07-03_18h59.14.587,jpn_C01,2022.1.2,MacIntel,59.99880002,,,,,,,,,,,,,CartoonStims/doctor_kick_cowboy_r_no.jpg,,,,,,,,,,,,,,,,,,,,,,,,,,,,,space,10.0875,ピク　セル　ピポ　ムク,right,52.7975,,,,,,0,0,0,4,1,,,,,,,,,,,,,,,,,,,,ピク　セル　ピポ　ムク,セル　ピク　ピポ　ムク,1
,,,,,,,,,R_WreRxGiHz0XYI7f,2022-07-03_18h59.14.587,jpn_C01,2022.1.2,MacIntel,59.99880002,,,,,,,,,,,,,CartoonStims/burglar_kick_artist_r_no.jpg,,,,,,,,,,,,,,,,,,,,,,,,,,,,,,,セル　ピク　ルピン　シド,right,24.8461,,,,,,0,1,1,1,1,,,,,,,,,,,,,,,,,,,,ピク　セル　ルピン　シド,セル　ピク　ルピン　シド,1
,,,,,,,,,R_WreRxGiHz0XYI7f,2022-07-03_18h59.14.587,jpn_C01,2022.1.2,MacIntel,59.99880002,,,,,,,,,,,,,CartoonStims/cowboy_punch_artist_r_no.jpg,,,,,,,,,,,,,,,,,,,,,,,,,,,,,,,プミ　ピク　ムク　シド,right,25.9511,,,,,,0,2,2,21,1,,,,,,,,,,,,,,,,,,,,ピク　プミ　ムク　シド,プミ　ピク　ムク　シド,1
,,,,,,,,,R_WreRxGiHz0XYI7f,2022-07-03_18h59.14.587,jpn_C01,2022.1.2,MacIntel,59.99880002,,,,,,,,,,,,,CartoonStims/burglar_shoot_cowboy_r_no.jpg,,,,,,,,,,,,,,,,,,,,,,,,,,,,,,,パツ　ピク　ルピン　ムク,right,25.1816,,,,,,0,3,3,13,1,,,,,,,,,,,,,,,,,,,,ピク　パツ　ルピン　ムク,パツ　ピク　ルピン　ムク,1
,,,,,,,,,R_WreRxGiHz0XYI7f,2022-07-03_18h59.14.587,jpn_C01,2022.1.2,MacIntel,59.99880002,,,,,,,,,,,,,CartoonStims/artist_kick_boxer_r_no.jpg,,,,,,,,,,,,,,,,,,,,,,,,,,,,,,,セル　ピク　シド　ドキ,right,17.7822,,,,,,0,4,4,0,1,,,,,,,,,,,,,,,,,,,,ピク　セル　シド　ドキ,セル　ピク　シド　ドキ,1
,,,,,,,,,R_WreRxGiHz0XYI7f,2022-07-03_18h59.14.587,jpn_C01,2022.1.2,MacIntel,59.99880002,,,,,,,,,,,,,CartoonStims/boxer_punch_chef_r_no.jpg,,,,,,,,,,,,,,,,,,,,,,,,,,,,,,,プミ　ピク　ドキ　ホレト,right,21.3858,,,,,,0,5,5,23,1,,,,,,,,,,,,,,,,,,,,ピク　プミ　ドキ　ホレト,プミ　ピク　ドキ　ホレト,1
,,,,,,,,,R_WreRxGiHz0XYI7f,2022-07-03_18h59.14.587,jpn_C01,2022.1.2,MacIntel,59.99880002,,,,,,,,,,,,,CartoonStims/cowboy_kick_chef_r_no.jpg,,,,,,,,,,,,,,,,,,,,,,,,,,,,,,,ピク　セル　ムク　ホレト,right,21.2974,,,,,,0,6,6,3,1,,,,,,,,,,,,,,,,,,,,ピク　セル　ムク　ホレト,セル　ピク　ムク　ホレト,1
,,,,,,,,,R_WreRxGiHz0XYI7f,2022-07-03_18h59.14.587,jpn_C01,2022.1.2,MacIntel,59.99880002,,,,,,,,,,,,,CartoonStims/artist_point_boxer_r.jpg,,,,,,,,,,,,,,,,,,,,,,,,,,,,,,,トマ　シド　ドキ,right,12.4185,,,,,,0,7,7,27,1,,,,,,,,,,,,,,,,,,,,トマ　シド　ドキ,トマ　シド　ドキ,0
,,,,,,,,,R_WreRxGiHz0XYI7f,2022-07-03_18h59.14.587,jpn_C01,2022.1.2,MacIntel,59.99880002,,,,,,,,,,,,,CartoonStims/doctor_shoot_artist_r_no.jpg,,,,,,,,,,,,,,,,,,,,,,,,,,,,,,,パツ　ピク　ピポ　シド,right,19.5989,,,,,,0,8,8,16,1,,,,,,,,,,,,,,,,,,,,ピク　パツ　ピポ　シド,パツ　ピク　ピポ　シド,1
,,,,,,,,,R_WreRxGiHz0XYI7f,2022-07-03_18h59.14.587,jpn_C01,2022.1.2,MacIntel,59.99880002,,,,,,,,,,,,,CartoonStims/cowboy_kick_burglar_r.jpg,,,,,,,,,,,,,,,,,,,,,,,,,,,,,,,セル　ムク　ルピン,right,9.3171,,,,,,0,9,9,24,1,,,,,,,,,,,,,,,,,,,,セル　ムク　ルピン,セル　ムク　ルピン,0
,,,,,,,,,R_WreRxGiHz0XYI7f,2022-07-03_18h59.14.587,jpn_C01,2022.1.2,MacIntel,59.99880002,,,,,,,,,,,,,CartoonStims/burglar_point_chef_r_no.jpg,,,,,,,,,,,,,,,,,,,,,,,,,,,,,,,ピク　トマ　ルピン　ホレト,right,15.0282,,,,,,0,10,10,7,1,,,,,,,,,,,,,,,,,,,,ピク　トマ　ルピン　ホレト,トマ　ピク　ルピン　ホレト,1
,,,,,,,,,R_WreRxGiHz0XYI7f,2022-07-03_18h59.14.587,jpn_C01,2022.1.2,MacIntel,59.99880002,,,,,,,,,,,,,CartoonStims/doctor_point_boxer_r_no.jpg,,,,,,,,,,,,,,,,,,,,,,,,,,,,,,,ピク　トマ　ピポ　ドキ,right,21.0441,,,,,,0,11,11,10,1,,,,,,,,,,,,,,,,,,,,ピク　トマ　ピポ　ドキ,トマ　ピク　ピポ　ドキ,1
,,,,,,,,,R_WreRxGiHz0XYI7f,2022-07-03_18h59.14.587,jpn_C01,2022.1.2,MacIntel,59.99880002,,,,,,,,,,,,,CartoonStims/burglar_shoot_chef_r.jpg,,,,,,,,,,,,,,,,,,,,,,,,,,,,,,,パツ　ルピン　ホレト,right,12.5511,,,,,,0,12,12,30,1,,,,,,,,,,,,,,,,,,,,パツ　ルピン　ホレト,パツ　ルピン　ホレト,0
,,,,,,,,,R_WreRxGiHz0XYI7f,2022-07-03_18h59.14.587,jpn_C01,2022.1.2,MacIntel,59.99880002,,,,,,,,,,,,,CartoonStims/burglar_point_artist_r.jpg,,,,,,,,,,,,,,,,,,,,,,,,,,,,,,,トマ　ルピン　シド,right,11.519,,,,,,0,13,13,28,1,,,,,,,,,,,,,,,,,,,,トマ　ルピン　シド,トマ　ルピン　シド,0
,,,,,,,,,R_WreRxGiHz0XYI7f,2022-07-03_18h59.14.587,jpn_C01,2022.1.2,MacIntel,59.99880002,,,,,,,,,,,,,CartoonStims/cowboy_shoot_boxer_r_no.jpg,,,,,,,,,,,,,,,,,,,,,,,,,,,,,,,パツ　ピク　ムク　ドキ,right,25.4475,,,,,,0,14,14,15,1,,,,,,,,,,,,,,,,,,,,ピク　パツ　ムク　ドキ,パツ　ピク　ムク　ドキ,1
,,,,,,,,,R_WreRxGiHz0XYI7f,2022-07-03_18h59.14.587,jpn_C01,2022.1.2,MacIntel,59.99880002,,,,,,,,,,,,,CartoonStims/chef_shoot_cowboy_r.jpg,,,,,,,,,,,,,,,,,,,,,,,,,,,,,,,パツ　ホレト　ムク,right,11.6387,,,,,,0,15,15,31,1,,,,,,,,,,,,,,,,,,,,パツ　ホレト　ムク,パツ　ホレト　ムク,0
,,,,,,,,,R_WreRxGiHz0XYI7f,2022-07-03_18h59.14.587,jpn_C01,2022.1.2,MacIntel,59.99880002,,,,,,,,,,,,,CartoonStims/chef_punch_boxer_r_no.jpg,,,,,,,,,,,,,,,,,,,,,,,,,,,,,,,ピク　プミ　ホレト　ドキ,right,23.3485,,,,,,0,16,16,20,1,,,,,,,,,,,,,,,,,,,,ピク　プミ　ホレト　ドキ,プミ　ピク　ホレト　ドキ,1
,,,,,,,,,R_WreRxGiHz0XYI7f,2022-07-03_18h59.14.587,jpn_C01,2022.1.2,MacIntel,59.99880002,,,,,,,,,,,,,CartoonStims/chef_shoot_doctor_r_no.jpg,,,,,,,,,,,,,,,,,,,,,,,,,,,,,,,パツ　ピク　ホレト　ピポ,right,15.7286,,,,,,0,17,17,14,1,,,,,,,,,,,,,,,,,,,,ピク　パツ　ホレト　ピポ,パツ　ピク　ホレト　ピポ,1
,,,,,,,,,R_WreRxGiHz0XYI7f,2022-07-03_18h59.14.587,jpn_C01,2022.1.2,MacIntel,59.99880002,,,,,,,,,,,,,CartoonStims/boxer_shoot_burglar_r_no.jpg,,,,,,,,,,,,,,,,,,,,,,,,,,,,,,,パツ　ピク　ドキ　ルピン,right,18.0202,,,,,,0,18,18,17,1,,,,,,,,,,,,,,,,,,,,ピク　パツ　ドキ　ルピン,パツ　ピク　ドキ　ルピン,1
,,,,,,,,,R_WreRxGiHz0XYI7f,2022-07-03_18h59.14.587,jpn_C01,2022.1.2,MacIntel,59.99880002,,,,,,,,,,,,,CartoonStims/chef_point_cowboy_r_no.jpg,,,,,,,,,,,,,,,,,,,,,,,,,,,,,,,トマ　ピク　ホレト　ムク,right,17.264,,,,,,0,19,19,8,1,,,,,,,,,,,,,,,,,,,,ピク　トマ　ホレト　ムク,トマ　ピク　ホレト　ムク,1
,,,,,,,,,R_WreRxGiHz0XYI7f,2022-07-03_18h59.14.587,jpn_C01,2022.1.2,MacIntel,59.99880002,,,,,,,,,,,,,CartoonStims/chef_point_burglar_r.jpg,,,,,,,,,,,,,,,,,,,,,,,,,,,,,,,トマ　ホレト　ルピン,right,9.3679,,,,,,0,20,20,29,1,,,,,,,,,,,,,,,,,,,,トマ　ホレト　ルピン,トマ　ホレト　ルピン,0
,,,,,,,,,R_WreRxGiHz0XYI7f,2022-07-03_18h59.14.587,jpn_C01,2022.1.2,MacIntel,59.99880002,,,,,,,,,,,,,CartoonStims/boxer_point_artist_r_no.jpg,,,,,,,,,,,,,,,,,,,,,,,,,,,,,,,ピク　トマ　ドキ　シド,right,14.8639,,,,,,0,21,21,11,1,,,,,,,,,,,,,,,,,,,,ピク　トマ　ドキ　シド,トマ　ピク　ドキ　シド,1
,,,,,,,,,R_WreRxGiHz0XYI7f,2022-07-03_18h59.14.587,jpn_C01,2022.1.2,MacIntel,59.99880002,,,,,,,,,,,,,CartoonStims/boxer_punch_artist_r.jpg,,,,,,,,,,,,,,,,,,,,,,,,,,,,,,,プミ　ドキ　シド,right,9.7222,,,,,,0,22,22,35,1,,,,,,,,,,,,,,,,,,,,プミ　ドキ　シド,プミ　ドキ　シド,0
,,,,,,,,,R_WreRxGiHz0XYI7f,2022-07-03_18h59.14.587,jpn_C01,2022.1.2,MacIntel,59.99880002,,,,,,,,,,,,,CartoonStims/artist_punch_cowboy_r_no.jpg,,,,,,,,,,,,,,,,,,,,,,,,,,,,,,,ピク　プミ　シド　ムク,right,15.2972,,,,,,0,23,23,18,1,,,,,,,,,,,,,,,,,,,,ピク　プミ　シド　ムク,プミ　ピク　シド　ムク,1
,,,,,,,,,R_WreRxGiHz0XYI7f,2022-07-03_18h59.14.587,jpn_C01,2022.1.2,MacIntel,59.99880002,,,,,,,,,,,,,CartoonStims/artist_shoot_chef_r_no.jpg,,,,,,,,,,,,,,,,,,,,,,,,,,,,,,,パツ　ピク　シド　ホレト,right,16.0649,,,,,,0,24,24,12,1,,,,,,,,,,,,,,,,,,,,ピク　パツ　シド　ホレト,パツ　ピク　シド　ホレト,1
,,,,,,,,,R_WreRxGiHz0XYI7f,2022-07-03_18h59.14.587,jpn_C01,2022.1.2,MacIntel,59.99880002,,,,,,,,,,,,,CartoonStims/cowboy_point_doctor_r_no.jpg,,,,,,,,,,,,,,,,,,,,,,,,,,,,,,,トマ　ピク　ムク　ピポ,right,18.2623,,,,,,0,25,25,9,1,,,,,,,,,,,,,,,,,,,,ピク　トマ　ムク　ピポ,トマ　ピク　ムク　ピポ,1
,,,,,,,,,R_WreRxGiHz0XYI7f,2022-07-03_18h59.14.587,jpn_C01,2022.1.2,MacIntel,59.99880002,,,,,,,,,,,,,CartoonStims/chef_kick_burglar_r_no.jpg,,,,,,,,,,,,,,,,,,,,,,,,,,,,,,,セル　ピク　ホレト　ルピン,right,17.2298,,,,,,0,26,26,2,1,,,,,,,,,,,,,,,,,,,,ピク　セル　ホレト　ルピン,セル　ピク　ホレト　ルピン,1
,,,,,,,,,R_WreRxGiHz0XYI7f,2022-07-03_18h59.14.587,jpn_C01,2022.1.2,MacIntel,59.99880002,,,,,,,,,,,,,CartoonStims/doctor_kick_chef_r.jpg,,,,,,,,,,,,,,,,,,,,,,,,,,,,,,,セル　ピポ　ホレト,right,8.6511,,,,,,0,27,27,25,1,,,,,,,,,,,,,,,,,,,,セル　ピポ　ホレト,セル　ピポ　ホレト,0
,,,,,,,,,R_WreRxGiHz0XYI7f,2022-07-03_18h59.14.587,jpn_C01,2022.1.2,MacIntel,59.99880002,,,,,,,,,,,,,CartoonStims/boxer_kick_cowboy_r.jpg,,,,,,,,,,,,,,,,,,,,,,,,,,,,,,,セル　ドキ　ムク,right,10.1511,,,,,,0,28,28,26,1,,,,,,,,,,,,,,,,,,,,セル　ドキ　ムク,セル　ドキ　ムク,0
,,,,,,,,,R_WreRxGiHz0XYI7f,2022-07-03_18h59.14.587,jpn_C01,2022.1.2,MacIntel,59.99880002,,,,,,,,,,,,,CartoonStims/burglar_punch_doctor_r_no.jpg,,,,,,,,,,,,,,,,,,,,,,,,,,,,,,,ピク　プミ　ルピン　ピポ,right,19.2981,,,,,,0,29,29,19,1,,,,,,,,,,,,,,,,,,,,ピク　プミ　ルピン　ピポ,プミ　ピク　ルピン　ピポ,1
,,,,,,,,,R_WreRxGiHz0XYI7f,2022-07-03_18h59.14.587,jpn_C01,2022.1.2,MacIntel,59.99880002,,,,,,,,,,,,,CartoonStims/doctor_punch_burglar_r_no.jpg,,,,,,,,,,,,,,,,,,,,,,,,,,,,,,,ピクプミ　ピポ　ルピン,right,17.845,,,,,,0,30,30,22,1,,,,,,,,,,,,,,,,,,,,ピク　プミ　ピポ　ルピン,プミ　ピク　ピポ　ルピン,1
,,,,,,,,,R_WreRxGiHz0XYI7f,2022-07-03_18h59.14.587,jpn_C01,2022.1.2,MacIntel,59.99880002,,,,,,,,,,,,,CartoonStims/artist_point_burglar_r_no.jpg,,,,,,,,,,,,,,,,,,,,,,,,,,,,,,,ピク　トマ　シド　ルピン,right,30.4135,,,,,,0,31,31,6,1,,,,,,,,,,,,,,,,,,,,ピク　トマ　シド　ルピン,トマ　ピク　シド　ルピン,1
,,,,,,,,,R_WreRxGiHz0XYI7f,2022-07-03_18h59.14.587,jpn_C01,2022.1.2,MacIntel,59.99880002,,,,,,,,,,,,,CartoonStims/doctor_punch_boxer_r.jpg,,,,,,,,,,,,,,,,,,,,,,,,,,,,,,,プミ　ピポ　ドキ,right,11.3328,,,,,,0,32,32,34,1,,,,,,,,,,,,,,,,,,,,プミ　ピポ　ドキ,プミ　ピポ　ドキ,0
,,,,,,,,,R_WreRxGiHz0XYI7f,2022-07-03_18h59.14.587,jpn_C01,2022.1.2,MacIntel,59.99880002,,,,,,,,,,,,,CartoonStims/cowboy_shoot_doctor_r.jpg,,,,,,,,,,,,,,,,,,,,,,,,,,,,,,,パツ　ムク　ピポ,right,11.6697,,,,,,0,33,33,32,1,,,,,,,,,,,,,,,,,,,,パツ　ムク　ピポ,パツ　ムク　ピポ,0
,,,,,,,,,R_WreRxGiHz0XYI7f,2022-07-03_18h59.14.587,jpn_C01,2022.1.2,MacIntel,59.99880002,,,,,,,,,,,,,CartoonStims/artist_punch_burglar_r.jpg,,,,,,,,,,,,,,,,,,,,,,,,,,,,,,,プミ　シド　ルピン,right,10.7175,,,,,,0,34,34,33,1,,,,,,,,,,,,,,,,,,,,プミ　シド　ルピン,プミ　シド　ルピン,0
,,,,,,,,,R_WreRxGiHz0XYI7f,2022-07-03_18h59.14.587,jpn_C01,2022.1.2,MacIntel,59.99880002,,,,,,,,,,,,,CartoonStims/boxer_kick_doctor_r_no.jpg,,,,,,,,,,,,,,,,,,,,,,,,,,,,,,,セル　ピク　ドキ　ピポ,right,17.214,,,,,,0,35,35,5,1,,,,,,,,,,,,,,,,,,,,ピク　セル　ドキ　ピポ,セル　ピク　ドキ　ピポ,1
,,,,,,,,,R_WreRxGiHz0XYI7f,2022-07-03_18h59.14.587,jpn_C01,2022.1.2,MacIntel,59.99880002,,,,,,,,,,,,,,,,,,,,,,,,,,,,,,,,,,,,,,,,,,,,,,,,,,,,,,,,,,,space,10.1508,0,2,2,2,1,EquiprobableCondition.xlsx,"ここではこの言語における否定の文を学習していただきます。引き続き注意して、 聞こえた音を復唱してください。

スペースキーを押してください。",1,EquiFCT.xlsx,ここからクイズが始まります。 スクリーンに表示されるテキストに合うイメージを選んでください。,NegTest.xlsx,1,最後にここまで学んだことをアウトプットしていただきます。 テキストボックスにあるイメージを描写するテキストを入力してください。 このタスクでは、 答え合わせは行いません。,0,これですべての実験が終わりました。 お疲れさまです。 この後はアンケートに答えていただきます。,,,