key_resp_instr_a.keys,key_resp_instr_a.rt,key_resp_instr_b.keys,key_resp_instr_b.rt,dummy.thisRepN,dummy.thisTrialN,dummy.thisN,dummy.thisIndex,dummy.ran,participant,date,expName,psychopyVersion,OS,frameRate,key_resp_instr1.keys,key_resp_instr1.rt,key_resp.keys,key_resp.rt,exp_loop.thisRepN,exp_loop.thisTrialN,exp_loop.thisN,exp_loop.thisIndex,exp_loop.ran,Word,English,Flip,Path,Audio,key_resp_instr2.keys,key_resp_instr2.rt,key_resp_fct.keys,key_resp_fct.corr,key_resp_fct.rt,trials_2.thisRepN,trials_2.thisTrialN,trials_2.thisN,trials_2.thisIndex,trials_2.ran,fct_loop.thisRepN,fct_loop.thisTrialN,fct_loop.thisN,fct_loop.thisIndex,fct_loop.ran,left_img,word,right_img,correctans,correct_img,audio,incorrect_feedback,trials.thisRepN,trials.thisTrialN,trials.thisN,trials.thisIndex,trials.ran,key_resp_instr3.keys,key_resp_instr3.rt,textbox.text,key_resp_2.keys,key_resp_2.rt,fb_yn.thisRepN,fb_yn.thisTrialN,fb_yn.thisN,fb_yn.thisIndex,fb_yn.ran,gather_loop.thisRepN,gather_loop.thisTrialN,gather_loop.thisN,gather_loop.thisIndex,gather_loop.ran,Text,Wordbank,key_resp_instr4.keys,key_resp_instr4.rt,master_loop.thisRepN,master_loop.thisTrialN,master_loop.thisN,master_loop.thisIndex,master_loop.ran,exposure_file,instr_1,exp_reps,fct_file,instr_2,gather_file,gather_reps,instr_3,fReps,instr_4,trials_3.thisRepN,trials_3.thisTrialN,trials_3.thisN,trials_3.thisIndex,trials_3.ran,NegVSentence,VNegSentence,NegTF
space,306.782,space,8.59,0,0,0,0,1,R_3COVX1gMIUulXOc,2022-09-01_20h26.14.974,jpn_C02,2022.1.2,MacIntel,58.82352941,,,,,,,,,,,,,,,,,,,,,,,,,,,,,,,,,,,,,,,,,,,,,,,,,,,,,,,,,,,,,,,,,,,,,,,,,,,,,,,,,,,
,,,,,,,,,R_3COVX1gMIUulXOc,2022-09-01_20h26.14.974,jpn_C02,2022.1.2,MacIntel,58.82352941,space,31.409,space,8.654,0,0,0,1,1,ルピン,burglar,,CartoonStims/burglar_r.jpg,audio/lupin.mp3,,,,,,,,,,,,,,,,,,,,,,,,,,,,,,,,,,,,,,,,,,,,,,,,,,,,,,,,,,,,,,,,,,,,,
,,,,,,,,,R_3COVX1gMIUulXOc,2022-09-01_20h26.14.974,jpn_C02,2022.1.2,MacIntel,58.82352941,,,space,5.096,0,1,1,2,1,ホレト,chef,,CartoonStims/chef_r.jpg,audio/horeto.mp3,,,,,,,,,,,,,,,,,,,,,,,,,,,,,,,,,,,,,,,,,,,,,,,,,,,,,,,,,,,,,,,,,,,,,
,,,,,,,,,R_3COVX1gMIUulXOc,2022-09-01_20h26.14.974,jpn_C02,2022.1.2,MacIntel,58.82352941,,,space,3.672,0,2,2,4,1,ピポ,doctor,,CartoonStims/doctor_r.jpg,audio/pipo.mp3,,,,,,,,,,,,,,,,,,,,,,,,,,,,,,,,,,,,,,,,,,,,,,,,,,,,,,,,,,,,,,,,,,,,,
,,,,,,,,,R_3COVX1gMIUulXOc,2022-09-01_20h26.14.974,jpn_C02,2022.1.2,MacIntel,58.82352941,,,space,3.107,0,3,3,3,1,ムク,cowboy,,CartoonStims/cowboy_r.jpg,audio/muku.mp3,,,,,,,,,,,,,,,,,,,,,,,,,,,,,,,,,,,,,,,,,,,,,,,,,,,,,,,,,,,,,,,,,,,,,
,,,,,,,,,R_3COVX1gMIUulXOc,2022-09-01_20h26.14.974,jpn_C02,2022.1.2,MacIntel,58.82352941,,,space,2.392,0,4,4,0,1,シド,artist,,CartoonStims/artist_r.jpg,audio/sido.mp3,,,,,,,,,,,,,,,,,,,,,,,,,,,,,,,,,,,,,,,,,,,,,,,,,,,,,,,,,,,,,,,,,,,,,
,,,,,,,,,R_3COVX1gMIUulXOc,2022-09-01_20h26.14.974,jpn_C02,2022.1.2,MacIntel,58.82352941,,,space,2.924,0,5,5,5,1,ドキ,boxer,,CartoonStims/boxer_r.jpg,audio/doki.mp3,,,,,,,,,,,,,,,,,,,,,,,,,,,,,,,,,,,,,,,,,,,,,,,,,,,,,,,,,,,,,,,,,,,,,
,,,,,,,,,R_3COVX1gMIUulXOc,2022-09-01_20h26.14.974,jpn_C02,2022.1.2,MacIntel,58.82352941,,,space,2.768,1,0,6,0,1,シド,artist,,CartoonStims/artist_r.jpg,audio/sido.mp3,,,,,,,,,,,,,,,,,,,,,,,,,,,,,,,,,,,,,,,,,,,,,,,,,,,,,,,,,,,,,,,,,,,,,
,,,,,,,,,R_3COVX1gMIUulXOc,2022-09-01_20h26.14.974,jpn_C02,2022.1.2,MacIntel,58.82352941,,,space,0.964,1,1,7,5,1,ドキ,boxer,,CartoonStims/boxer_r.jpg,audio/doki.mp3,,,,,,,,,,,,,,,,,,,,,,,,,,,,,,,,,,,,,,,,,,,,,,,,,,,,,,,,,,,,,,,,,,,,,
,,,,,,,,,R_3COVX1gMIUulXOc,2022-09-01_20h26.14.974,jpn_C02,2022.1.2,MacIntel,58.82352941,,,space,9.225,1,2,8,4,1,ピポ,doctor,,CartoonStims/doctor_r.jpg,audio/pipo.mp3,,,,,,,,,,,,,,,,,,,,,,,,,,,,,,,,,,,,,,,,,,,,,,,,,,,,,,,,,,,,,,,,,,,,,
,,,,,,,,,R_3COVX1gMIUulXOc,2022-09-01_20h26.14.974,jpn_C02,2022.1.2,MacIntel,58.82352941,,,space,3.202,1,3,9,1,1,ルピン,burglar,,CartoonStims/burglar_r.jpg,audio/lupin.mp3,,,,,,,,,,,,,,,,,,,,,,,,,,,,,,,,,,,,,,,,,,,,,,,,,,,,,,,,,,,,,,,,,,,,,
,,,,,,,,,R_3COVX1gMIUulXOc,2022-09-01_20h26.14.974,jpn_C02,2022.1.2,MacIntel,58.82352941,,,space,2.603,1,4,10,2,1,ホレト,chef,,CartoonStims/chef_r.jpg,audio/horeto.mp3,,,,,,,,,,,,,,,,,,,,,,,,,,,,,,,,,,,,,,,,,,,,,,,,,,,,,,,,,,,,,,,,,,,,,
,,,,,,,,,R_3COVX1gMIUulXOc,2022-09-01_20h26.14.974,jpn_C02,2022.1.2,MacIntel,58.82352941,,,space,2.071,1,5,11,3,1,ムク,cowboy,,CartoonStims/cowboy_r.jpg,audio/muku.mp3,,,,,,,,,,,,,,,,,,,,,,,,,,,,,,,,,,,,,,,,,,,,,,,,,,,,,,,,,,,,,,,,,,,,,
,,,,,,,,,R_3COVX1gMIUulXOc,2022-09-01_20h26.14.974,jpn_C02,2022.1.2,MacIntel,58.82352941,,,space,1.606,2,0,12,5,1,ドキ,boxer,,CartoonStims/boxer_r.jpg,audio/doki.mp3,,,,,,,,,,,,,,,,,,,,,,,,,,,,,,,,,,,,,,,,,,,,,,,,,,,,,,,,,,,,,,,,,,,,,
,,,,,,,,,R_3COVX1gMIUulXOc,2022-09-01_20h26.14.974,jpn_C02,2022.1.2,MacIntel,58.82352941,,,space,3.256,2,1,13,0,1,シド,artist,,CartoonStims/artist_r.jpg,audio/sido.mp3,,,,,,,,,,,,,,,,,,,,,,,,,,,,,,,,,,,,,,,,,,,,,,,,,,,,,,,,,,,,,,,,,,,,,
,,,,,,,,,R_3COVX1gMIUulXOc,2022-09-01_20h26.14.974,jpn_C02,2022.1.2,MacIntel,58.82352941,,,space,2.284,2,2,14,2,1,ホレト,chef,,CartoonStims/chef_r.jpg,audio/horeto.mp3,,,,,,,,,,,,,,,,,,,,,,,,,,,,,,,,,,,,,,,,,,,,,,,,,,,,,,,,,,,,,,,,,,,,,
,,,,,,,,,R_3COVX1gMIUulXOc,2022-09-01_20h26.14.974,jpn_C02,2022.1.2,MacIntel,58.82352941,,,space,0.814,2,3,15,4,1,ピポ,doctor,,CartoonStims/doctor_r.jpg,audio/pipo.mp3,,,,,,,,,,,,,,,,,,,,,,,,,,,,,,,,,,,,,,,,,,,,,,,,,,,,,,,,,,,,,,,,,,,,,
,,,,,,,,,R_3COVX1gMIUulXOc,2022-09-01_20h26.14.974,jpn_C02,2022.1.2,MacIntel,58.82352941,,,space,2.836,2,4,16,3,1,ムク,cowboy,,CartoonStims/cowboy_r.jpg,audio/muku.mp3,,,,,,,,,,,,,,,,,,,,,,,,,,,,,,,,,,,,,,,,,,,,,,,,,,,,,,,,,,,,,,,,,,,,,
,,,,,,,,,R_3COVX1gMIUulXOc,2022-09-01_20h26.14.974,jpn_C02,2022.1.2,MacIntel,58.82352941,,,space,2.627,2,5,17,1,1,ルピン,burglar,,CartoonStims/burglar_r.jpg,audio/lupin.mp3,,,,,,,,,,,,,,,,,,,,,,,,,,,,,,,,,,,,,,,,,,,,,,,,,,,,,,,,,,,,,,,,,,,,,
,,,,,,,,,R_3COVX1gMIUulXOc,2022-09-01_20h26.14.974,jpn_C02,2022.1.2,MacIntel,58.82352941,,,,,,,,,,,,,,,space,3.333,right,1,1.986,0,0,0,0,1,,,,,,,,,,,,,,,,,,,,,,,,,,,,,,,,,,,,,,,,,,,,,,,,,,,,,,,,,,,
,,,,,,,,,R_3COVX1gMIUulXOc,2022-09-01_20h26.14.974,jpn_C02,2022.1.2,MacIntel,58.82352941,,,,,,,,,,,,,,,,,,,,,,,,,0,0,0,11,1,CartoonStims/burglar_r.jpg,ドキ,CartoonStims/boxer_r.jpg,right,CartoonStims/boxer_r.jpg,audio/doki.mp3,残念！ こちらが正しい画像です。,,,,,,,,,,,,,,,,,,,,,,,,,,,,,,,,,,,,,,,,,,,,,,,
,,,,,,,,,R_3COVX1gMIUulXOc,2022-09-01_20h26.14.974,jpn_C02,2022.1.2,MacIntel,58.82352941,,,,,,,,,,,,,,,,,left,1,0.801,,,,,,,,,,,,,,,,,,0,0,0,0,1,,,,,,,,,,,,,,,,,,,,,,,,,,,,,,,,,,,,,,,,,,
,,,,,,,,,R_3COVX1gMIUulXOc,2022-09-01_20h26.14.974,jpn_C02,2022.1.2,MacIntel,58.82352941,,,,,,,,,,,,,,,,,,,,,,,,,0,1,1,1,1,CartoonStims/burglar_r.jpg,ルピン,CartoonStims/chef_r.jpg,left,CartoonStims/burglar_r.jpg,audio/lupin.mp3,残念！ こちらが正しい画像です。,,,,,,,,,,,,,,,,,,,,,,,,,,,,,,,,,,,,,,,,,,,,,,,
,,,,,,,,,R_3COVX1gMIUulXOc,2022-09-01_20h26.14.974,jpn_C02,2022.1.2,MacIntel,58.82352941,,,,,,,,,,,,,,,,,right,1,0.739,0,0,0,0,1,,,,,,,,,,,,,,,,,,,,,,,,,,,,,,,,,,,,,,,,,,,,,,,,,,,,,,,,,,,
,,,,,,,,,R_3COVX1gMIUulXOc,2022-09-01_20h26.14.974,jpn_C02,2022.1.2,MacIntel,58.82352941,,,,,,,,,,,,,,,,,,,,,,,,,0,2,2,7,1,CartoonStims/cowboy_r.jpg,ルピン,CartoonStims/burglar_r.jpg,right,CartoonStims/burglar_r.jpg,audio/lupin.mp3,残念！ こちらが正しい画像です。,,,,,,,,,,,,,,,,,,,,,,,,,,,,,,,,,,,,,,,,,,,,,,,
,,,,,,,,,R_3COVX1gMIUulXOc,2022-09-01_20h26.14.974,jpn_C02,2022.1.2,MacIntel,58.82352941,,,,,,,,,,,,,,,,,left,1,1.375,,,,,,,,,,,,,,,,,,0,0,0,0,1,,,,,,,,,,,,,,,,,,,,,,,,,,,,,,,,,,,,,,,,,,
,,,,,,,,,R_3COVX1gMIUulXOc,2022-09-01_20h26.14.974,jpn_C02,2022.1.2,MacIntel,58.82352941,,,,,,,,,,,,,,,,,,,,,,,,,0,3,3,0,1,CartoonStims/artist_r.jpg,シド,CartoonStims/burglar_r.jpg,left,CartoonStims/artist_r.jpg,audio/sido.mp3,残念！ こちらが正しい画像です。,,,,,,,,,,,,,,,,,,,,,,,,,,,,,,,,,,,,,,,,,,,,,,,
,,,,,,,,,R_3COVX1gMIUulXOc,2022-09-01_20h26.14.974,jpn_C02,2022.1.2,MacIntel,58.82352941,,,,,,,,,,,,,,,,,right,1,1.836,0,0,0,0,1,,,,,,,,,,,,,,,,,,,,,,,,,,,,,,,,,,,,,,,,,,,,,,,,,,,,,,,,,,,
,,,,,,,,,R_3COVX1gMIUulXOc,2022-09-01_20h26.14.974,jpn_C02,2022.1.2,MacIntel,58.82352941,,,,,,,,,,,,,,,,,,,,,,,,,0,4,4,9,1,CartoonStims/boxer_r.jpg,ムク,CartoonStims/cowboy_r.jpg,right,CartoonStims/cowboy_r.jpg,audio/muku.mp3,残念！ こちらが正しい画像です。,,,,,,,,,,,,,,,,,,,,,,,,,,,,,,,,,,,,,,,,,,,,,,,
,,,,,,,,,R_3COVX1gMIUulXOc,2022-09-01_20h26.14.974,jpn_C02,2022.1.2,MacIntel,58.82352941,,,,,,,,,,,,,,,,,right,1,0.736,0,0,0,0,1,,,,,,,,,,,,,,,,,,,,,,,,,,,,,,,,,,,,,,,,,,,,,,,,,,,,,,,,,,,
,,,,,,,,,R_3COVX1gMIUulXOc,2022-09-01_20h26.14.974,jpn_C02,2022.1.2,MacIntel,58.82352941,,,,,,,,,,,,,,,,,,,,,,,,,0,5,5,10,1,CartoonStims/artist_r.jpg,ピポ,CartoonStims/doctor_r.jpg,right,CartoonStims/doctor_r.jpg,audio/pipo.mp3,残念！ こちらが正しい画像です。,,,,,,,,,,,,,,,,,,,,,,,,,,,,,,,,,,,,,,,,,,,,,,,
,,,,,,,,,R_3COVX1gMIUulXOc,2022-09-01_20h26.14.974,jpn_C02,2022.1.2,MacIntel,58.82352941,,,,,,,,,,,,,,,,,left,1,1.069,,,,,,,,,,,,,,,,,,0,0,0,0,1,,,,,,,,,,,,,,,,,,,,,,,,,,,,,,,,,,,,,,,,,,
,,,,,,,,,R_3COVX1gMIUulXOc,2022-09-01_20h26.14.974,jpn_C02,2022.1.2,MacIntel,58.82352941,,,,,,,,,,,,,,,,,,,,,,,,,0,6,6,5,1,CartoonStims/boxer_r.jpg,ドキ,CartoonStims/artist_r.jpg,left,CartoonStims/boxer_r.jpg,audio/doki.mp3,残念！ こちらが正しい画像です。,,,,,,,,,,,,,,,,,,,,,,,,,,,,,,,,,,,,,,,,,,,,,,,
,,,,,,,,,R_3COVX1gMIUulXOc,2022-09-01_20h26.14.974,jpn_C02,2022.1.2,MacIntel,58.82352941,,,,,,,,,,,,,,,,,right,1,1.802,0,0,0,0,1,,,,,,,,,,,,,,,,,,,,,,,,,,,,,,,,,,,,,,,,,,,,,,,,,,,,,,,,,,,
,,,,,,,,,R_3COVX1gMIUulXOc,2022-09-01_20h26.14.974,jpn_C02,2022.1.2,MacIntel,58.82352941,,,,,,,,,,,,,,,,,,,,,,,,,0,7,7,6,1,CartoonStims/chef_r.jpg,シド,CartoonStims/artist_r.jpg,right,CartoonStims/artist_r.jpg,audio/sido.mp3,残念！ こちらが正しい画像です。,,,,,,,,,,,,,,,,,,,,,,,,,,,,,,,,,,,,,,,,,,,,,,,
,,,,,,,,,R_3COVX1gMIUulXOc,2022-09-01_20h26.14.974,jpn_C02,2022.1.2,MacIntel,58.82352941,,,,,,,,,,,,,,,,,left,1,1.107,,,,,,,,,,,,,,,,,,0,0,0,0,1,,,,,,,,,,,,,,,,,,,,,,,,,,,,,,,,,,,,,,,,,,
,,,,,,,,,R_3COVX1gMIUulXOc,2022-09-01_20h26.14.974,jpn_C02,2022.1.2,MacIntel,58.82352941,,,,,,,,,,,,,,,,,,,,,,,,,0,8,8,3,1,CartoonStims/cowboy_r.jpg,ムク,CartoonStims/doctor_r.jpg,left,CartoonStims/cowboy_r.jpg,audio/muku.mp3,残念！ こちらが正しい画像です。,,,,,,,,,,,,,,,,,,,,,,,,,,,,,,,,,,,,,,,,,,,,,,,
,,,,,,,,,R_3COVX1gMIUulXOc,2022-09-01_20h26.14.974,jpn_C02,2022.1.2,MacIntel,58.82352941,,,,,,,,,,,,,,,,,left,1,0.732,,,,,,,,,,,,,,,,,,0,0,0,0,1,,,,,,,,,,,,,,,,,,,,,,,,,,,,,,,,,,,,,,,,,,
,,,,,,,,,R_3COVX1gMIUulXOc,2022-09-01_20h26.14.974,jpn_C02,2022.1.2,MacIntel,58.82352941,,,,,,,,,,,,,,,,,,,,,,,,,0,9,9,4,1,CartoonStims/doctor_r.jpg,ピポ,CartoonStims/boxer_r.jpg,left,CartoonStims/doctor_r.jpg,audio/pipo.mp3,残念！ こちらが正しい画像です。,,,,,,,,,,,,,,,,,,,,,,,,,,,,,,,,,,,,,,,,,,,,,,,
,,,,,,,,,R_3COVX1gMIUulXOc,2022-09-01_20h26.14.974,jpn_C02,2022.1.2,MacIntel,58.82352941,,,,,,,,,,,,,,,,,left,1,0.845,,,,,,,,,,,,,,,,,,0,0,0,0,1,,,,,,,,,,,,,,,,,,,,,,,,,,,,,,,,,,,,,,,,,,
,,,,,,,,,R_3COVX1gMIUulXOc,2022-09-01_20h26.14.974,jpn_C02,2022.1.2,MacIntel,58.82352941,,,,,,,,,,,,,,,,,,,,,,,,,0,10,10,2,1,CartoonStims/chef_r.jpg,ホレト,CartoonStims/cowboy_r.jpg,left,CartoonStims/chef_r.jpg,audio/horeto.mp3,残念！ こちらが正しい画像です。,,,,,,,,,,,,,,,,,,,,,,,,,,,,,,,,,,,,,,,,,,,,,,,
,,,,,,,,,R_3COVX1gMIUulXOc,2022-09-01_20h26.14.974,jpn_C02,2022.1.2,MacIntel,58.82352941,,,,,,,,,,,,,,,,,right,1,0.47,0,0,0,0,1,,,,,,,,,,,,,,,,,,,,,,,,,,,,,,,,,,,,,,,,,,,,,,,,,,,,,,,,,,,
,,,,,,,,,R_3COVX1gMIUulXOc,2022-09-01_20h26.14.974,jpn_C02,2022.1.2,MacIntel,58.82352941,,,,,,,,,,,,,,,,,,,,,,,,,0,11,11,8,1,CartoonStims/doctor_r.jpg,ホレト,CartoonStims/chef_r.jpg,right,CartoonStims/chef_r.jpg,audio/horeto.mp3,残念！ こちらが正しい画像です。,,,,,,,,,,,,,,,,,,,,,,,,,,,,,,,,,,,,,,,,,,,,,,,
,,,,,,,,,R_3COVX1gMIUulXOc,2022-09-01_20h26.14.974,jpn_C02,2022.1.2,MacIntel,58.82352941,,,,,,,,,,,,,,,,,,,,,,,,,,,,,,,,,,,,,,,,,,space,3.887,シド,right,5.903,0,0,0,0,1,,,,,,,,,,,,,,,,,,,,,,,,,,,,,,,,
,,,,,,,,,R_3COVX1gMIUulXOc,2022-09-01_20h26.14.974,jpn_C02,2022.1.2,MacIntel,58.82352941,,,,,,,,,,,,,CartoonStims/cowboy_r.jpg,audio/muku.mp3,,,,,,,,,,,,,,,,,,,,,,,,,,,,,,,,,,,,,,0,0,0,3,1,ムク,,,,,,,,,,,,,,,,,,,,,,,,,,
,,,,,,,,,R_3COVX1gMIUulXOc,2022-09-01_20h26.14.974,jpn_C02,2022.1.2,MacIntel,58.82352941,,,,,,,,,,,,,,,,,,,,,,,,,,,,,,,,,,,,,,,,,,,,ピポ,right,4.005,0,0,0,0,1,,,,,,,,,,,,,,,,,,,,,,,,,,,,,,,,
,,,,,,,,,R_3COVX1gMIUulXOc,2022-09-01_20h26.14.974,jpn_C02,2022.1.2,MacIntel,58.82352941,,,,,,,,,,,,,CartoonStims/doctor_r.jpg,audio/pipo.mp3,,,,,,,,,,,,,,,,,,,,,,,,,,,,,,,,,,,,,,0,1,1,4,1,ピポ,,,,,,,,,,,,,,,,,,,,,,,,,,
,,,,,,,,,R_3COVX1gMIUulXOc,2022-09-01_20h26.14.974,jpn_C02,2022.1.2,MacIntel,58.82352941,,,,,,,,,,,,,,,,,,,,,,,,,,,,,,,,,,,,,,,,,,,,ドキ,right,5.124,0,0,0,0,1,,,,,,,,,,,,,,,,,,,,,,,,,,,,,,,,
,,,,,,,,,R_3COVX1gMIUulXOc,2022-09-01_20h26.14.974,jpn_C02,2022.1.2,MacIntel,58.82352941,,,,,,,,,,,,,CartoonStims/boxer_r.jpg,audio/doki.mp3,,,,,,,,,,,,,,,,,,,,,,,,,,,,,,,,,,,,,,0,2,2,5,1,ドキ,,,,,,,,,,,,,,,,,,,,,,,,,,
,,,,,,,,,R_3COVX1gMIUulXOc,2022-09-01_20h26.14.974,jpn_C02,2022.1.2,MacIntel,58.82352941,,,,,,,,,,,,,,,,,,,,,,,,,,,,,,,,,,,,,,,,,,,,シド,right,4.259,0,0,0,0,1,,,,,,,,,,,,,,,,,,,,,,,,,,,,,,,,
,,,,,,,,,R_3COVX1gMIUulXOc,2022-09-01_20h26.14.974,jpn_C02,2022.1.2,MacIntel,58.82352941,,,,,,,,,,,,,CartoonStims/artist_r.jpg,audio/sido.mp3,,,,,,,,,,,,,,,,,,,,,,,,,,,,,,,,,,,,,,0,3,3,0,1,シド,,,,,,,,,,,,,,,,,,,,,,,,,,
,,,,,,,,,R_3COVX1gMIUulXOc,2022-09-01_20h26.14.974,jpn_C02,2022.1.2,MacIntel,58.82352941,,,,,,,,,,,,,,,,,,,,,,,,,,,,,,,,,,,,,,,,,,,,ルピン,right,6.102,0,0,0,0,1,,,,,,,,,,,,,,,,,,,,,,,,,,,,,,,,
,,,,,,,,,R_3COVX1gMIUulXOc,2022-09-01_20h26.14.974,jpn_C02,2022.1.2,MacIntel,58.82352941,,,,,,,,,,,,,CartoonStims/burglar_r.jpg,audio/lupin.mp3,,,,,,,,,,,,,,,,,,,,,,,,,,,,,,,,,,,,,,0,4,4,1,1,ルピン,,,,,,,,,,,,,,,,,,,,,,,,,,
,,,,,,,,,R_3COVX1gMIUulXOc,2022-09-01_20h26.14.974,jpn_C02,2022.1.2,MacIntel,58.82352941,,,,,,,,,,,,,,,,,,,,,,,,,,,,,,,,,,,,,,,,,,,,ホレト,right,12.021,0,0,0,0,1,,,,,,,,,,,,,,,,,,,,,,,,,,,,,,,,
,,,,,,,,,R_3COVX1gMIUulXOc,2022-09-01_20h26.14.974,jpn_C02,2022.1.2,MacIntel,58.82352941,,,,,,,,,,,,,CartoonStims/chef_r.jpg,audio/horeto.mp3,,,,,,,,,,,,,,,,,,,,,,,,,,,,,,,,,,,,,,0,5,5,2,1,ホレト,,,,,,,,,,,,,,,,,,,,,,,,,,
,,,,,,,,,R_3COVX1gMIUulXOc,2022-09-01_20h26.14.974,jpn_C02,2022.1.2,MacIntel,58.82352941,,,,,,,,,,,,,,,,,,,,,,,,,,,,,,,,,,,,,,,,,,,,シド,right,5.306,0,0,0,0,1,,,,,,,,,,,,,,,,,,,,,,,,,,,,,,,,
,,,,,,,,,R_3COVX1gMIUulXOc,2022-09-01_20h26.14.974,jpn_C02,2022.1.2,MacIntel,58.82352941,,,,,,,,,,,,,CartoonStims/artist_r.jpg,audio/sido.mp3,,,,,,,,,,,,,,,,,,,,,,,,,,,,,,,,,,,,,,1,0,6,0,1,シド,,,,,,,,,,,,,,,,,,,,,,,,,,
,,,,,,,,,R_3COVX1gMIUulXOc,2022-09-01_20h26.14.974,jpn_C02,2022.1.2,MacIntel,58.82352941,,,,,,,,,,,,,,,,,,,,,,,,,,,,,,,,,,,,,,,,,,,,ホレト,right,6.46,0,0,0,0,1,,,,,,,,,,,,,,,,,,,,,,,,,,,,,,,,
,,,,,,,,,R_3COVX1gMIUulXOc,2022-09-01_20h26.14.974,jpn_C02,2022.1.2,MacIntel,58.82352941,,,,,,,,,,,,,CartoonStims/chef_r.jpg,audio/horeto.mp3,,,,,,,,,,,,,,,,,,,,,,,,,,,,,,,,,,,,,,1,1,7,2,1,ホレト,,,,,,,,,,,,,,,,,,,,,,,,,,
,,,,,,,,,R_3COVX1gMIUulXOc,2022-09-01_20h26.14.974,jpn_C02,2022.1.2,MacIntel,58.82352941,,,,,,,,,,,,,,,,,,,,,,,,,,,,,,,,,,,,,,,,,,,,ドキ,right,17.811,0,0,0,0,1,,,,,,,,,,,,,,,,,,,,,,,,,,,,,,,,
,,,,,,,,,R_3COVX1gMIUulXOc,2022-09-01_20h26.14.974,jpn_C02,2022.1.2,MacIntel,58.82352941,,,,,,,,,,,,,CartoonStims/cowboy_r.jpg,audio/muku.mp3,,,,,,,,,,,,,,,,,,,,,,,,,,,,,,,,,,,,,,1,2,8,3,1,ムク,,,,,,,,,,,,,,,,,,,,,,,,,,
,,,,,,,,,R_3COVX1gMIUulXOc,2022-09-01_20h26.14.974,jpn_C02,2022.1.2,MacIntel,58.82352941,,,,,,,,,,,,,,,,,,,,,,,,,,,,,,,,,,,,,,,,,,,,ピポ,right,2.636,0,0,0,0,1,,,,,,,,,,,,,,,,,,,,,,,,,,,,,,,,
,,,,,,,,,R_3COVX1gMIUulXOc,2022-09-01_20h26.14.974,jpn_C02,2022.1.2,MacIntel,58.82352941,,,,,,,,,,,,,CartoonStims/doctor_r.jpg,audio/pipo.mp3,,,,,,,,,,,,,,,,,,,,,,,,,,,,,,,,,,,,,,1,3,9,4,1,ピポ,,,,,,,,,,,,,,,,,,,,,,,,,,
,,,,,,,,,R_3COVX1gMIUulXOc,2022-09-01_20h26.14.974,jpn_C02,2022.1.2,MacIntel,58.82352941,,,,,,,,,,,,,,,,,,,,,,,,,,,,,,,,,,,,,,,,,,,,ルピン,right,4.015,0,0,0,0,1,,,,,,,,,,,,,,,,,,,,,,,,,,,,,,,,
,,,,,,,,,R_3COVX1gMIUulXOc,2022-09-01_20h26.14.974,jpn_C02,2022.1.2,MacIntel,58.82352941,,,,,,,,,,,,,CartoonStims/burglar_r.jpg,audio/lupin.mp3,,,,,,,,,,,,,,,,,,,,,,,,,,,,,,,,,,,,,,1,4,10,1,1,ルピン,,,,,,,,,,,,,,,,,,,,,,,,,,
,,,,,,,,,R_3COVX1gMIUulXOc,2022-09-01_20h26.14.974,jpn_C02,2022.1.2,MacIntel,58.82352941,,,,,,,,,,,,,,,,,,,,,,,,,,,,,,,,,,,,,,,,,,,,ドキ,right,2.912,0,0,0,0,1,,,,,,,,,,,,,,,,,,,,,,,,,,,,,,,,
,,,,,,,,,R_3COVX1gMIUulXOc,2022-09-01_20h26.14.974,jpn_C02,2022.1.2,MacIntel,58.82352941,,,,,,,,,,,,,CartoonStims/boxer_r.jpg,audio/doki.mp3,,,,,,,,,,,,,,,,,,,,,,,,,,,,,,,,,,,,,,1,5,11,5,1,ドキ,,,,,,,,,,,,,,,,,,,,,,,,,,
,,,,,,,,,R_3COVX1gMIUulXOc,2022-09-01_20h26.14.974,jpn_C02,2022.1.2,MacIntel,58.82352941,,,,,,,,,,,,,,,,,,,,,,,,,,,,,,,,,,,,,,,,,,,,,,,,,,,,,,,,,,,space,1.536,0,0,0,0,1,NounExposure.xlsx,"最初のトライアルでは、 画像が表示され、 その画像の下に単語が出てきます。 またこの単語の音も聞くことができます。 この音を大きな声で復唱してください。 そしてこの画像がどのような単語を示しているのか, 考えてみてください。 その後、 続きのボタンを押すと次の単語の学習が始まります。

スペースキーを押して、学習を始めましょう。",3,NounFCT.xlsx,ここから語彙のクイズが始まります。スクリーンに表示される単語に合う画像をキーボードの右と左の矢印キーを使って選択してください。,NounTest.xlsx,2,次に、これまで学習してきたことをアウトプットしていただきます。 表示される画像を描写していると思う単語を、テキストボックスにタイプしてください。,1,"ここまでが最初のトライアルです。ここで休憩をとっても構いません。

休憩が済みましたら、スペースキーを押して続きを始めましょう。",,,,,,,,
,,,,,,,,,R_3COVX1gMIUulXOc,2022-09-01_20h26.14.974,jpn_C02,2022.1.2,MacIntel,58.82352941,space,4.783,space,13.199,0,0,0,37,1,プミ　シド　ドキ,,,CartoonStims/artist_punch_boxer_r.jpg,audio/pumisidodoki.mp3,,,,,,,,,,,,,,,,,,,,,,,,,,,,,,,,,,,,,,,,,,,,,,,,,,,,,,,,,,,,,,,,,,,,,
,,,,,,,,,R_3COVX1gMIUulXOc,2022-09-01_20h26.14.974,jpn_C02,2022.1.2,MacIntel,58.82352941,,,space,9.586,0,1,1,16,1,トマ　ホレト　ピポ,,,CartoonStims/chef_point_doctor_r.jpg,audio/tomahoretopipo.mp3,,,,,,,,,,,,,,,,,,,,,,,,,,,,,,,,,,,,,,,,,,,,,,,,,,,,,,,,,,,,,,,,,,,,,
,,,,,,,,,R_3COVX1gMIUulXOc,2022-09-01_20h26.14.974,jpn_C02,2022.1.2,MacIntel,58.82352941,,,space,4.277,0,2,2,35,1,パツ　ドキ　ムク,,,CartoonStims/boxer_shoot_cowboy_r.jpg,audio/patsudokimuku.mp3,,,,,,,,,,,,,,,,,,,,,,,,,,,,,,,,,,,,,,,,,,,,,,,,,,,,,,,,,,,,,,,,,,,,,
,,,,,,,,,R_3COVX1gMIUulXOc,2022-09-01_20h26.14.974,jpn_C02,2022.1.2,MacIntel,58.82352941,,,space,4.842,0,3,3,1,1,セル 　シド 　ホレト,,,CartoonStims/artist_kick_chef_r.jpg,audio/serusidohoreto.mp3,,,,,,,,,,,,,,,,,,,,,,,,,,,,,,,,,,,,,,,,,,,,,,,,,,,,,,,,,,,,,,,,,,,,,
,,,,,,,,,R_3COVX1gMIUulXOc,2022-09-01_20h26.14.974,jpn_C02,2022.1.2,MacIntel,58.82352941,,,space,6.691,0,4,4,42,1,プミ　ムク　ルピン,,,CartoonStims/cowboy_punch_burglar_r.jpg,audio/pumimukulupin.mp3,,,,,,,,,,,,,,,,,,,,,,,,,,,,,,,,,,,,,,,,,,,,,,,,,,,,,,,,,,,,,,,,,,,,,
,,,,,,,,,R_3COVX1gMIUulXOc,2022-09-01_20h26.14.974,jpn_C02,2022.1.2,MacIntel,58.82352941,,,space,3.007,0,5,5,43,1,プミ　ムク　ホレト,,,CartoonStims/cowboy_punch_chef_r.jpg,audio/pumimukuhoreto.mp3,,,,,,,,,,,,,,,,,,,,,,,,,,,,,,,,,,,,,,,,,,,,,,,,,,,,,,,,,,,,,,,,,,,,,
,,,,,,,,,R_3COVX1gMIUulXOc,2022-09-01_20h26.14.974,jpn_C02,2022.1.2,MacIntel,58.82352941,,,space,3.527,0,6,6,44,1,プミ　ピポ　ホレト,,,CartoonStims/doctor_punch_chef_r.jpg,audio/pumipipohoreto.mp3,,,,,,,,,,,,,,,,,,,,,,,,,,,,,,,,,,,,,,,,,,,,,,,,,,,,,,,,,,,,,,,,,,,,,
,,,,,,,,,R_3COVX1gMIUulXOc,2022-09-01_20h26.14.974,jpn_C02,2022.1.2,MacIntel,58.82352941,,,space,2.183,0,7,7,8,1,セル　ピポ　ドキ,,,CartoonStims/doctor_kick_boxer_r.jpg,audio/serupipodoki.mp3,,,,,,,,,,,,,,,,,,,,,,,,,,,,,,,,,,,,,,,,,,,,,,,,,,,,,,,,,,,,,,,,,,,,,
,,,,,,,,,R_3COVX1gMIUulXOc,2022-09-01_20h26.14.974,jpn_C02,2022.1.2,MacIntel,58.82352941,,,space,2.257,0,8,8,7,1,セル　ムク　ドキ,,,CartoonStims/cowboy_kick_boxer_r.jpg,audio/serumukudoki.mp3,,,,,,,,,,,,,,,,,,,,,,,,,,,,,,,,,,,,,,,,,,,,,,,,,,,,,,,,,,,,,,,,,,,,,
,,,,,,,,,R_3COVX1gMIUulXOc,2022-09-01_20h26.14.974,jpn_C02,2022.1.2,MacIntel,58.82352941,,,space,2.675,0,9,9,39,1,プミ　ルピン　シド,,,CartoonStims/burglar_punch_artist_r.jpg,audio/pumilupinsido.mp3,,,,,,,,,,,,,,,,,,,,,,,,,,,,,,,,,,,,,,,,,,,,,,,,,,,,,,,,,,,,,,,,,,,,,
,,,,,,,,,R_3COVX1gMIUulXOc,2022-09-01_20h26.14.974,jpn_C02,2022.1.2,MacIntel,58.82352941,,,space,1.72,0,10,10,4,1,セル　ホレト　ムク,,,CartoonStims/chef_kick_cowboy_r.jpg,audio/seruhoretomuku.mp3,,,,,,,,,,,,,,,,,,,,,,,,,,,,,,,,,,,,,,,,,,,,,,,,,,,,,,,,,,,,,,,,,,,,,
,,,,,,,,,R_3COVX1gMIUulXOc,2022-09-01_20h26.14.974,jpn_C02,2022.1.2,MacIntel,58.82352941,,,space,1.707,0,11,11,27,1,パツ　ルピン　ドキ,,,CartoonStims/burglar_shoot_boxer_r.jpg,audio/patsulupindoki.mp3,,,,,,,,,,,,,,,,,,,,,,,,,,,,,,,,,,,,,,,,,,,,,,,,,,,,,,,,,,,,,,,,,,,,,
,,,,,,,,,R_3COVX1gMIUulXOc,2022-09-01_20h26.14.974,jpn_C02,2022.1.2,MacIntel,58.82352941,,,space,3.37,0,12,12,17,1,トマ　ホレト　ドキ,,,CartoonStims/chef_point_boxer_r.jpg,audio/tomahoretodoki.mp3,,,,,,,,,,,,,,,,,,,,,,,,,,,,,,,,,,,,,,,,,,,,,,,,,,,,,,,,,,,,,,,,,,,,,
,,,,,,,,,R_3COVX1gMIUulXOc,2022-09-01_20h26.14.974,jpn_C02,2022.1.2,MacIntel,58.82352941,,,space,0.936,0,13,13,15,1,トマ　ルピン　ピポ,,,CartoonStims/burglar_point_doctor_r.jpg,audio/tomalupinpipo.mp3,,,,,,,,,,,,,,,,,,,,,,,,,,,,,,,,,,,,,,,,,,,,,,,,,,,,,,,,,,,,,,,,,,,,,
,,,,,,,,,R_3COVX1gMIUulXOc,2022-09-01_20h26.14.974,jpn_C02,2022.1.2,MacIntel,58.82352941,,,space,1.189,0,14,14,40,1,プミ　ホレト　シド,,,CartoonStims/chef_punch_artist_r.jpg,audio/pumihoretosido.mp3,,,,,,,,,,,,,,,,,,,,,,,,,,,,,,,,,,,,,,,,,,,,,,,,,,,,,,,,,,,,,,,,,,,,,
,,,,,,,,,R_3COVX1gMIUulXOc,2022-09-01_20h26.14.974,jpn_C02,2022.1.2,MacIntel,58.82352941,,,space,0.338,0,15,15,11,1,セル　ドキ　ルピン,,,CartoonStims/boxer_kick_burglar_r.jpg,audio/serudokilupin.mp3,,,,,,,,,,,,,,,,,,,,,,,,,,,,,,,,,,,,,,,,,,,,,,,,,,,,,,,,,,,,,,,,,,,,,
,,,,,,,,,R_3COVX1gMIUulXOc,2022-09-01_20h26.14.974,jpn_C02,2022.1.2,MacIntel,58.82352941,,,space,0.466,0,16,16,10,1,セル　ドキ　シド,,,CartoonStims/boxer_kick_artist_r.jpg,audio/serudokisido.mp3,,,,,,,,,,,,,,,,,,,,,,,,,,,,,,,,,,,,,,,,,,,,,,,,,,,,,,,,,,,,,,,,,,,,,
,,,,,,,,,R_3COVX1gMIUulXOc,2022-09-01_20h26.14.974,jpn_C02,2022.1.2,MacIntel,58.82352941,,,space,1.271,0,17,17,29,1,パツ　ホレト　シド,,,CartoonStims/chef_shoot_artist_r.jpg,audio/patsuhoretosido.mp3,,,,,,,,,,,,,,,,,,,,,,,,,,,,,,,,,,,,,,,,,,,,,,,,,,,,,,,,,,,,,,,,,,,,,
,,,,,,,,,R_3COVX1gMIUulXOc,2022-09-01_20h26.14.974,jpn_C02,2022.1.2,MacIntel,58.82352941,,,space,0.519,0,18,18,2,1,セル 　ルピン 　ホレト,,,CartoonStims/burglar_kick_chef_r.jpg,audio/serulupinhoreto.mp3,,,,,,,,,,,,,,,,,,,,,,,,,,,,,,,,,,,,,,,,,,,,,,,,,,,,,,,,,,,,,,,,,,,,,
,,,,,,,,,R_3COVX1gMIUulXOc,2022-09-01_20h26.14.974,jpn_C02,2022.1.2,MacIntel,58.82352941,,,space,0.97,0,19,19,5,1,セル　ホレト　ピポ,,,CartoonStims/chef_kick_doctor_r.jpg,audio/seruhoretopipo.mp3,,,,,,,,,,,,,,,,,,,,,,,,,,,,,,,,,,,,,,,,,,,,,,,,,,,,,,,,,,,,,,,,,,,,,
,,,,,,,,,R_3COVX1gMIUulXOc,2022-09-01_20h26.14.974,jpn_C02,2022.1.2,MacIntel,58.82352941,,,space,1.22,0,20,20,45,1,プミ　ピポ　ムク,,,CartoonStims/doctor_punch_cowboy_r.jpg,audio/pumipipomuku.mp3,,,,,,,,,,,,,,,,,,,,,,,,,,,,,,,,,,,,,,,,,,,,,,,,,,,,,,,,,,,,,,,,,,,,,
,,,,,,,,,R_3COVX1gMIUulXOc,2022-09-01_20h26.14.974,jpn_C02,2022.1.2,MacIntel,58.82352941,,,space,1.767,0,21,21,6,1,セル　ムク　ピポ,,,CartoonStims/cowboy_kick_doctor_r.jpg,audio/serumukupipo.mp3,,,,,,,,,,,,,,,,,,,,,,,,,,,,,,,,,,,,,,,,,,,,,,,,,,,,,,,,,,,,,,,,,,,,,
,,,,,,,,,R_3COVX1gMIUulXOc,2022-09-01_20h26.14.974,jpn_C02,2022.1.2,MacIntel,58.82352941,,,space,0.908,0,22,22,24,1,パツ　シド　ムク,,,CartoonStims/artist_shoot_cowboy_r.jpg,audio/patsusidomuku.mp3,,,,,,,,,,,,,,,,,,,,,,,,,,,,,,,,,,,,,,,,,,,,,,,,,,,,,,,,,,,,,,,,,,,,,
,,,,,,,,,R_3COVX1gMIUulXOc,2022-09-01_20h26.14.974,jpn_C02,2022.1.2,MacIntel,58.82352941,,,space,0.61,0,23,23,33,1,パツ　ピポ　ホレト,,,CartoonStims/doctor_shoot_chef_r.jpg,audio/patsupipohoreto.mp3,,,,,,,,,,,,,,,,,,,,,,,,,,,,,,,,,,,,,,,,,,,,,,,,,,,,,,,,,,,,,,,,,,,,,
,,,,,,,,,R_3COVX1gMIUulXOc,2022-09-01_20h26.14.974,jpn_C02,2022.1.2,MacIntel,58.82352941,,,space,0.874,0,24,24,23,1,トマ　ドキ　ホレト,,,CartoonStims/boxer_point_chef_r.jpg,audio/tomadokihoreto.mp3,,,,,,,,,,,,,,,,,,,,,,,,,,,,,,,,,,,,,,,,,,,,,,,,,,,,,,,,,,,,,,,,,,,,,
,,,,,,,,,R_3COVX1gMIUulXOc,2022-09-01_20h26.14.974,jpn_C02,2022.1.2,MacIntel,58.82352941,,,space,0.822,0,25,25,22,1,トマ　ドキ　ルピン,,,CartoonStims/boxer_point_burglar_r.jpg,audio/tomadokilupin.mp3,,,,,,,,,,,,,,,,,,,,,,,,,,,,,,,,,,,,,,,,,,,,,,,,,,,,,,,,,,,,,,,,,,,,,
,,,,,,,,,R_3COVX1gMIUulXOc,2022-09-01_20h26.14.974,jpn_C02,2022.1.2,MacIntel,58.82352941,,,space,0.594,0,26,26,3,1,セル　ルピン　ムク,,,CartoonStims/burglar_kick_cowboy_r.jpg,audio/serulupinmuku.mp3,,,,,,,,,,,,,,,,,,,,,,,,,,,,,,,,,,,,,,,,,,,,,,,,,,,,,,,,,,,,,,,,,,,,,
,,,,,,,,,R_3COVX1gMIUulXOc,2022-09-01_20h26.14.974,jpn_C02,2022.1.2,MacIntel,58.82352941,,,space,1.492,0,27,27,0,1,セル　シド　ルピン,,,CartoonStims/artist_kick_burglar_r.jpg,audio/serusidolupin.mp3,,,,,,,,,,,,,,,,,,,,,,,,,,,,,,,,,,,,,,,,,,,,,,,,,,,,,,,,,,,,,,,,,,,,,
,,,,,,,,,R_3COVX1gMIUulXOc,2022-09-01_20h26.14.974,jpn_C02,2022.1.2,MacIntel,58.82352941,,,space,3.652,0,28,28,18,1,トマ　ムク　ドキ,,,CartoonStims/cowboy_point_boxer_r.jpg,audio/tomamukudoki.mp3,,,,,,,,,,,,,,,,,,,,,,,,,,,,,,,,,,,,,,,,,,,,,,,,,,,,,,,,,,,,,,,,,,,,,
,,,,,,,,,R_3COVX1gMIUulXOc,2022-09-01_20h26.14.974,jpn_C02,2022.1.2,MacIntel,58.82352941,,,space,1.883,0,29,29,30,1,パツ　ムク　シド,,,CartoonStims/cowboy_shoot_artist_r.jpg,audio/patsumukusido.mp3,,,,,,,,,,,,,,,,,,,,,,,,,,,,,,,,,,,,,,,,,,,,,,,,,,,,,,,,,,,,,,,,,,,,,
,,,,,,,,,R_3COVX1gMIUulXOc,2022-09-01_20h26.14.974,jpn_C02,2022.1.2,MacIntel,58.82352941,,,space,2.528,0,30,30,41,1,プミ　ホレト　ルピン,,,CartoonStims/chef_punch_burglar_r.jpg,audio/pumihoretolupin.mp3,,,,,,,,,,,,,,,,,,,,,,,,,,,,,,,,,,,,,,,,,,,,,,,,,,,,,,,,,,,,,,,,,,,,,
,,,,,,,,,R_3COVX1gMIUulXOc,2022-09-01_20h26.14.974,jpn_C02,2022.1.2,MacIntel,58.82352941,,,space,2.393,0,31,31,26,1,パツ　ルピン　ピポ,,,CartoonStims/burglar_shoot_doctor_r.jpg,audio/patsulupinpipo.mp3,,,,,,,,,,,,,,,,,,,,,,,,,,,,,,,,,,,,,,,,,,,,,,,,,,,,,,,,,,,,,,,,,,,,,
,,,,,,,,,R_3COVX1gMIUulXOc,2022-09-01_20h26.14.974,jpn_C02,2022.1.2,MacIntel,58.82352941,,,space,4.27,0,32,32,32,1,パツ　ピポ　ルピン,,,CartoonStims/doctor_shoot_burglar_r.jpg,audio/patsupipolupin.mp3,,,,,,,,,,,,,,,,,,,,,,,,,,,,,,,,,,,,,,,,,,,,,,,,,,,,,,,,,,,,,,,,,,,,,
,,,,,,,,,R_3COVX1gMIUulXOc,2022-09-01_20h26.14.974,jpn_C02,2022.1.2,MacIntel,58.82352941,,,space,2.568,0,33,33,12,1,トマ　シド　ホレト,,,CartoonStims/artist_point_chef_r.jpg,audio/tomasidohoreto.mp3,,,,,,,,,,,,,,,,,,,,,,,,,,,,,,,,,,,,,,,,,,,,,,,,,,,,,,,,,,,,,,,,,,,,,
,,,,,,,,,R_3COVX1gMIUulXOc,2022-09-01_20h26.14.974,jpn_C02,2022.1.2,MacIntel,58.82352941,,,space,2.816,0,34,34,28,1,パツ　ホレト　ドキ,,,CartoonStims/chef_shoot_boxer_r.jpg,audio/patsuhoretodoki.mp3,,,,,,,,,,,,,,,,,,,,,,,,,,,,,,,,,,,,,,,,,,,,,,,,,,,,,,,,,,,,,,,,,,,,,
,,,,,,,,,R_3COVX1gMIUulXOc,2022-09-01_20h26.14.974,jpn_C02,2022.1.2,MacIntel,58.82352941,,,space,2.219,0,35,35,13,1,トマ　シド　ムク,,,CartoonStims/artist_point_cowboy_r.jpg,audio/tomasidomuku.mp3,,,,,,,,,,,,,,,,,,,,,,,,,,,,,,,,,,,,,,,,,,,,,,,,,,,,,,,,,,,,,,,,,,,,,
,,,,,,,,,R_3COVX1gMIUulXOc,2022-09-01_20h26.14.974,jpn_C02,2022.1.2,MacIntel,58.82352941,,,space,2.825,0,36,36,47,1,プミ　ドキ　ピポ,,,CartoonStims/boxer_punch_doctor_r.jpg,audio/pumidokipipo.mp3,,,,,,,,,,,,,,,,,,,,,,,,,,,,,,,,,,,,,,,,,,,,,,,,,,,,,,,,,,,,,,,,,,,,,
,,,,,,,,,R_3COVX1gMIUulXOc,2022-09-01_20h26.14.974,jpn_C02,2022.1.2,MacIntel,58.82352941,,,space,2.282,0,37,37,25,1,パツ　シド　ピポ,,,CartoonStims/artist_shoot_doctor_r.jpg,audio/patsusidopipo.mp3,,,,,,,,,,,,,,,,,,,,,,,,,,,,,,,,,,,,,,,,,,,,,,,,,,,,,,,,,,,,,,,,,,,,,
,,,,,,,,,R_3COVX1gMIUulXOc,2022-09-01_20h26.14.974,jpn_C02,2022.1.2,MacIntel,58.82352941,,,space,2.623,0,38,38,20,1,トマ　ピポ　シド,,,CartoonStims/doctor_point_artist_r.jpg,audio/tomapiposido.mp3,,,,,,,,,,,,,,,,,,,,,,,,,,,,,,,,,,,,,,,,,,,,,,,,,,,,,,,,,,,,,,,,,,,,,
,,,,,,,,,R_3COVX1gMIUulXOc,2022-09-01_20h26.14.974,jpn_C02,2022.1.2,MacIntel,58.82352941,,,space,3.758,0,39,39,36,1,プミ　シド　ピポ,,,CartoonStims/artist_punch_doctor_r.jpg,audio/pumisidopipo.mp3,,,,,,,,,,,,,,,,,,,,,,,,,,,,,,,,,,,,,,,,,,,,,,,,,,,,,,,,,,,,,,,,,,,,,
,,,,,,,,,R_3COVX1gMIUulXOc,2022-09-01_20h26.14.974,jpn_C02,2022.1.2,MacIntel,58.82352941,,,space,3.302,0,40,40,9,1,セル　ピポ　シド,,,CartoonStims/doctor_kick_artist_r.jpg,audio/serupiposido.mp3,,,,,,,,,,,,,,,,,,,,,,,,,,,,,,,,,,,,,,,,,,,,,,,,,,,,,,,,,,,,,,,,,,,,,
,,,,,,,,,R_3COVX1gMIUulXOc,2022-09-01_20h26.14.974,jpn_C02,2022.1.2,MacIntel,58.82352941,,,space,3.271,0,41,41,31,1,パツ　ムク　ルピン,,,CartoonStims/cowboy_shoot_burglar_r.jpg,audio/patsumukulupin.mp3,,,,,,,,,,,,,,,,,,,,,,,,,,,,,,,,,,,,,,,,,,,,,,,,,,,,,,,,,,,,,,,,,,,,,
,,,,,,,,,R_3COVX1gMIUulXOc,2022-09-01_20h26.14.974,jpn_C02,2022.1.2,MacIntel,58.82352941,,,space,3.457,0,42,42,34,1,パツ　ドキ　ホレト,,,CartoonStims/boxer_shoot_chef_r.jpg,audio/patsudokihoreto.mp3,,,,,,,,,,,,,,,,,,,,,,,,,,,,,,,,,,,,,,,,,,,,,,,,,,,,,,,,,,,,,,,,,,,,,
,,,,,,,,,R_3COVX1gMIUulXOc,2022-09-01_20h26.14.974,jpn_C02,2022.1.2,MacIntel,58.82352941,,,space,5.473,0,43,43,46,1,プミ　ドキ　ムク,,,CartoonStims/boxer_punch_cowboy_r.jpg,audio/pumidokimuku.mp3,,,,,,,,,,,,,,,,,,,,,,,,,,,,,,,,,,,,,,,,,,,,,,,,,,,,,,,,,,,,,,,,,,,,,
,,,,,,,,,R_3COVX1gMIUulXOc,2022-09-01_20h26.14.974,jpn_C02,2022.1.2,MacIntel,58.82352941,,,space,2.953,0,44,44,21,1,トマ　ピポ　ルピン,,,CartoonStims/doctor_point_burglar_r.jpg,audio/tomapipolupin.mp3,,,,,,,,,,,,,,,,,,,,,,,,,,,,,,,,,,,,,,,,,,,,,,,,,,,,,,,,,,,,,,,,,,,,,
,,,,,,,,,R_3COVX1gMIUulXOc,2022-09-01_20h26.14.974,jpn_C02,2022.1.2,MacIntel,58.82352941,,,space,2.373,0,45,45,19,1,トマ　ムク　シド,,,CartoonStims/cowboy_point_artist_r.jpg,audio/tomamukusido.mp3,,,,,,,,,,,,,,,,,,,,,,,,,,,,,,,,,,,,,,,,,,,,,,,,,,,,,,,,,,,,,,,,,,,,,
,,,,,,,,,R_3COVX1gMIUulXOc,2022-09-01_20h26.14.974,jpn_C02,2022.1.2,MacIntel,58.82352941,,,space,2.849,0,46,46,14,1,トマ　ルピン　ムク,,,CartoonStims/burglar_point_cowboy_r.jpg,audio/tomalupinmuku.mp3,,,,,,,,,,,,,,,,,,,,,,,,,,,,,,,,,,,,,,,,,,,,,,,,,,,,,,,,,,,,,,,,,,,,,
,,,,,,,,,R_3COVX1gMIUulXOc,2022-09-01_20h26.14.974,jpn_C02,2022.1.2,MacIntel,58.82352941,,,space,1.858,0,47,47,38,1,プミ　ルピン　ドキ,,,CartoonStims/burglar_punch_boxer_r.jpg,audio/pumilupindoki.mp3,,,,,,,,,,,,,,,,,,,,,,,,,,,,,,,,,,,,,,,,,,,,,,,,,,,,,,,,,,,,,,,,,,,,,
,,,,,,,,,R_3COVX1gMIUulXOc,2022-09-01_20h26.14.974,jpn_C02,2022.1.2,MacIntel,58.82352941,,,,,,,,,,,,,,,space,1.257,right,1,6.498,0,0,0,0,1,,,,,,,,,,,,,,,,,,,,,,,,,,,,,,,,,,,,,,,,,,,,,,,,,,,,,,,,,,,
,,,,,,,,,R_3COVX1gMIUulXOc,2022-09-01_20h26.14.974,jpn_C02,2022.1.2,MacIntel,58.82352941,,,,,,,,,,,,,,,,,,,,,,,,,0,0,0,3,1,CartoonStims/cowboy_punch_doctor_r.jpg,プミ　ムク　ドキ,CartoonStims/cowboy_punch_boxer_r.jpg,right,CartoonStims/cowboy_punch_boxer_r.jpg,audio/pumimukudoki.mp3,残念！ こちらが正しい画像です。,,,,,,,,,,,,,,,,,,,,,,,,,,,,,,,,,,,,,,,,,,,,,,,
,,,,,,,,,R_3COVX1gMIUulXOc,2022-09-01_20h26.14.974,jpn_C02,2022.1.2,MacIntel,58.82352941,,,,,,,,,,,,,,,,,right,1,4.652,0,0,0,0,1,,,,,,,,,,,,,,,,,,,,,,,,,,,,,,,,,,,,,,,,,,,,,,,,,,,,,,,,,,,
,,,,,,,,,R_3COVX1gMIUulXOc,2022-09-01_20h26.14.974,jpn_C02,2022.1.2,MacIntel,58.82352941,,,,,,,,,,,,,,,,,,,,,,,,,0,1,1,1,1,CartoonStims/chef_point_burglar_r.jpg,トマ　ホレト　シド,CartoonStims/chef_point_artist_r.jpg,right,CartoonStims/chef_point_artist_r.jpg,audio/tomahoretosido.mp3,残念！ こちらが正しい画像です。,,,,,,,,,,,,,,,,,,,,,,,,,,,,,,,,,,,,,,,,,,,,,,,
,,,,,,,,,R_3COVX1gMIUulXOc,2022-09-01_20h26.14.974,jpn_C02,2022.1.2,MacIntel,58.82352941,,,,,,,,,,,,,,,,,left,1,3.741,,,,,,,,,,,,,,,,,,0,0,0,0,1,,,,,,,,,,,,,,,,,,,,,,,,,,,,,,,,,,,,,,,,,,
,,,,,,,,,R_3COVX1gMIUulXOc,2022-09-01_20h26.14.974,jpn_C02,2022.1.2,MacIntel,58.82352941,,,,,,,,,,,,,,,,,,,,,,,,,0,2,2,8,1,CartoonStims/doctor_point_cowboy_r.jpg,トマ　ピポ　ムク,CartoonStims/boxer_point_cowboy_r.jpg,left,CartoonStims/doctor_point_cowboy_r.jpg,audio/tomapipomuku.mp3,残念！ こちらが正しい画像です。,,,,,,,,,,,,,,,,,,,,,,,,,,,,,,,,,,,,,,,,,,,,,,,
,,,,,,,,,R_3COVX1gMIUulXOc,2022-09-01_20h26.14.974,jpn_C02,2022.1.2,MacIntel,58.82352941,,,,,,,,,,,,,,,,,right,1,4.152,0,0,0,0,1,,,,,,,,,,,,,,,,,,,,,,,,,,,,,,,,,,,,,,,,,,,,,,,,,,,,,,,,,,,
,,,,,,,,,R_3COVX1gMIUulXOc,2022-09-01_20h26.14.974,jpn_C02,2022.1.2,MacIntel,58.82352941,,,,,,,,,,,,,,,,,,,,,,,,,0,3,3,11,1,CartoonStims/burglar_punch_cowboy_r.jpg,プミ　ホレト　ムク,CartoonStims/chef_punch_cowboy_r.jpg,right,CartoonStims/chef_punch_cowboy_r.jpg,audio/pumihoretomuku.mp3,残念！ こちらが正しい画像です。,,,,,,,,,,,,,,,,,,,,,,,,,,,,,,,,,,,,,,,,,,,,,,,
,,,,,,,,,R_3COVX1gMIUulXOc,2022-09-01_20h26.14.974,jpn_C02,2022.1.2,MacIntel,58.82352941,,,,,,,,,,,,,,,,,right,1,1.355,0,0,0,0,1,,,,,,,,,,,,,,,,,,,,,,,,,,,,,,,,,,,,,,,,,,,,,,,,,,,,,,,,,,,
,,,,,,,,,R_3COVX1gMIUulXOc,2022-09-01_20h26.14.974,jpn_C02,2022.1.2,MacIntel,58.82352941,,,,,,,,,,,,,,,,,,,,,,,,,0,4,4,7,1,CartoonStims/artist_punch_cowboy_r.jpg,セル　シド　ムク,CartoonStims/artist_kick_cowboy_r.jpg,right,CartoonStims/artist_kick_cowboy_r.jpg,audio/serusidomuku.mp3,残念！ こちらが正しい画像です。,,,,,,,,,,,,,,,,,,,,,,,,,,,,,,,,,,,,,,,,,,,,,,,
,,,,,,,,,R_3COVX1gMIUulXOc,2022-09-01_20h26.14.974,jpn_C02,2022.1.2,MacIntel,58.82352941,,,,,,,,,,,,,,,,,left,1,0.992,,,,,,,,,,,,,,,,,,0,0,0,0,1,,,,,,,,,,,,,,,,,,,,,,,,,,,,,,,,,,,,,,,,,,
,,,,,,,,,R_3COVX1gMIUulXOc,2022-09-01_20h26.14.974,jpn_C02,2022.1.2,MacIntel,58.82352941,,,,,,,,,,,,,,,,,,,,,,,,,0,5,5,4,1,CartoonStims/burglar_point_boxer_r.jpg,トマ　ルピン　ドキ,CartoonStims/burglar_kick_boxer_r.jpg,left,CartoonStims/burglar_point_boxer_r.jpg,audio/tomalupindoki.mp3,残念！ こちらが正しい画像です。,,,,,,,,,,,,,,,,,,,,,,,,,,,,,,,,,,,,,,,,,,,,,,,
,,,,,,,,,R_3COVX1gMIUulXOc,2022-09-01_20h26.14.974,jpn_C02,2022.1.2,MacIntel,58.82352941,,,,,,,,,,,,,,,,,left,1,1.741,,,,,,,,,,,,,,,,,,0,0,0,0,1,,,,,,,,,,,,,,,,,,,,,,,,,,,,,,,,,,,,,,,,,,
,,,,,,,,,R_3COVX1gMIUulXOc,2022-09-01_20h26.14.974,jpn_C02,2022.1.2,MacIntel,58.82352941,,,,,,,,,,,,,,,,,,,,,,,,,0,6,6,6,1,CartoonStims/doctor_punch_boxer_r.jpg,プミ　ピポ　ドキ,CartoonStims/doctor_shoot_boxer_r.jpg,left,CartoonStims/doctor_punch_boxer_r.jpg,audio/pumipipodoki.mp3,残念！ こちらが正しい画像です。,,,,,,,,,,,,,,,,,,,,,,,,,,,,,,,,,,,,,,,,,,,,,,,
,,,,,,,,,R_3COVX1gMIUulXOc,2022-09-01_20h26.14.974,jpn_C02,2022.1.2,MacIntel,58.82352941,,,,,,,,,,,,,,,,,right,1,0.6,0,0,0,0,1,,,,,,,,,,,,,,,,,,,,,,,,,,,,,,,,,,,,,,,,,,,,,,,,,,,,,,,,,,,
,,,,,,,,,R_3COVX1gMIUulXOc,2022-09-01_20h26.14.974,jpn_C02,2022.1.2,MacIntel,58.82352941,,,,,,,,,,,,,,,,,,,,,,,,,0,7,7,5,1,CartoonStims/cowboy_point_chef_r.jpg,パツ　ムク　ホレト,CartoonStims/cowboy_shoot_chef_r.jpg,right,CartoonStims/cowboy_shoot_chef_r.jpg,audio/patsumukuhoreto.mp3,残念！ こちらが正しい画像です。,,,,,,,,,,,,,,,,,,,,,,,,,,,,,,,,,,,,,,,,,,,,,,,
,,,,,,,,,R_3COVX1gMIUulXOc,2022-09-01_20h26.14.974,jpn_C02,2022.1.2,MacIntel,58.82352941,,,,,,,,,,,,,,,,,left,1,4,,,,,,,,,,,,,,,,,,0,0,0,0,1,,,,,,,,,,,,,,,,,,,,,,,,,,,,,,,,,,,,,,,,,,
,,,,,,,,,R_3COVX1gMIUulXOc,2022-09-01_20h26.14.974,jpn_C02,2022.1.2,MacIntel,58.82352941,,,,,,,,,,,,,,,,,,,,,,,,,0,8,8,2,1,CartoonStims/boxer_shoot_doctor_r.jpg,パツ　ドキ　ピポ,CartoonStims/boxer_shoot_artist_r.jpg,left,CartoonStims/boxer_shoot_doctor_r.jpg,audio/patsudokipipo.mp3,残念！ こちらが正しい画像です。,,,,,,,,,,,,,,,,,,,,,,,,,,,,,,,,,,,,,,,,,,,,,,,
,,,,,,,,,R_3COVX1gMIUulXOc,2022-09-01_20h26.14.974,jpn_C02,2022.1.2,MacIntel,58.82352941,,,,,,,,,,,,,,,,,left,1,3.669,,,,,,,,,,,,,,,,,,0,0,0,0,1,,,,,,,,,,,,,,,,,,,,,,,,,,,,,,,,,,,,,,,,,,
,,,,,,,,,R_3COVX1gMIUulXOc,2022-09-01_20h26.14.974,jpn_C02,2022.1.2,MacIntel,58.82352941,,,,,,,,,,,,,,,,,,,,,,,,,0,9,9,10,1,CartoonStims/artist_shoot_burglar_r.jpg,パツ　シド　ルピン,CartoonStims/chef_shoot_burglar_r.jpg,left,CartoonStims/artist_shoot_burglar_r.jpg,audio/patsusidolupin.mp3,残念！ こちらが正しい画像です。,,,,,,,,,,,,,,,,,,,,,,,,,,,,,,,,,,,,,,,,,,,,,,,
,,,,,,,,,R_3COVX1gMIUulXOc,2022-09-01_20h26.14.974,jpn_C02,2022.1.2,MacIntel,58.82352941,,,,,,,,,,,,,,,,,left,1,2.752,,,,,,,,,,,,,,,,,,0,0,0,0,1,,,,,,,,,,,,,,,,,,,,,,,,,,,,,,,,,,,,,,,,,,
,,,,,,,,,R_3COVX1gMIUulXOc,2022-09-01_20h26.14.974,jpn_C02,2022.1.2,MacIntel,58.82352941,,,,,,,,,,,,,,,,,,,,,,,,,0,10,10,0,1,CartoonStims/doctor_kick_burglar_r.jpg,セル　ピポ　ルピン,CartoonStims/doctor_kick_chef_r.jpg,left,CartoonStims/doctor_kick_burglar_r.jpg,audio/serupipolupin.mp3,残念！ こちらが正しい画像です。,,,,,,,,,,,,,,,,,,,,,,,,,,,,,,,,,,,,,,,,,,,,,,,
,,,,,,,,,R_3COVX1gMIUulXOc,2022-09-01_20h26.14.974,jpn_C02,2022.1.2,MacIntel,58.82352941,,,,,,,,,,,,,,,,,right,1,2.036,0,0,0,0,1,,,,,,,,,,,,,,,,,,,,,,,,,,,,,,,,,,,,,,,,,,,,,,,,,,,,,,,,,,,
,,,,,,,,,R_3COVX1gMIUulXOc,2022-09-01_20h26.14.974,jpn_C02,2022.1.2,MacIntel,58.82352941,,,,,,,,,,,,,,,,,,,,,,,,,0,11,11,9,1,CartoonStims/chef_kick_artist_r.jpg,セル　ムク　シド,CartoonStims/cowboy_kick_artist_r.jpg,right,CartoonStims/cowboy_kick_artist_r.jpg,audio/serumukusido.mp3,残念！ こちらが正しい画像です。,,,,,,,,,,,,,,,,,,,,,,,,,,,,,,,,,,,,,,,,,,,,,,,
,,,,,,,,,R_3COVX1gMIUulXOc,2022-09-01_20h26.14.974,jpn_C02,2022.1.2,MacIntel,58.82352941,,,,,,,,,,,,,,,,,,,,,,,,,,,,,,,,,,,,,,,,,,space,5.081,パツ　ルピン　ホレト,right,17.334,0,0,0,0,1,,,,,,,,,,,,,,,,,,,,,,,,,,,,,,,,
,,,,,,,,,R_3COVX1gMIUulXOc,2022-09-01_20h26.14.974,jpn_C02,2022.1.2,MacIntel,58.82352941,,,,,,,,,,,,,CartoonStims/burglar_shoot_chef_r.jpg,audio/patsulupinhoreto.mp3,,,,,,,,,,,,,,,,,,,,,,,,,,,,,,,,,,,,,,0,0,0,6,1,パツ　ルピン　ホレト,,,,,,,,,,,,,,,,,,,,,,,,,,
,,,,,,,,,R_3COVX1gMIUulXOc,2022-09-01_20h26.14.974,jpn_C02,2022.1.2,MacIntel,58.82352941,,,,,,,,,,,,,,,,,,,,,,,,,,,,,,,,,,,,,,,,,,,,プミ　シド　ルピン,right,25.805,0,0,0,0,1,,,,,,,,,,,,,,,,,,,,,,,,,,,,,,,,
,,,,,,,,,R_3COVX1gMIUulXOc,2022-09-01_20h26.14.974,jpn_C02,2022.1.2,MacIntel,58.82352941,,,,,,,,,,,,,CartoonStims/artist_punch_burglar_r.jpg,audio/pumisidolupin.mp3,,,,,,,,,,,,,,,,,,,,,,,,,,,,,,,,,,,,,,0,1,1,9,1,プミ　シド　ルピン,,,,,,,,,,,,,,,,,,,,,,,,,,
,,,,,,,,,R_3COVX1gMIUulXOc,2022-09-01_20h26.14.974,jpn_C02,2022.1.2,MacIntel,58.82352941,,,,,,,,,,,,,,,,,,,,,,,,,,,,,,,,,,,,,,,,,,,,トマ　ホレト　ルピン,right,11.019,0,0,0,0,1,,,,,,,,,,,,,,,,,,,,,,,,,,,,,,,,
,,,,,,,,,R_3COVX1gMIUulXOc,2022-09-01_20h26.14.974,jpn_C02,2022.1.2,MacIntel,58.82352941,,,,,,,,,,,,,CartoonStims/chef_point_burglar_r.jpg,audio/tomahoretolupin.mp3,,,,,,,,,,,,,,,,,,,,,,,,,,,,,,,,,,,,,,0,2,2,5,1,トマ　ホレト　ルピン,,,,,,,,,,,,,,,,,,,,,,,,,,
,,,,,,,,,R_3COVX1gMIUulXOc,2022-09-01_20h26.14.974,jpn_C02,2022.1.2,MacIntel,58.82352941,,,,,,,,,,,,,,,,,,,,,,,,,,,,,,,,,,,,,,,,,,,,セル　ピポ　ホレト,right,8.292,0,0,0,0,1,,,,,,,,,,,,,,,,,,,,,,,,,,,,,,,,
,,,,,,,,,R_3COVX1gMIUulXOc,2022-09-01_20h26.14.974,jpn_C02,2022.1.2,MacIntel,58.82352941,,,,,,,,,,,,,CartoonStims/doctor_kick_chef_r.jpg,audio/serupipohoreto.mp3,,,,,,,,,,,,,,,,,,,,,,,,,,,,,,,,,,,,,,0,3,3,1,1,セル　ピポ　ホレト,,,,,,,,,,,,,,,,,,,,,,,,,,
,,,,,,,,,R_3COVX1gMIUulXOc,2022-09-01_20h26.14.974,jpn_C02,2022.1.2,MacIntel,58.82352941,,,,,,,,,,,,,,,,,,,,,,,,,,,,,,,,,,,,,,,,,,,,プミ　ピポ　ドキ,right,15.49,0,0,0,0,1,,,,,,,,,,,,,,,,,,,,,,,,,,,,,,,,
,,,,,,,,,R_3COVX1gMIUulXOc,2022-09-01_20h26.14.974,jpn_C02,2022.1.2,MacIntel,58.82352941,,,,,,,,,,,,,CartoonStims/doctor_punch_boxer_r.jpg,audio/pumipipodoki.mp3,,,,,,,,,,,,,,,,,,,,,,,,,,,,,,,,,,,,,,0,4,4,10,1,プミ　ピポ　ドキ,,,,,,,,,,,,,,,,,,,,,,,,,,
,,,,,,,,,R_3COVX1gMIUulXOc,2022-09-01_20h26.14.974,jpn_C02,2022.1.2,MacIntel,58.82352941,,,,,,,,,,,,,,,,,,,,,,,,,,,,,,,,,,,,,,,,,,,,セル　ドキ　ムク,right,23.136,0,0,0,0,1,,,,,,,,,,,,,,,,,,,,,,,,,,,,,,,,
,,,,,,,,,R_3COVX1gMIUulXOc,2022-09-01_20h26.14.974,jpn_C02,2022.1.2,MacIntel,58.82352941,,,,,,,,,,,,,CartoonStims/boxer_kick_cowboy_r.jpg,audio/serudokimuku.mp3,,,,,,,,,,,,,,,,,,,,,,,,,,,,,,,,,,,,,,0,5,5,2,1,セル　ドキ　ムク,,,,,,,,,,,,,,,,,,,,,,,,,,
,,,,,,,,,R_3COVX1gMIUulXOc,2022-09-01_20h26.14.974,jpn_C02,2022.1.2,MacIntel,58.82352941,,,,,,,,,,,,,,,,,,,,,,,,,,,,,,,,,,,,,,,,,,,,セル　ムク　ルピン,right,6.218,0,0,0,0,1,,,,,,,,,,,,,,,,,,,,,,,,,,,,,,,,
,,,,,,,,,R_3COVX1gMIUulXOc,2022-09-01_20h26.14.974,jpn_C02,2022.1.2,MacIntel,58.82352941,,,,,,,,,,,,,CartoonStims/cowboy_kick_burglar_r.jpg,audio/serumukulupin.mp3,,,,,,,,,,,,,,,,,,,,,,,,,,,,,,,,,,,,,,0,6,6,0,1,セル　ムク　ルピン,,,,,,,,,,,,,,,,,,,,,,,,,,
,,,,,,,,,R_3COVX1gMIUulXOc,2022-09-01_20h26.14.974,jpn_C02,2022.1.2,MacIntel,58.82352941,,,,,,,,,,,,,,,,,,,,,,,,,,,,,,,,,,,,,,,,,,,,パツ　ムク　ピポ,right,5.173,0,0,0,0,1,,,,,,,,,,,,,,,,,,,,,,,,,,,,,,,,
,,,,,,,,,R_3COVX1gMIUulXOc,2022-09-01_20h26.14.974,jpn_C02,2022.1.2,MacIntel,58.82352941,,,,,,,,,,,,,CartoonStims/cowboy_shoot_doctor_r.jpg,audio/patsumukupipo.mp3,,,,,,,,,,,,,,,,,,,,,,,,,,,,,,,,,,,,,,0,7,7,8,1,パツ　ムク　ピポ,,,,,,,,,,,,,,,,,,,,,,,,,,
,,,,,,,,,R_3COVX1gMIUulXOc,2022-09-01_20h26.14.974,jpn_C02,2022.1.2,MacIntel,58.82352941,,,,,,,,,,,,,,,,,,,,,,,,,,,,,,,,,,,,,,,,,,,,トマ　シド　ドキ,right,8.07,0,0,0,0,1,,,,,,,,,,,,,,,,,,,,,,,,,,,,,,,,
,,,,,,,,,R_3COVX1gMIUulXOc,2022-09-01_20h26.14.974,jpn_C02,2022.1.2,MacIntel,58.82352941,,,,,,,,,,,,,CartoonStims/artist_point_boxer_r.jpg,audio/tomasidodoki.mp3,,,,,,,,,,,,,,,,,,,,,,,,,,,,,,,,,,,,,,0,8,8,3,1,トマ　シド　ドキ,,,,,,,,,,,,,,,,,,,,,,,,,,
,,,,,,,,,R_3COVX1gMIUulXOc,2022-09-01_20h26.14.974,jpn_C02,2022.1.2,MacIntel,58.82352941,,,,,,,,,,,,,,,,,,,,,,,,,,,,,,,,,,,,,,,,,,,,トマ　ルピン　シド,right,6.088,0,0,0,0,1,,,,,,,,,,,,,,,,,,,,,,,,,,,,,,,,
,,,,,,,,,R_3COVX1gMIUulXOc,2022-09-01_20h26.14.974,jpn_C02,2022.1.2,MacIntel,58.82352941,,,,,,,,,,,,,CartoonStims/burglar_point_artist_r.jpg,audio/tomalupinsido.mp3,,,,,,,,,,,,,,,,,,,,,,,,,,,,,,,,,,,,,,0,9,9,4,1,トマ　ルピン　シド,,,,,,,,,,,,,,,,,,,,,,,,,,
,,,,,,,,,R_3COVX1gMIUulXOc,2022-09-01_20h26.14.974,jpn_C02,2022.1.2,MacIntel,58.82352941,,,,,,,,,,,,,,,,,,,,,,,,,,,,,,,,,,,,,,,,,,,,プミ　ドキ　シド,right,9.135,0,0,0,0,1,,,,,,,,,,,,,,,,,,,,,,,,,,,,,,,,
,,,,,,,,,R_3COVX1gMIUulXOc,2022-09-01_20h26.14.974,jpn_C02,2022.1.2,MacIntel,58.82352941,,,,,,,,,,,,,CartoonStims/boxer_punch_artist_r.jpg,audio/pumidokisido.mp3,,,,,,,,,,,,,,,,,,,,,,,,,,,,,,,,,,,,,,0,10,10,11,1,プミ　ドキ　シド,,,,,,,,,,,,,,,,,,,,,,,,,,
,,,,,,,,,R_3COVX1gMIUulXOc,2022-09-01_20h26.14.974,jpn_C02,2022.1.2,MacIntel,58.82352941,,,,,,,,,,,,,,,,,,,,,,,,,,,,,,,,,,,,,,,,,,,,パツ　ホレト　ムク,right,7.871,0,0,0,0,1,,,,,,,,,,,,,,,,,,,,,,,,,,,,,,,,
,,,,,,,,,R_3COVX1gMIUulXOc,2022-09-01_20h26.14.974,jpn_C02,2022.1.2,MacIntel,58.82352941,,,,,,,,,,,,,CartoonStims/chef_shoot_cowboy_r.jpg,audio/patsuhoretomuku.mp3,,,,,,,,,,,,,,,,,,,,,,,,,,,,,,,,,,,,,,0,11,11,7,1,パツ　ホレト　ムク,,,,,,,,,,,,,,,,,,,,,,,,,,
,,,,,,,,,R_3COVX1gMIUulXOc,2022-09-01_20h26.14.974,jpn_C02,2022.1.2,MacIntel,58.82352941,,,,,,,,,,,,,,,,,,,,,,,,,,,,,,,,,,,,,,,,,,,,,,,,,,,,,,,,,,,space,0.207,0,1,1,1,1,AffExposure.xlsx,"第二のトライアルの学習では、この言語で書かれた文を見ていただきます。引き続き注意して、 聞こえた音を復唱してください。


スペースキーを押してください。",1,AffFCT.xlsx,ここからクイズが始まります。 スクリーンに表示されるテキストに合う画像を選んでください。,AffTest.xlsx,1,次にここまで学んだことをアウトプットしていただきます。 表示される画像を描写していると思う単語を、テキストボックスにタイプしてください。 答えを提出したあとに正しい正解が少しの間画面に写ります。,1,"これで第二のトライアルが終了しました。 ここで休憩をとっていただいても構いません。

休憩が終わりましたら、 スペースキーを押して続きの学習を行いましょう。",,,,,,,,
,,,,,,,,,R_3COVX1gMIUulXOc,2022-09-01_20h26.14.974,jpn_C02,2022.1.2,MacIntel,58.82352941,space,1.343,space,5.337,0,0,0,20,1,ピク　トマ　ピポ　シド,,,CartoonStims/doctor_point_artist_r_no.jpg,audio/pikutomapiposido.mp3,,,,,,,,,,,,,,,,,,,,,,,,,,,,,,,,,,,,,,,,,,,,,,,,,,,,,,,,,,,,,,,,,,,,,
,,,,,,,,,R_3COVX1gMIUulXOc,2022-09-01_20h26.14.974,jpn_C02,2022.1.2,MacIntel,58.82352941,,,space,8.995,0,1,1,47,1,ピク　プミ　ドキ　ピポ,,,CartoonStims/boxer_punch_doctor_r_no.jpg,audio/pikupumidokipipo.mp3,,,,,,,,,,,,,,,,,,,,,,,,,,,,,,,,,,,,,,,,,,,,,,,,,,,,,,,,,,,,,,,,,,,,,
,,,,,,,,,R_3COVX1gMIUulXOc,2022-09-01_20h26.14.974,jpn_C02,2022.1.2,MacIntel,58.82352941,,,space,2.704,0,2,2,1,1,ピク　セル　シド　ホレト,,,CartoonStims/artist_kick_chef_r_no.jpg,audio/pikuserusidohoreto.mp3,,,,,,,,,,,,,,,,,,,,,,,,,,,,,,,,,,,,,,,,,,,,,,,,,,,,,,,,,,,,,,,,,,,,,
,,,,,,,,,R_3COVX1gMIUulXOc,2022-09-01_20h26.14.974,jpn_C02,2022.1.2,MacIntel,58.82352941,,,space,1.987,0,3,3,16,1,ピク　トマ　ホレト　ピポ,,,CartoonStims/chef_point_doctor_r_no.jpg,audio/pikutomahoretopipo.mp3,,,,,,,,,,,,,,,,,,,,,,,,,,,,,,,,,,,,,,,,,,,,,,,,,,,,,,,,,,,,,,,,,,,,,
,,,,,,,,,R_3COVX1gMIUulXOc,2022-09-01_20h26.14.974,jpn_C02,2022.1.2,MacIntel,58.82352941,,,space,8.204,0,4,4,4,1,セル　ピク　ホレト　ムク,,,CartoonStims/chef_kick_cowboy_r_no.jpg,audio/serupikuhoretomuku.mp3,,,,,,,,,,,,,,,,,,,,,,,,,,,,,,,,,,,,,,,,,,,,,,,,,,,,,,,,,,,,,,,,,,,,,
,,,,,,,,,R_3COVX1gMIUulXOc,2022-09-01_20h26.14.974,jpn_C02,2022.1.2,MacIntel,58.82352941,,,space,2.882,0,5,5,18,1,ピク　トマ　ムク　ドキ,,,CartoonStims/cowboy_point_boxer_r_no.jpg,audio/pikutomamukudoki.mp3,,,,,,,,,,,,,,,,,,,,,,,,,,,,,,,,,,,,,,,,,,,,,,,,,,,,,,,,,,,,,,,,,,,,,
,,,,,,,,,R_3COVX1gMIUulXOc,2022-09-01_20h26.14.974,jpn_C02,2022.1.2,MacIntel,58.82352941,,,space,5.415,0,6,6,40,1,ピク　プミ　ホレト　シド,,,CartoonStims/chef_punch_artist_r_no.jpg,audio/pikupumihoretosido.mp3,,,,,,,,,,,,,,,,,,,,,,,,,,,,,,,,,,,,,,,,,,,,,,,,,,,,,,,,,,,,,,,,,,,,,
,,,,,,,,,R_3COVX1gMIUulXOc,2022-09-01_20h26.14.974,jpn_C02,2022.1.2,MacIntel,58.82352941,,,space,3.021,0,7,7,37,1,ピク　プミ　シド　ドキ,,,CartoonStims/artist_punch_boxer_r_no.jpg,audio/pikupumisidodoki.mp3,,,,,,,,,,,,,,,,,,,,,,,,,,,,,,,,,,,,,,,,,,,,,,,,,,,,,,,,,,,,,,,,,,,,,
,,,,,,,,,R_3COVX1gMIUulXOc,2022-09-01_20h26.14.974,jpn_C02,2022.1.2,MacIntel,58.82352941,,,space,4.021,0,8,8,13,1,ピク　トマ　シド　ムク,,,CartoonStims/artist_point_cowboy_r_no.jpg,audio/pikutomasidomuku.mp3,,,,,,,,,,,,,,,,,,,,,,,,,,,,,,,,,,,,,,,,,,,,,,,,,,,,,,,,,,,,,,,,,,,,,
,,,,,,,,,R_3COVX1gMIUulXOc,2022-09-01_20h26.14.974,jpn_C02,2022.1.2,MacIntel,58.82352941,,,space,4.12,0,9,9,11,1,ピク　セル　ドキ　ルピン,,,CartoonStims/boxer_kick_burglar_r_no.jpg,audio/pikuserudokilupin.mp3,,,,,,,,,,,,,,,,,,,,,,,,,,,,,,,,,,,,,,,,,,,,,,,,,,,,,,,,,,,,,,,,,,,,,
,,,,,,,,,R_3COVX1gMIUulXOc,2022-09-01_20h26.14.974,jpn_C02,2022.1.2,MacIntel,58.82352941,,,space,4.643,0,10,10,26,1,ピク　パツ　ルピン　ピポ,,,CartoonStims/burglar_shoot_doctor_r_no.jpg,audio/pikupatsulupinpipo.mp3,,,,,,,,,,,,,,,,,,,,,,,,,,,,,,,,,,,,,,,,,,,,,,,,,,,,,,,,,,,,,,,,,,,,,
,,,,,,,,,R_3COVX1gMIUulXOc,2022-09-01_20h26.14.974,jpn_C02,2022.1.2,MacIntel,58.82352941,,,space,1.791,0,11,11,31,1,ピク　パツ　ムク　ルピン,,,CartoonStims/cowboy_shoot_burglar_r_no.jpg,audio/pikupatsumukulupin.mp3,,,,,,,,,,,,,,,,,,,,,,,,,,,,,,,,,,,,,,,,,,,,,,,,,,,,,,,,,,,,,,,,,,,,,
,,,,,,,,,R_3COVX1gMIUulXOc,2022-09-01_20h26.14.974,jpn_C02,2022.1.2,MacIntel,58.82352941,,,space,2.088,0,12,12,10,1,ピク　セル　ドキ　シド,,,CartoonStims/boxer_kick_artist_r_no.jpg,audio/pikuserudokisido.mp3,,,,,,,,,,,,,,,,,,,,,,,,,,,,,,,,,,,,,,,,,,,,,,,,,,,,,,,,,,,,,,,,,,,,,
,,,,,,,,,R_3COVX1gMIUulXOc,2022-09-01_20h26.14.974,jpn_C02,2022.1.2,MacIntel,58.82352941,,,space,6.003,0,13,13,15,1,トマ　ピク　ルピン　ピポ,,,CartoonStims/burglar_point_doctor_r_no.jpg,audio/tomapikulupinpipo.mp3,,,,,,,,,,,,,,,,,,,,,,,,,,,,,,,,,,,,,,,,,,,,,,,,,,,,,,,,,,,,,,,,,,,,,
,,,,,,,,,R_3COVX1gMIUulXOc,2022-09-01_20h26.14.974,jpn_C02,2022.1.2,MacIntel,58.82352941,,,space,4.881,0,14,14,21,1,ピク　トマ　ピポ　ルピン,,,CartoonStims/doctor_point_burglar_r_no.jpg,audio/pikutomapipolupin.mp3,,,,,,,,,,,,,,,,,,,,,,,,,,,,,,,,,,,,,,,,,,,,,,,,,,,,,,,,,,,,,,,,,,,,,
,,,,,,,,,R_3COVX1gMIUulXOc,2022-09-01_20h26.14.974,jpn_C02,2022.1.2,MacIntel,58.82352941,,,space,7.47,0,15,15,38,1,ピク　プミ　ルピン　ドキ,,,CartoonStims/burglar_punch_boxer_r_no.jpg,audio/pikupumilupindoki.mp3,,,,,,,,,,,,,,,,,,,,,,,,,,,,,,,,,,,,,,,,,,,,,,,,,,,,,,,,,,,,,,,,,,,,,
,,,,,,,,,R_3COVX1gMIUulXOc,2022-09-01_20h26.14.974,jpn_C02,2022.1.2,MacIntel,58.82352941,,,space,1.987,0,16,16,2,1,ピク　セル　ルピン　ホレト,,,CartoonStims/burglar_kick_chef_r_no.jpg,audio/pikuserulupinhoreto.mp3,,,,,,,,,,,,,,,,,,,,,,,,,,,,,,,,,,,,,,,,,,,,,,,,,,,,,,,,,,,,,,,,,,,,,
,,,,,,,,,R_3COVX1gMIUulXOc,2022-09-01_20h26.14.974,jpn_C02,2022.1.2,MacIntel,58.82352941,,,space,10.283,0,17,17,23,1,トマ　ピク　ドキ　ホレト,,,CartoonStims/boxer_point_chef_r_no.jpg,audio/tomapikudokihoreto.mp3,,,,,,,,,,,,,,,,,,,,,,,,,,,,,,,,,,,,,,,,,,,,,,,,,,,,,,,,,,,,,,,,,,,,,
,,,,,,,,,R_3COVX1gMIUulXOc,2022-09-01_20h26.14.974,jpn_C02,2022.1.2,MacIntel,58.82352941,,,space,3.035,0,18,18,3,1,ピク　セル　ルピン　ムク,,,CartoonStims/burglar_kick_cowboy_r_no.jpg,audio/pikuserulupinmuku.mp3,,,,,,,,,,,,,,,,,,,,,,,,,,,,,,,,,,,,,,,,,,,,,,,,,,,,,,,,,,,,,,,,,,,,,
,,,,,,,,,R_3COVX1gMIUulXOc,2022-09-01_20h26.14.974,jpn_C02,2022.1.2,MacIntel,58.82352941,,,space,2.116,0,19,19,28,1,ピク　パツ　ホレト　ドキ,,,CartoonStims/chef_shoot_boxer_r_no.jpg,audio/pikupatsuhoretodoki.mp3,,,,,,,,,,,,,,,,,,,,,,,,,,,,,,,,,,,,,,,,,,,,,,,,,,,,,,,,,,,,,,,,,,,,,
,,,,,,,,,R_3COVX1gMIUulXOc,2022-09-01_20h26.14.974,jpn_C02,2022.1.2,MacIntel,58.82352941,,,space,4.288,0,20,20,7,1,ピク　セル　ムク　ドキ,,,CartoonStims/cowboy_kick_boxer_r_no.jpg,audio/pikuserumukudoki.mp3,,,,,,,,,,,,,,,,,,,,,,,,,,,,,,,,,,,,,,,,,,,,,,,,,,,,,,,,,,,,,,,,,,,,,
,,,,,,,,,R_3COVX1gMIUulXOc,2022-09-01_20h26.14.974,jpn_C02,2022.1.2,MacIntel,58.82352941,,,space,3.322,0,21,21,29,1,パツ　ピク　ホレト　シド,,,CartoonStims/chef_shoot_artist_r_no.jpg,audio/patsupikuhoretosido.mp3,,,,,,,,,,,,,,,,,,,,,,,,,,,,,,,,,,,,,,,,,,,,,,,,,,,,,,,,,,,,,,,,,,,,,
,,,,,,,,,R_3COVX1gMIUulXOc,2022-09-01_20h26.14.974,jpn_C02,2022.1.2,MacIntel,58.82352941,,,space,2.186,0,22,22,41,1,ピク　プミ　ホレト　ルピン,,,CartoonStims/chef_punch_burglar_r_no.jpg,audio/pikupumihoretolupin.mp3,,,,,,,,,,,,,,,,,,,,,,,,,,,,,,,,,,,,,,,,,,,,,,,,,,,,,,,,,,,,,,,,,,,,,
,,,,,,,,,R_3COVX1gMIUulXOc,2022-09-01_20h26.14.974,jpn_C02,2022.1.2,MacIntel,58.82352941,,,space,4.393,0,23,23,24,1,ピク　パツ　シド　ムク,,,CartoonStims/artist_shoot_cowboy_r_no.jpg,audio/pikupatsusidomuku.mp3,,,,,,,,,,,,,,,,,,,,,,,,,,,,,,,,,,,,,,,,,,,,,,,,,,,,,,,,,,,,,,,,,,,,,
,,,,,,,,,R_3COVX1gMIUulXOc,2022-09-01_20h26.14.974,jpn_C02,2022.1.2,MacIntel,58.82352941,,,space,1.531,0,24,24,17,1,ピク　トマ　ホレト　ドキ,,,CartoonStims/chef_point_boxer_r_no.jpg,audio/pikutomahoretodoki.mp3,,,,,,,,,,,,,,,,,,,,,,,,,,,,,,,,,,,,,,,,,,,,,,,,,,,,,,,,,,,,,,,,,,,,,
,,,,,,,,,R_3COVX1gMIUulXOc,2022-09-01_20h26.14.974,jpn_C02,2022.1.2,MacIntel,58.82352941,,,space,1.823,0,25,25,33,1,ピク　パツ　ピポ　ホレト,,,CartoonStims/doctor_shoot_chef_r_no.jpg,audio/pikupatsupipohoreto.mp3,,,,,,,,,,,,,,,,,,,,,,,,,,,,,,,,,,,,,,,,,,,,,,,,,,,,,,,,,,,,,,,,,,,,,
,,,,,,,,,R_3COVX1gMIUulXOc,2022-09-01_20h26.14.974,jpn_C02,2022.1.2,MacIntel,58.82352941,,,space,1.969,0,26,26,39,1,ピク　プミ　ルピン　シド,,,CartoonStims/burglar_punch_artist_r_no.jpg,audio/pikupumilupinsido.mp3,,,,,,,,,,,,,,,,,,,,,,,,,,,,,,,,,,,,,,,,,,,,,,,,,,,,,,,,,,,,,,,,,,,,,
,,,,,,,,,R_3COVX1gMIUulXOc,2022-09-01_20h26.14.974,jpn_C02,2022.1.2,MacIntel,58.82352941,,,space,2.857,0,27,27,34,1,ピク　パツ　ドキ　ホレト,,,CartoonStims/boxer_shoot_chef_r_no.jpg,audio/pikupatsudokihoreto.mp3,,,,,,,,,,,,,,,,,,,,,,,,,,,,,,,,,,,,,,,,,,,,,,,,,,,,,,,,,,,,,,,,,,,,,
,,,,,,,,,R_3COVX1gMIUulXOc,2022-09-01_20h26.14.974,jpn_C02,2022.1.2,MacIntel,58.82352941,,,space,3.386,0,28,28,8,1,セル　ピク　ピポ　ドキ,,,CartoonStims/doctor_kick_boxer_r_no.jpg,audio/serupikupipodoki.mp3,,,,,,,,,,,,,,,,,,,,,,,,,,,,,,,,,,,,,,,,,,,,,,,,,,,,,,,,,,,,,,,,,,,,,
,,,,,,,,,R_3COVX1gMIUulXOc,2022-09-01_20h26.14.974,jpn_C02,2022.1.2,MacIntel,58.82352941,,,space,1.836,0,29,29,22,1,ピク　トマ　ドキ　ルピン,,,CartoonStims/boxer_point_burglar_r_no.jpg,audio/pikutomadokilupin.mp3,,,,,,,,,,,,,,,,,,,,,,,,,,,,,,,,,,,,,,,,,,,,,,,,,,,,,,,,,,,,,,,,,,,,,
,,,,,,,,,R_3COVX1gMIUulXOc,2022-09-01_20h26.14.974,jpn_C02,2022.1.2,MacIntel,58.82352941,,,space,3.122,0,30,30,25,1,パツ　ピク　シド　ピポ,,,CartoonStims/artist_shoot_doctor_r_no.jpg,audio/patsupikusidopipo.mp3,,,,,,,,,,,,,,,,,,,,,,,,,,,,,,,,,,,,,,,,,,,,,,,,,,,,,,,,,,,,,,,,,,,,,
,,,,,,,,,R_3COVX1gMIUulXOc,2022-09-01_20h26.14.974,jpn_C02,2022.1.2,MacIntel,58.82352941,,,space,1.604,0,31,31,5,1,ピク　セル　ホレト　ピポ,,,CartoonStims/chef_kick_doctor_r_no.jpg,audio/pikuseruhoretopipo.mp3,,,,,,,,,,,,,,,,,,,,,,,,,,,,,,,,,,,,,,,,,,,,,,,,,,,,,,,,,,,,,,,,,,,,,
,,,,,,,,,R_3COVX1gMIUulXOc,2022-09-01_20h26.14.974,jpn_C02,2022.1.2,MacIntel,58.82352941,,,space,1.453,0,32,32,9,1,ピク　セル　ピポ　シド,,,CartoonStims/doctor_kick_artist_r_no.jpg,audio/pikuserupiposido.mp3,,,,,,,,,,,,,,,,,,,,,,,,,,,,,,,,,,,,,,,,,,,,,,,,,,,,,,,,,,,,,,,,,,,,,
,,,,,,,,,R_3COVX1gMIUulXOc,2022-09-01_20h26.14.974,jpn_C02,2022.1.2,MacIntel,58.82352941,,,space,5.986,0,33,33,46,1,プミ　ピク　ドキ　ムク,,,CartoonStims/boxer_punch_cowboy_r_no.jpg,audio/pumipikudokimuku.mp3,,,,,,,,,,,,,,,,,,,,,,,,,,,,,,,,,,,,,,,,,,,,,,,,,,,,,,,,,,,,,,,,,,,,,
,,,,,,,,,R_3COVX1gMIUulXOc,2022-09-01_20h26.14.974,jpn_C02,2022.1.2,MacIntel,58.82352941,,,space,1.556,0,34,34,12,1,ピク　トマ　シド　ホレト,,,CartoonStims/artist_point_chef_r_no.jpg,audio/pikutomasidohoreto.mp3,,,,,,,,,,,,,,,,,,,,,,,,,,,,,,,,,,,,,,,,,,,,,,,,,,,,,,,,,,,,,,,,,,,,,
,,,,,,,,,R_3COVX1gMIUulXOc,2022-09-01_20h26.14.974,jpn_C02,2022.1.2,MacIntel,58.82352941,,,space,2.49,0,35,35,19,1,トマ　ピク　ムク　シド,,,CartoonStims/cowboy_point_artist_r_no.jpg,audio/tomapikumukusido.mp3,,,,,,,,,,,,,,,,,,,,,,,,,,,,,,,,,,,,,,,,,,,,,,,,,,,,,,,,,,,,,,,,,,,,,
,,,,,,,,,R_3COVX1gMIUulXOc,2022-09-01_20h26.14.974,jpn_C02,2022.1.2,MacIntel,58.82352941,,,space,4.679,0,36,36,44,1,プミ　ピク　ピポ　ホレト,,,CartoonStims/doctor_punch_chef_r_no.jpg,audio/pumipikupipohoreto.mp3,,,,,,,,,,,,,,,,,,,,,,,,,,,,,,,,,,,,,,,,,,,,,,,,,,,,,,,,,,,,,,,,,,,,,
,,,,,,,,,R_3COVX1gMIUulXOc,2022-09-01_20h26.14.974,jpn_C02,2022.1.2,MacIntel,58.82352941,,,space,1.77,0,37,37,43,1,ピク　プミ　ムク　ホレト,,,CartoonStims/cowboy_punch_chef_r_no.jpg,audio/pikupumimukuhoreto.mp3,,,,,,,,,,,,,,,,,,,,,,,,,,,,,,,,,,,,,,,,,,,,,,,,,,,,,,,,,,,,,,,,,,,,,
,,,,,,,,,R_3COVX1gMIUulXOc,2022-09-01_20h26.14.974,jpn_C02,2022.1.2,MacIntel,58.82352941,,,space,2.766,0,38,38,42,1,プミ　ピク　ムク　ルピン,,,CartoonStims/cowboy_punch_burglar_r_no.jpg,audio/pumipikumukulupin.mp3,,,,,,,,,,,,,,,,,,,,,,,,,,,,,,,,,,,,,,,,,,,,,,,,,,,,,,,,,,,,,,,,,,,,,
,,,,,,,,,R_3COVX1gMIUulXOc,2022-09-01_20h26.14.974,jpn_C02,2022.1.2,MacIntel,58.82352941,,,space,1.825,0,39,39,14,1,ピク　トマ　ルピン　ムク,,,CartoonStims/burglar_point_cowboy_r_no.jpg,audio/pikutomalupinmuku.mp3,,,,,,,,,,,,,,,,,,,,,,,,,,,,,,,,,,,,,,,,,,,,,,,,,,,,,,,,,,,,,,,,,,,,,
,,,,,,,,,R_3COVX1gMIUulXOc,2022-09-01_20h26.14.974,jpn_C02,2022.1.2,MacIntel,58.82352941,,,space,0.735,0,40,40,35,1,ピク　パツ　ドキ　ムク,,,CartoonStims/boxer_shoot_cowboy_r_no.jpg,audio/pikupatsudokimuku.mp3,,,,,,,,,,,,,,,,,,,,,,,,,,,,,,,,,,,,,,,,,,,,,,,,,,,,,,,,,,,,,,,,,,,,,
,,,,,,,,,R_3COVX1gMIUulXOc,2022-09-01_20h26.14.974,jpn_C02,2022.1.2,MacIntel,58.82352941,,,space,2.206,0,41,41,0,1,セル　ピク　シド　ルピン,,,CartoonStims/artist_kick_burglar_r_no.jpg,audio/serupikusidolupin.mp3,,,,,,,,,,,,,,,,,,,,,,,,,,,,,,,,,,,,,,,,,,,,,,,,,,,,,,,,,,,,,,,,,,,,,
,,,,,,,,,R_3COVX1gMIUulXOc,2022-09-01_20h26.14.974,jpn_C02,2022.1.2,MacIntel,58.82352941,,,space,1.623,0,42,42,30,1,ピク　パツ　ムク　シド,,,CartoonStims/cowboy_shoot_artist_r_no.jpg,audio/pikupatsumukusido.mp3,,,,,,,,,,,,,,,,,,,,,,,,,,,,,,,,,,,,,,,,,,,,,,,,,,,,,,,,,,,,,,,,,,,,,
,,,,,,,,,R_3COVX1gMIUulXOc,2022-09-01_20h26.14.974,jpn_C02,2022.1.2,MacIntel,58.82352941,,,space,3.251,0,43,43,6,1,ピク　セル　ムク　ピポ,,,CartoonStims/cowboy_kick_doctor_r_no.jpg,audio/pikuserumukupipo.mp3,,,,,,,,,,,,,,,,,,,,,,,,,,,,,,,,,,,,,,,,,,,,,,,,,,,,,,,,,,,,,,,,,,,,,
,,,,,,,,,R_3COVX1gMIUulXOc,2022-09-01_20h26.14.974,jpn_C02,2022.1.2,MacIntel,58.82352941,,,space,1.94,0,44,44,36,1,ピク　プミ　シド　ピポ,,,CartoonStims/artist_punch_doctor_r_no.jpg,audio/pikupumisidopipo.mp3,,,,,,,,,,,,,,,,,,,,,,,,,,,,,,,,,,,,,,,,,,,,,,,,,,,,,,,,,,,,,,,,,,,,,
,,,,,,,,,R_3COVX1gMIUulXOc,2022-09-01_20h26.14.974,jpn_C02,2022.1.2,MacIntel,58.82352941,,,space,1.854,0,45,45,45,1,ピク　プミ　ピポ　ムク,,,CartoonStims/doctor_punch_cowboy_r_no.jpg,audio/pikupumipipomuku.mp3,,,,,,,,,,,,,,,,,,,,,,,,,,,,,,,,,,,,,,,,,,,,,,,,,,,,,,,,,,,,,,,,,,,,,
,,,,,,,,,R_3COVX1gMIUulXOc,2022-09-01_20h26.14.974,jpn_C02,2022.1.2,MacIntel,58.82352941,,,space,0.869,0,46,46,32,1,ピク　パツ　ピポ　ルピン,,,CartoonStims/doctor_shoot_burglar_r_no.jpg,audio/pikupatsupipolupin.mp3,,,,,,,,,,,,,,,,,,,,,,,,,,,,,,,,,,,,,,,,,,,,,,,,,,,,,,,,,,,,,,,,,,,,,
,,,,,,,,,R_3COVX1gMIUulXOc,2022-09-01_20h26.14.974,jpn_C02,2022.1.2,MacIntel,58.82352941,,,space,2.926,0,47,47,27,1,パツ　ピク　ルピン　ドキ,,,CartoonStims/burglar_shoot_boxer_r_no.jpg,audio/patsupikulupindoki.mp3,,,,,,,,,,,,,,,,,,,,,,,,,,,,,,,,,,,,,,,,,,,,,,,,,,,,,,,,,,,,,,,,,,,,,
,,,,,,,,,R_3COVX1gMIUulXOc,2022-09-01_20h26.14.974,jpn_C02,2022.1.2,MacIntel,58.82352941,,,,,,,,,,,,,,,space,0.973,right,0,5.308,,,,,,,,,,,,,,,,,,,,,,,,,,,,,,,,,,,,,,,,,,,,,,,,,,,,,,,,,0,0,0,0,1,,,
,,,,,,,,,R_3COVX1gMIUulXOc,2022-09-01_20h26.14.974,jpn_C02,2022.1.2,MacIntel,58.82352941,,,,,,,,,,,,,,,,,,,,,,,,,0,0,0,4,1,CartoonStims/burglar_shoot_doctor_r.jpg,ピク　セル　ルピン　ピポ,CartoonStims/burglar_kick_doctor_r.jpg,left,CartoonStims/burglar_shoot_doctor_r.jpg,audio/pikuserulupinpipo.mp3,"残念！ こちらが正しい画像です。

否定文は起きていないことを示しているのを思い出してください。",,,,,,,,,,,,,,,,,,,,,,,,,,,,,,,,,,,,,,,,,,,,,,,
,,,,,,,,,R_3COVX1gMIUulXOc,2022-09-01_20h26.14.974,jpn_C02,2022.1.2,MacIntel,58.82352941,,,,,,,,,,,,,,,,,right,1,13.988,0,0,0,0,1,,,,,,,,,,,,,,,,,,,,,,,,,,,,,,,,,,,,,,,,,,,,,,,,,,,,,,,,,,,
,,,,,,,,,R_3COVX1gMIUulXOc,2022-09-01_20h26.14.974,jpn_C02,2022.1.2,MacIntel,58.82352941,,,,,,,,,,,,,,,,,,,,,,,,,0,1,1,3,1,CartoonStims/chef_kick_artist_r.jpg,セル　ピク　ホレト　シド,CartoonStims/chef_point_artist_r.jpg,right,CartoonStims/chef_point_artist_r.jpg,audio/serupikuhoretosido.mp3,"残念！ こちらが正しい画像です。

否定文は起きていないことを示しているのを思い出してください。",,,,,,,,,,,,,,,,,,,,,,,,,,,,,,,,,,,,,,,,,,,,,,,
,,,,,,,,,R_3COVX1gMIUulXOc,2022-09-01_20h26.14.974,jpn_C02,2022.1.2,MacIntel,58.82352941,,,,,,,,,,,,,,,,,right,1,2.672,0,0,0,0,1,,,,,,,,,,,,,,,,,,,,,,,,,,,,,,,,,,,,,,,,,,,,,,,,,,,,,,,,,,,
,,,,,,,,,R_3COVX1gMIUulXOc,2022-09-01_20h26.14.974,jpn_C02,2022.1.2,MacIntel,58.82352941,,,,,,,,,,,,,,,,,,,,,,,,,0,2,2,11,1,CartoonStims/chef_shoot_burglar_r.jpg,ピク　パツ　ホレト　ルピン,CartoonStims/chef_kick_burglar_r.jpg,right,CartoonStims/chef_kick_burglar_r.jpg,audio/pikupatsuhoretolupin.mp3,"残念！ こちらが正しい画像です。

否定文は起きていないことを示しているのを思い出してください。",,,,,,,,,,,,,,,,,,,,,,,,,,,,,,,,,,,,,,,,,,,,,,,
,,,,,,,,,R_3COVX1gMIUulXOc,2022-09-01_20h26.14.974,jpn_C02,2022.1.2,MacIntel,58.82352941,,,,,,,,,,,,,,,,,right,1,2.522,0,0,0,0,1,,,,,,,,,,,,,,,,,,,,,,,,,,,,,,,,,,,,,,,,,,,,,,,,,,,,,,,,,,,
,,,,,,,,,R_3COVX1gMIUulXOc,2022-09-01_20h26.14.974,jpn_C02,2022.1.2,MacIntel,58.82352941,,,,,,,,,,,,,,,,,,,,,,,,,0,3,3,9,1,CartoonStims/boxer_shoot_doctor_r.jpg,ピク　パツ　ドキ　ピポ,CartoonStims/boxer_point_doctor_r.jpg,right,CartoonStims/boxer_point_doctor_r.jpg,audio/pikupatsudokipipo.mp3,"残念！ こちらが正しい画像です。

否定文は起きていないことを示しているのを思い出してください。",,,,,,,,,,,,,,,,,,,,,,,,,,,,,,,,,,,,,,,,,,,,,,,
,,,,,,,,,R_3COVX1gMIUulXOc,2022-09-01_20h26.14.974,jpn_C02,2022.1.2,MacIntel,58.82352941,,,,,,,,,,,,,,,,,left,1,2.002,,,,,,,,,,,,,,,,,,0,0,0,0,1,,,,,,,,,,,,,,,,,,,,,,,,,,,,,,,,,,,,,,,,,,
,,,,,,,,,R_3COVX1gMIUulXOc,2022-09-01_20h26.14.974,jpn_C02,2022.1.2,MacIntel,58.82352941,,,,,,,,,,,,,,,,,,,,,,,,,0,4,4,0,1,CartoonStims/artist_shoot_burglar_r.jpg,プミ　ピク　シド　ルピン,CartoonStims/artist_punch_burglar_r.jpg,left,CartoonStims/artist_shoot_burglar_r.jpg,audio/pumipikusidolupin.mp3,"残念！ こちらが正しい画像です。

否定文は起きていないことを示しているのを思い出してください。",,,,,,,,,,,,,,,,,,,,,,,,,,,,,,,,,,,,,,,,,,,,,,,
,,,,,,,,,R_3COVX1gMIUulXOc,2022-09-01_20h26.14.974,jpn_C02,2022.1.2,MacIntel,58.82352941,,,,,,,,,,,,,,,,,left,1,1.156,,,,,,,,,,,,,,,,,,0,0,0,0,1,,,,,,,,,,,,,,,,,,,,,,,,,,,,,,,,,,,,,,,,,,
,,,,,,,,,R_3COVX1gMIUulXOc,2022-09-01_20h26.14.974,jpn_C02,2022.1.2,MacIntel,58.82352941,,,,,,,,,,,,,,,,,,,,,,,,,0,5,5,8,1,CartoonStims/burglar_punch_artist_r.jpg,ピク　トマ　ルピン　シド,CartoonStims/burglar_point_artist_r.jpg,left,CartoonStims/burglar_punch_artist_r.jpg,audio/pikutomalupinsido.mp3,"残念！ こちらが正しい画像です。

否定文は起きていないことを示しているのを思い出してください。",,,,,,,,,,,,,,,,,,,,,,,,,,,,,,,,,,,,,,,,,,,,,,,
,,,,,,,,,R_3COVX1gMIUulXOc,2022-09-01_20h26.14.974,jpn_C02,2022.1.2,MacIntel,58.82352941,,,,,,,,,,,,,,,,,right,1,1.817,0,0,0,0,1,,,,,,,,,,,,,,,,,,,,,,,,,,,,,,,,,,,,,,,,,,,,,,,,,,,,,,,,,,,
,,,,,,,,,R_3COVX1gMIUulXOc,2022-09-01_20h26.14.974,jpn_C02,2022.1.2,MacIntel,58.82352941,,,,,,,,,,,,,,,,,,,,,,,,,0,6,6,1,1,CartoonStims/chef_punch_cowboy_r.jpg,ピク　プミ　ホレト　ムク,CartoonStims/chef_kick_cowboy_r.jpg,right,CartoonStims/chef_kick_cowboy_r.jpg,audio/pikupumihoretomuku.mp3,"残念！ こちらが正しい画像です。

否定文は起きていないことを示しているのを思い出してください。",,,,,,,,,,,,,,,,,,,,,,,,,,,,,,,,,,,,,,,,,,,,,,,
,,,,,,,,,R_3COVX1gMIUulXOc,2022-09-01_20h26.14.974,jpn_C02,2022.1.2,MacIntel,58.82352941,,,,,,,,,,,,,,,,,left,1,1.024,,,,,,,,,,,,,,,,,,0,0,0,0,1,,,,,,,,,,,,,,,,,,,,,,,,,,,,,,,,,,,,,,,,,,
,,,,,,,,,R_3COVX1gMIUulXOc,2022-09-01_20h26.14.974,jpn_C02,2022.1.2,MacIntel,58.82352941,,,,,,,,,,,,,,,,,,,,,,,,,0,7,7,6,1,CartoonStims/artist_shoot_boxer_r.jpg,ピク　トマ　シド　ドキ,CartoonStims/artist_point_boxer_r.jpg,left,CartoonStims/artist_shoot_boxer_r.jpg,audio/pikutomasidodoki.mp3,"残念！ こちらが正しい画像です。

否定文は起きていないことを示しているのを思い出してください。",,,,,,,,,,,,,,,,,,,,,,,,,,,,,,,,,,,,,,,,,,,,,,,
,,,,,,,,,R_3COVX1gMIUulXOc,2022-09-01_20h26.14.974,jpn_C02,2022.1.2,MacIntel,58.82352941,,,,,,,,,,,,,,,,,left,1,1.49,,,,,,,,,,,,,,,,,,0,0,0,0,1,,,,,,,,,,,,,,,,,,,,,,,,,,,,,,,,,,,,,,,,,,
,,,,,,,,,R_3COVX1gMIUulXOc,2022-09-01_20h26.14.974,jpn_C02,2022.1.2,MacIntel,58.82352941,,,,,,,,,,,,,,,,,,,,,,,,,0,8,8,2,1,CartoonStims/doctor_point_boxer_r.jpg,ピク　プミ　ピポ　ドキ,CartoonStims/doctor_punch_boxer_r.jpg,left,CartoonStims/doctor_point_boxer_r.jpg,audio/pikupumipipodoki.mp3,"残念！ こちらが正しい画像です。

否定文は起きていないことを示しているのを思い出してください。",,,,,,,,,,,,,,,,,,,,,,,,,,,,,,,,,,,,,,,,,,,,,,,
,,,,,,,,,R_3COVX1gMIUulXOc,2022-09-01_20h26.14.974,jpn_C02,2022.1.2,MacIntel,58.82352941,,,,,,,,,,,,,,,,,right,1,0.889,0,0,0,0,1,,,,,,,,,,,,,,,,,,,,,,,,,,,,,,,,,,,,,,,,,,,,,,,,,,,,,,,,,,,
,,,,,,,,,R_3COVX1gMIUulXOc,2022-09-01_20h26.14.974,jpn_C02,2022.1.2,MacIntel,58.82352941,,,,,,,,,,,,,,,,,,,,,,,,,0,9,9,7,1,CartoonStims/cowboy_point_chef_r.jpg,トマ　ピク　ムク　ホレト,CartoonStims/cowboy_kick_chef_r.jpg,right,CartoonStims/cowboy_kick_chef_r.jpg,audio/tomapikumukuhoreto.mp3,"残念！ こちらが正しい画像です。

否定文は起きていないことを示しているのを思い出してください。",,,,,,,,,,,,,,,,,,,,,,,,,,,,,,,,,,,,,,,,,,,,,,,
,,,,,,,,,R_3COVX1gMIUulXOc,2022-09-01_20h26.14.974,jpn_C02,2022.1.2,MacIntel,58.82352941,,,,,,,,,,,,,,,,,right,1,3.733,0,0,0,0,1,,,,,,,,,,,,,,,,,,,,,,,,,,,,,,,,,,,,,,,,,,,,,,,,,,,,,,,,,,,
,,,,,,,,,R_3COVX1gMIUulXOc,2022-09-01_20h26.14.974,jpn_C02,2022.1.2,MacIntel,58.82352941,,,,,,,,,,,,,,,,,,,,,,,,,0,10,10,5,1,CartoonStims/boxer_kick_cowboy_r.jpg,ピク　セル　ドキ　ムク,CartoonStims/boxer_punch_cowboy_r.jpg,right,CartoonStims/boxer_punch_cowboy_r.jpg,audio/pikuserudokimuku.mp3,"残念！ こちらが正しい画像です。

否定文は起きていないことを示しているのを思い出してください。",,,,,,,,,,,,,,,,,,,,,,,,,,,,,,,,,,,,,,,,,,,,,,,
,,,,,,,,,R_3COVX1gMIUulXOc,2022-09-01_20h26.14.974,jpn_C02,2022.1.2,MacIntel,58.82352941,,,,,,,,,,,,,,,,,left,1,2.216,,,,,,,,,,,,,,,,,,0,0,0,0,1,,,,,,,,,,,,,,,,,,,,,,,,,,,,,,,,,,,,,,,,,,
,,,,,,,,,R_3COVX1gMIUulXOc,2022-09-01_20h26.14.974,jpn_C02,2022.1.2,MacIntel,58.82352941,,,,,,,,,,,,,,,,,,,,,,,,,0,11,11,10,1,CartoonStims/doctor_punch_cowboy_r.jpg,パツ　ピク　ピポ　ムク,CartoonStims/doctor_shoot_cowboy_r.jpg,left,CartoonStims/doctor_punch_cowboy_r.jpg,audio/patsupikupipomuku.mp3,"残念！ こちらが正しい画像です。

否定文は起きていないことを示しているのを思い出してください。",,,,,,,,,,,,,,,,,,,,,,,,,,,,,,,,,,,,,,,,,,,,,,,
,,,,,,,,,R_3COVX1gMIUulXOc,2022-09-01_20h26.14.974,jpn_C02,2022.1.2,MacIntel,58.82352941,,,,,,,,,,,,,CartoonStims/artist_punch_burglar_r.jpg,,,,,,,,,,,,,,,,,,,,,,,,,,,,,space,4.554,ピク　パツ　シド　ルピン,right,22.695,,,,,,0,0,0,33,1,,,,,,,,,,,,,,,,,,,,,,,,,プミ　シド　ルピン,プミ　シド　ルピン,0
,,,,,,,,,R_3COVX1gMIUulXOc,2022-09-01_20h26.14.974,jpn_C02,2022.1.2,MacIntel,58.82352941,,,,,,,,,,,,,CartoonStims/cowboy_shoot_doctor_r.jpg,,,,,,,,,,,,,,,,,,,,,,,,,,,,,,,ピク　トマ　ムク　ピポ,right,11.949,,,,,,0,1,1,32,1,,,,,,,,,,,,,,,,,,,,,,,,,パツ　ムク　ピポ,パツ　ムク　ピポ,0
,,,,,,,,,R_3COVX1gMIUulXOc,2022-09-01_20h26.14.974,jpn_C02,2022.1.2,MacIntel,58.82352941,,,,,,,,,,,,,CartoonStims/boxer_punch_chef_r_no.jpg,,,,,,,,,,,,,,,,,,,,,,,,,,,,,,,ピク　プミ　ドキ　ホレト,right,31.162,,,,,,0,2,2,23,1,,,,,,,,,,,,,,,,,,,,,,,,,ピク　プミ　ドキ　ホレト,プミ　ピク　ドキ　ホレト,1
,,,,,,,,,R_3COVX1gMIUulXOc,2022-09-01_20h26.14.974,jpn_C02,2022.1.2,MacIntel,58.82352941,,,,,,,,,,,,,CartoonStims/boxer_punch_artist_r.jpg,,,,,,,,,,,,,,,,,,,,,,,,,,,,,,,プミ　ドキ　シド,right,10.041,,,,,,0,3,3,35,1,,,,,,,,,,,,,,,,,,,,,,,,,プミ　ドキ　シド,プミ　ドキ　シド,0
,,,,,,,,,R_3COVX1gMIUulXOc,2022-09-01_20h26.14.974,jpn_C02,2022.1.2,MacIntel,58.82352941,,,,,,,,,,,,,CartoonStims/cowboy_punch_artist_r_no.jpg,,,,,,,,,,,,,,,,,,,,,,,,,,,,,,,ピク　プミ　ムク　シド,right,15.016,,,,,,0,4,4,21,1,,,,,,,,,,,,,,,,,,,,,,,,,ピク　プミ　ムク　シド,プミ　ピク　ムク　シド,1
,,,,,,,,,R_3COVX1gMIUulXOc,2022-09-01_20h26.14.974,jpn_C02,2022.1.2,MacIntel,58.82352941,,,,,,,,,,,,,CartoonStims/doctor_point_boxer_r_no.jpg,,,,,,,,,,,,,,,,,,,,,,,,,,,,,,,ピク　トマ　ピポ　ドキ,right,9.105,,,,,,0,5,5,10,1,,,,,,,,,,,,,,,,,,,,,,,,,ピク　トマ　ピポ　ドキ,トマ　ピク　ピポ　ドキ,1
,,,,,,,,,R_3COVX1gMIUulXOc,2022-09-01_20h26.14.974,jpn_C02,2022.1.2,MacIntel,58.82352941,,,,,,,,,,,,,CartoonStims/boxer_kick_cowboy_r.jpg,,,,,,,,,,,,,,,,,,,,,,,,,,,,,,,セル　ドキ　ムク,right,11.016,,,,,,0,6,6,26,1,,,,,,,,,,,,,,,,,,,,,,,,,セル　ドキ　ムク,セル　ドキ　ムク,0
,,,,,,,,,R_3COVX1gMIUulXOc,2022-09-01_20h26.14.974,jpn_C02,2022.1.2,MacIntel,58.82352941,,,,,,,,,,,,,CartoonStims/chef_kick_burglar_r_no.jpg,,,,,,,,,,,,,,,,,,,,,,,,,,,,,,,ピク　セル　ホレト　ルピン,right,11.79,,,,,,0,7,7,2,1,,,,,,,,,,,,,,,,,,,,,,,,,ピク　セル　ホレト　ルピン,セル　ピク　ホレト　ルピン,1
,,,,,,,,,R_3COVX1gMIUulXOc,2022-09-01_20h26.14.974,jpn_C02,2022.1.2,MacIntel,58.82352941,,,,,,,,,,,,,CartoonStims/doctor_punch_burglar_r_no.jpg,,,,,,,,,,,,,,,,,,,,,,,,,,,,,,,ピク　プミ　ピポ　ルピン,right,14.233,,,,,,0,8,8,22,1,,,,,,,,,,,,,,,,,,,,,,,,,ピク　プミ　ピポ　ルピン,プミ　ピク　ピポ　ルピン,1
,,,,,,,,,R_3COVX1gMIUulXOc,2022-09-01_20h26.14.974,jpn_C02,2022.1.2,MacIntel,58.82352941,,,,,,,,,,,,,CartoonStims/burglar_kick_artist_r_no.jpg,,,,,,,,,,,,,,,,,,,,,,,,,,,,,,,ピク　セル　ルピン　シド,right,8.114,,,,,,0,9,9,1,1,,,,,,,,,,,,,,,,,,,,,,,,,ピク　セル　ルピン　シド,セル　ピク　ルピン　シド,1
,,,,,,,,,R_3COVX1gMIUulXOc,2022-09-01_20h26.14.974,jpn_C02,2022.1.2,MacIntel,58.82352941,,,,,,,,,,,,,CartoonStims/boxer_point_artist_r_no.jpg,,,,,,,,,,,,,,,,,,,,,,,,,,,,,,,ピク　トマ　ドキ　シド,right,7.962,,,,,,0,10,10,11,1,,,,,,,,,,,,,,,,,,,,,,,,,ピク　トマ　ドキ　シド,トマ　ピク　ドキ　シド,1
,,,,,,,,,R_3COVX1gMIUulXOc,2022-09-01_20h26.14.974,jpn_C02,2022.1.2,MacIntel,58.82352941,,,,,,,,,,,,,CartoonStims/artist_punch_cowboy_r_no.jpg,,,,,,,,,,,,,,,,,,,,,,,,,,,,,,,ピク　プミ　シド　ムク,right,9.018,,,,,,0,11,11,18,1,,,,,,,,,,,,,,,,,,,,,,,,,ピク　プミ　シド　ムク,プミ　ピク　シド　ムク,1
,,,,,,,,,R_3COVX1gMIUulXOc,2022-09-01_20h26.14.974,jpn_C02,2022.1.2,MacIntel,58.82352941,,,,,,,,,,,,,CartoonStims/doctor_kick_cowboy_r_no.jpg,,,,,,,,,,,,,,,,,,,,,,,,,,,,,,,ピク　セル　ピポ　ムク,right,7.04,,,,,,0,12,12,4,1,,,,,,,,,,,,,,,,,,,,,,,,,ピク　セル　ピポ　ムク,セル　ピク　ピポ　ムク,1
,,,,,,,,,R_3COVX1gMIUulXOc,2022-09-01_20h26.14.974,jpn_C02,2022.1.2,MacIntel,58.82352941,,,,,,,,,,,,,CartoonStims/chef_punch_boxer_r_no.jpg,,,,,,,,,,,,,,,,,,,,,,,,,,,,,,,ピク　プミ　ホレト　ドキ,right,10.44,,,,,,0,13,13,20,1,,,,,,,,,,,,,,,,,,,,,,,,,ピク　プミ　ホレト　ドキ,プミ　ピク　ホレト　ドキ,1
,,,,,,,,,R_3COVX1gMIUulXOc,2022-09-01_20h26.14.974,jpn_C02,2022.1.2,MacIntel,58.82352941,,,,,,,,,,,,,CartoonStims/artist_kick_boxer_r_no.jpg,,,,,,,,,,,,,,,,,,,,,,,,,,,,,,,ピク　セル　シド　ドキ,right,7.852,,,,,,0,14,14,0,1,,,,,,,,,,,,,,,,,,,,,,,,,ピク　セル　シド　ドキ,セル　ピク　シド　ドキ,1
,,,,,,,,,R_3COVX1gMIUulXOc,2022-09-01_20h26.14.974,jpn_C02,2022.1.2,MacIntel,58.82352941,,,,,,,,,,,,,CartoonStims/boxer_shoot_burglar_r_no.jpg,,,,,,,,,,,,,,,,,,,,,,,,,,,,,,,ピク　パツ　ドキ　ルピン,right,13.573,,,,,,0,15,15,17,1,,,,,,,,,,,,,,,,,,,,,,,,,ピク　パツ　ドキ　ルピン,パツ　ピク　ドキ　ルピン,1
,,,,,,,,,R_3COVX1gMIUulXOc,2022-09-01_20h26.14.974,jpn_C02,2022.1.2,MacIntel,58.82352941,,,,,,,,,,,,,CartoonStims/artist_shoot_chef_r_no.jpg,,,,,,,,,,,,,,,,,,,,,,,,,,,,,,,ピク　パツ　シド　ホレト,right,7.455,,,,,,0,16,16,12,1,,,,,,,,,,,,,,,,,,,,,,,,,ピク　パツ　シド　ホレト,パツ　ピク　シド　ホレト,1
,,,,,,,,,R_3COVX1gMIUulXOc,2022-09-01_20h26.14.974,jpn_C02,2022.1.2,MacIntel,58.82352941,,,,,,,,,,,,,CartoonStims/boxer_kick_doctor_r_no.jpg,,,,,,,,,,,,,,,,,,,,,,,,,,,,,,,ピク　セル　ドキ　ピポ,right,6.741,,,,,,0,17,17,5,1,,,,,,,,,,,,,,,,,,,,,,,,,ピク　セル　ドキ　ピポ,セル　ピク　ドキ　ピポ,1
,,,,,,,,,R_3COVX1gMIUulXOc,2022-09-01_20h26.14.974,jpn_C02,2022.1.2,MacIntel,58.82352941,,,,,,,,,,,,,CartoonStims/burglar_punch_doctor_r_no.jpg,,,,,,,,,,,,,,,,,,,,,,,,,,,,,,,ピク　プミ　ルピン　ピポ,right,8.595,,,,,,0,18,18,19,1,,,,,,,,,,,,,,,,,,,,,,,,,ピク　プミ　ルピン　ピポ,プミ　ピク　ルピン　ピポ,1
,,,,,,,,,R_3COVX1gMIUulXOc,2022-09-01_20h26.14.974,jpn_C02,2022.1.2,MacIntel,58.82352941,,,,,,,,,,,,,CartoonStims/artist_point_burglar_r_no.jpg,,,,,,,,,,,,,,,,,,,,,,,,,,,,,,,ピク　トマ　シド　ルピン,right,8.146,,,,,,0,19,19,6,1,,,,,,,,,,,,,,,,,,,,,,,,,ピク　トマ　シド　ルピン,トマ　ピク　シド　ルピン,1
,,,,,,,,,R_3COVX1gMIUulXOc,2022-09-01_20h26.14.974,jpn_C02,2022.1.2,MacIntel,58.82352941,,,,,,,,,,,,,CartoonStims/burglar_point_artist_r.jpg,,,,,,,,,,,,,,,,,,,,,,,,,,,,,,,トマ　ルピン　シド,right,6.303,,,,,,0,20,20,28,1,,,,,,,,,,,,,,,,,,,,,,,,,トマ　ルピン　シド,トマ　ルピン　シド,0
,,,,,,,,,R_3COVX1gMIUulXOc,2022-09-01_20h26.14.974,jpn_C02,2022.1.2,MacIntel,58.82352941,,,,,,,,,,,,,CartoonStims/cowboy_shoot_boxer_r_no.jpg,,,,,,,,,,,,,,,,,,,,,,,,,,,,,,,ピク　パツ　ムク　ドキ,right,9.777,,,,,,0,21,21,15,1,,,,,,,,,,,,,,,,,,,,,,,,,ピク　パツ　ムク　ドキ,パツ　ピク　ムク　ドキ,1
,,,,,,,,,R_3COVX1gMIUulXOc,2022-09-01_20h26.14.974,jpn_C02,2022.1.2,MacIntel,58.82352941,,,,,,,,,,,,,CartoonStims/doctor_kick_chef_r.jpg,,,,,,,,,,,,,,,,,,,,,,,,,,,,,,,セル　ピポ　ホレト,right,6.001,,,,,,0,22,22,25,1,,,,,,,,,,,,,,,,,,,,,,,,,セル　ピポ　ホレト,セル　ピポ　ホレト,0
,,,,,,,,,R_3COVX1gMIUulXOc,2022-09-01_20h26.14.974,jpn_C02,2022.1.2,MacIntel,58.82352941,,,,,,,,,,,,,CartoonStims/burglar_shoot_chef_r.jpg,,,,,,,,,,,,,,,,,,,,,,,,,,,,,,,パツ　ルピン　ホレト,right,5.639,,,,,,0,23,23,30,1,,,,,,,,,,,,,,,,,,,,,,,,,パツ　ルピン　ホレト,パツ　ルピン　ホレト,0
,,,,,,,,,R_3COVX1gMIUulXOc,2022-09-01_20h26.14.974,jpn_C02,2022.1.2,MacIntel,58.82352941,,,,,,,,,,,,,CartoonStims/cowboy_kick_burglar_r.jpg,,,,,,,,,,,,,,,,,,,,,,,,,,,,,,,セル　ムク　ルピン,right,5.973,,,,,,0,24,24,24,1,,,,,,,,,,,,,,,,,,,,,,,,,セル　ムク　ルピン,セル　ムク　ルピン,0
,,,,,,,,,R_3COVX1gMIUulXOc,2022-09-01_20h26.14.974,jpn_C02,2022.1.2,MacIntel,58.82352941,,,,,,,,,,,,,CartoonStims/chef_point_cowboy_r_no.jpg,,,,,,,,,,,,,,,,,,,,,,,,,,,,,,,ピク　トマ　ホレト　ムク,right,8.94,,,,,,0,25,25,8,1,,,,,,,,,,,,,,,,,,,,,,,,,ピク　トマ　ホレト　ムク,トマ　ピク　ホレト　ムク,1
,,,,,,,,,R_3COVX1gMIUulXOc,2022-09-01_20h26.14.974,jpn_C02,2022.1.2,MacIntel,58.82352941,,,,,,,,,,,,,CartoonStims/artist_point_boxer_r.jpg,,,,,,,,,,,,,,,,,,,,,,,,,,,,,,,トマ　シド　ドキ,right,4.806,,,,,,0,26,26,27,1,,,,,,,,,,,,,,,,,,,,,,,,,トマ　シド　ドキ,トマ　シド　ドキ,0
,,,,,,,,,R_3COVX1gMIUulXOc,2022-09-01_20h26.14.974,jpn_C02,2022.1.2,MacIntel,58.82352941,,,,,,,,,,,,,CartoonStims/chef_shoot_doctor_r_no.jpg,,,,,,,,,,,,,,,,,,,,,,,,,,,,,,,ピク　パツ　ホレト　ピポ,right,8.606,,,,,,0,27,27,14,1,,,,,,,,,,,,,,,,,,,,,,,,,ピク　パツ　ホレト　ピポ,パツ　ピク　ホレト　ピポ,1
,,,,,,,,,R_3COVX1gMIUulXOc,2022-09-01_20h26.14.974,jpn_C02,2022.1.2,MacIntel,58.82352941,,,,,,,,,,,,,CartoonStims/cowboy_point_doctor_r_no.jpg,,,,,,,,,,,,,,,,,,,,,,,,,,,,,,,ピク　トマ　ムク　ピポ,right,15.388,,,,,,0,28,28,9,1,,,,,,,,,,,,,,,,,,,,,,,,,ピク　トマ　ムク　ピポ,トマ　ピク　ムク　ピポ,1
,,,,,,,,,R_3COVX1gMIUulXOc,2022-09-01_20h26.14.974,jpn_C02,2022.1.2,MacIntel,58.82352941,,,,,,,,,,,,,CartoonStims/chef_shoot_cowboy_r.jpg,,,,,,,,,,,,,,,,,,,,,,,,,,,,,,,パツ　ホレト　ムク,right,6.031,,,,,,0,29,29,31,1,,,,,,,,,,,,,,,,,,,,,,,,,パツ　ホレト　ムク,パツ　ホレト　ムク,0
,,,,,,,,,R_3COVX1gMIUulXOc,2022-09-01_20h26.14.974,jpn_C02,2022.1.2,MacIntel,58.82352941,,,,,,,,,,,,,CartoonStims/burglar_shoot_cowboy_r_no.jpg,,,,,,,,,,,,,,,,,,,,,,,,,,,,,,,ピク　パツ　ルピン　ムク,right,9.085,,,,,,0,30,30,13,1,,,,,,,,,,,,,,,,,,,,,,,,,ピク　パツ　ルピン　ムク,パツ　ピク　ルピン　ムク,1
,,,,,,,,,R_3COVX1gMIUulXOc,2022-09-01_20h26.14.974,jpn_C02,2022.1.2,MacIntel,58.82352941,,,,,,,,,,,,,CartoonStims/burglar_point_chef_r_no.jpg,,,,,,,,,,,,,,,,,,,,,,,,,,,,,,,ピク　トマ　ルピン　ホレト,right,8.51,,,,,,0,31,31,7,1,,,,,,,,,,,,,,,,,,,,,,,,,ピク　トマ　ルピン　ホレト,トマ　ピク　ルピン　ホレト,1
,,,,,,,,,R_3COVX1gMIUulXOc,2022-09-01_20h26.14.974,jpn_C02,2022.1.2,MacIntel,58.82352941,,,,,,,,,,,,,CartoonStims/doctor_punch_boxer_r.jpg,,,,,,,,,,,,,,,,,,,,,,,,,,,,,,,プミ　ピポ　ドキ,right,8.198,,,,,,0,32,32,34,1,,,,,,,,,,,,,,,,,,,,,,,,,プミ　ピポ　ドキ,プミ　ピポ　ドキ,0
,,,,,,,,,R_3COVX1gMIUulXOc,2022-09-01_20h26.14.974,jpn_C02,2022.1.2,MacIntel,58.82352941,,,,,,,,,,,,,CartoonStims/cowboy_kick_chef_r_no.jpg,,,,,,,,,,,,,,,,,,,,,,,,,,,,,,,ピク　セル　ムク　ホレト,right,9.734,,,,,,0,33,33,3,1,,,,,,,,,,,,,,,,,,,,,,,,,ピク　セル　ムク　ホレト,セル　ピク　ムク　ホレト,1
,,,,,,,,,R_3COVX1gMIUulXOc,2022-09-01_20h26.14.974,jpn_C02,2022.1.2,MacIntel,58.82352941,,,,,,,,,,,,,CartoonStims/doctor_shoot_artist_r_no.jpg,,,,,,,,,,,,,,,,,,,,,,,,,,,,,,,ピク　パツ　ピポ　ムク,right,9.205,,,,,,0,34,34,16,1,,,,,,,,,,,,,,,,,,,,,,,,,ピク　パツ　ピポ　シド,パツ　ピク　ピポ　シド,1
,,,,,,,,,R_3COVX1gMIUulXOc,2022-09-01_20h26.14.974,jpn_C02,2022.1.2,MacIntel,58.82352941,,,,,,,,,,,,,CartoonStims/chef_point_burglar_r.jpg,,,,,,,,,,,,,,,,,,,,,,,,,,,,,,,トマ　ホレト　ルピン,right,6.351,,,,,,0,35,35,29,1,,,,,,,,,,,,,,,,,,,,,,,,,トマ　ホレト　ルピン,トマ　ホレト　ルピン,0
,,,,,,,,,R_3COVX1gMIUulXOc,2022-09-01_20h26.14.974,jpn_C02,2022.1.2,MacIntel,58.82352941,,,,,,,,,,,,,,,,,,,,,,,,,,,,,,,,,,,,,,,,,,,,,,,,,,,,,,,,,,,space,1.403,0,2,2,2,1,NegVCondition.xlsx,"ここではこの言語における否定の文を学習していただきます。引き続き注意して、 聞こえた音を復唱してください。

スペースキーを押してください。",1,NegVFCT.xlsx,ここからクイズが始まります。 スクリーンに表示されるテキストに合うイメージを選んでください。,NegTest.xlsx,1,最後にここまで学んだことをアウトプットしていただきます。 テキストボックスにあるイメージを描写するテキストを入力してください。 このタスクでは、 答え合わせは行いません。,0,これですべての実験が終わりました。 お疲れさまです。 この後はアンケートに答えていただきます。,,,,,,,,