key_resp_instr_a.keys,key_resp_instr_a.rt,key_resp_instr_b.keys,key_resp_instr_b.rt,dummy.thisRepN,dummy.thisTrialN,dummy.thisN,dummy.thisIndex,dummy.ran,participant,date,expName,psychopyVersion,OS,frameRate,key_resp_instr1.keys,key_resp_instr1.rt,key_resp.keys,key_resp.rt,exp_loop.thisRepN,exp_loop.thisTrialN,exp_loop.thisN,exp_loop.thisIndex,exp_loop.ran,Word,English,Flip,Path,Audio,key_resp_instr2.keys,key_resp_instr2.rt,key_resp_fct.keys,key_resp_fct.corr,key_resp_fct.rt,trials_2.thisRepN,trials_2.thisTrialN,trials_2.thisN,trials_2.thisIndex,trials_2.ran,fct_loop.thisRepN,fct_loop.thisTrialN,fct_loop.thisN,fct_loop.thisIndex,fct_loop.ran,left_img,word,right_img,correctans,correct_img,audio,incorrect_feedback,trials.thisRepN,trials.thisTrialN,trials.thisN,trials.thisIndex,trials.ran,key_resp_instr3.keys,key_resp_instr3.rt,textbox.text,key_resp_2.keys,key_resp_2.rt,fb_yn.thisRepN,fb_yn.thisTrialN,fb_yn.thisN,fb_yn.thisIndex,fb_yn.ran,gather_loop.thisRepN,gather_loop.thisTrialN,gather_loop.thisN,gather_loop.thisIndex,gather_loop.ran,Text,Wordbank,key_resp_instr4.keys,key_resp_instr4.rt,master_loop.thisRepN,master_loop.thisTrialN,master_loop.thisN,master_loop.thisIndex,master_loop.ran,exposure_file,instr_1,exp_reps,fct_file,instr_2,gather_file,gather_reps,instr_3,fReps,instr_4,trials_3.thisRepN,trials_3.thisTrialN,trials_3.thisN,trials_3.thisIndex,trials_3.ran,trials_4.thisRepN,trials_4.thisTrialN,trials_4.thisN,trials_4.thisIndex,trials_4.ran,NegVSentence,VNegSentence,NegTF
space,2.615,space,10.1053,0,0,0,0,1,R_2qqu8cm1WbYxBch,2022-09-03_15h01.45.928,jpn_C03,2022.1.2,Win32,61.74364041,,,,,,,,,,,,,,,,,,,,,,,,,,,,,,,,,,,,,,,,,,,,,,,,,,,,,,,,,,,,,,,,,,,,,,,,,,,,,,,,,,,,,,,,
,,,,,,,,,R_2qqu8cm1WbYxBch,2022-09-03_15h01.45.928,jpn_C03,2022.1.2,Win32,61.74364041,space,7.7433,space,4.4261,0,0,0,2,1,ホレト,chef,,CartoonStims/chef_r.jpg,audio/horeto.mp3,,,,,,,,,,,,,,,,,,,,,,,,,,,,,,,,,,,,,,,,,,,,,,,,,,,,,,,,,,,,,,,,,,,,,,,,,,
,,,,,,,,,R_2qqu8cm1WbYxBch,2022-09-03_15h01.45.928,jpn_C03,2022.1.2,Win32,61.74364041,,,space,2.1135,0,1,1,5,1,ドキ,boxer,,CartoonStims/boxer_r.jpg,audio/doki.mp3,,,,,,,,,,,,,,,,,,,,,,,,,,,,,,,,,,,,,,,,,,,,,,,,,,,,,,,,,,,,,,,,,,,,,,,,,,
,,,,,,,,,R_2qqu8cm1WbYxBch,2022-09-03_15h01.45.928,jpn_C03,2022.1.2,Win32,61.74364041,,,space,1.5068,0,2,2,3,1,ムク,cowboy,,CartoonStims/cowboy_r.jpg,audio/muku.mp3,,,,,,,,,,,,,,,,,,,,,,,,,,,,,,,,,,,,,,,,,,,,,,,,,,,,,,,,,,,,,,,,,,,,,,,,,,
,,,,,,,,,R_2qqu8cm1WbYxBch,2022-09-03_15h01.45.928,jpn_C03,2022.1.2,Win32,61.74364041,,,space,1.6736,0,3,3,0,1,シド,artist,,CartoonStims/artist_r.jpg,audio/sido.mp3,,,,,,,,,,,,,,,,,,,,,,,,,,,,,,,,,,,,,,,,,,,,,,,,,,,,,,,,,,,,,,,,,,,,,,,,,,
,,,,,,,,,R_2qqu8cm1WbYxBch,2022-09-03_15h01.45.928,jpn_C03,2022.1.2,Win32,61.74364041,,,space,1.7654,0,4,4,4,1,ピポ,doctor,,CartoonStims/doctor_r.jpg,audio/pipo.mp3,,,,,,,,,,,,,,,,,,,,,,,,,,,,,,,,,,,,,,,,,,,,,,,,,,,,,,,,,,,,,,,,,,,,,,,,,,
,,,,,,,,,R_2qqu8cm1WbYxBch,2022-09-03_15h01.45.928,jpn_C03,2022.1.2,Win32,61.74364041,,,space,2.4157,0,5,5,1,1,ルピン,burglar,,CartoonStims/burglar_r.jpg,audio/lupin.mp3,,,,,,,,,,,,,,,,,,,,,,,,,,,,,,,,,,,,,,,,,,,,,,,,,,,,,,,,,,,,,,,,,,,,,,,,,,
,,,,,,,,,R_2qqu8cm1WbYxBch,2022-09-03_15h01.45.928,jpn_C03,2022.1.2,Win32,61.74364041,,,space,1.8298,1,0,6,3,1,ムク,cowboy,,CartoonStims/cowboy_r.jpg,audio/muku.mp3,,,,,,,,,,,,,,,,,,,,,,,,,,,,,,,,,,,,,,,,,,,,,,,,,,,,,,,,,,,,,,,,,,,,,,,,,,
,,,,,,,,,R_2qqu8cm1WbYxBch,2022-09-03_15h01.45.928,jpn_C03,2022.1.2,Win32,61.74364041,,,space,1.5485,1,1,7,1,1,ルピン,burglar,,CartoonStims/burglar_r.jpg,audio/lupin.mp3,,,,,,,,,,,,,,,,,,,,,,,,,,,,,,,,,,,,,,,,,,,,,,,,,,,,,,,,,,,,,,,,,,,,,,,,,,
,,,,,,,,,R_2qqu8cm1WbYxBch,2022-09-03_15h01.45.928,jpn_C03,2022.1.2,Win32,61.74364041,,,space,1.3585,1,2,8,0,1,シド,artist,,CartoonStims/artist_r.jpg,audio/sido.mp3,,,,,,,,,,,,,,,,,,,,,,,,,,,,,,,,,,,,,,,,,,,,,,,,,,,,,,,,,,,,,,,,,,,,,,,,,,
,,,,,,,,,R_2qqu8cm1WbYxBch,2022-09-03_15h01.45.928,jpn_C03,2022.1.2,Win32,61.74364041,,,space,1.3,1,3,9,2,1,ホレト,chef,,CartoonStims/chef_r.jpg,audio/horeto.mp3,,,,,,,,,,,,,,,,,,,,,,,,,,,,,,,,,,,,,,,,,,,,,,,,,,,,,,,,,,,,,,,,,,,,,,,,,,
,,,,,,,,,R_2qqu8cm1WbYxBch,2022-09-03_15h01.45.928,jpn_C03,2022.1.2,Win32,61.74364041,,,space,1.0651,1,4,10,5,1,ドキ,boxer,,CartoonStims/boxer_r.jpg,audio/doki.mp3,,,,,,,,,,,,,,,,,,,,,,,,,,,,,,,,,,,,,,,,,,,,,,,,,,,,,,,,,,,,,,,,,,,,,,,,,,
,,,,,,,,,R_2qqu8cm1WbYxBch,2022-09-03_15h01.45.928,jpn_C03,2022.1.2,Win32,61.74364041,,,space,1.0321,1,5,11,4,1,ピポ,doctor,,CartoonStims/doctor_r.jpg,audio/pipo.mp3,,,,,,,,,,,,,,,,,,,,,,,,,,,,,,,,,,,,,,,,,,,,,,,,,,,,,,,,,,,,,,,,,,,,,,,,,,
,,,,,,,,,R_2qqu8cm1WbYxBch,2022-09-03_15h01.45.928,jpn_C03,2022.1.2,Win32,61.74364041,,,space,1.1872,2,0,12,4,1,ピポ,doctor,,CartoonStims/doctor_r.jpg,audio/pipo.mp3,,,,,,,,,,,,,,,,,,,,,,,,,,,,,,,,,,,,,,,,,,,,,,,,,,,,,,,,,,,,,,,,,,,,,,,,,,
,,,,,,,,,R_2qqu8cm1WbYxBch,2022-09-03_15h01.45.928,jpn_C03,2022.1.2,Win32,61.74364041,,,space,1,2,1,13,2,1,ホレト,chef,,CartoonStims/chef_r.jpg,audio/horeto.mp3,,,,,,,,,,,,,,,,,,,,,,,,,,,,,,,,,,,,,,,,,,,,,,,,,,,,,,,,,,,,,,,,,,,,,,,,,,
,,,,,,,,,R_2qqu8cm1WbYxBch,2022-09-03_15h01.45.928,jpn_C03,2022.1.2,Win32,61.74364041,,,space,0.9688,2,2,14,1,1,ルピン,burglar,,CartoonStims/burglar_r.jpg,audio/lupin.mp3,,,,,,,,,,,,,,,,,,,,,,,,,,,,,,,,,,,,,,,,,,,,,,,,,,,,,,,,,,,,,,,,,,,,,,,,,,
,,,,,,,,,R_2qqu8cm1WbYxBch,2022-09-03_15h01.45.928,jpn_C03,2022.1.2,Win32,61.74364041,,,space,0.9988,2,3,15,0,1,シド,artist,,CartoonStims/artist_r.jpg,audio/sido.mp3,,,,,,,,,,,,,,,,,,,,,,,,,,,,,,,,,,,,,,,,,,,,,,,,,,,,,,,,,,,,,,,,,,,,,,,,,,
,,,,,,,,,R_2qqu8cm1WbYxBch,2022-09-03_15h01.45.928,jpn_C03,2022.1.2,Win32,61.74364041,,,space,0.965,2,4,16,3,1,ムク,cowboy,,CartoonStims/cowboy_r.jpg,audio/muku.mp3,,,,,,,,,,,,,,,,,,,,,,,,,,,,,,,,,,,,,,,,,,,,,,,,,,,,,,,,,,,,,,,,,,,,,,,,,,
,,,,,,,,,R_2qqu8cm1WbYxBch,2022-09-03_15h01.45.928,jpn_C03,2022.1.2,Win32,61.74364041,,,space,0.9509,2,5,17,5,1,ドキ,boxer,,CartoonStims/boxer_r.jpg,audio/doki.mp3,,,,,,,,,,,,,,,,,,,,,,,,,,,,,,,,,,,,,,,,,,,,,,,,,,,,,,,,,,,,,,,,,,,,,,,,,,
,,,,,,,,,R_2qqu8cm1WbYxBch,2022-09-03_15h01.45.928,jpn_C03,2022.1.2,Win32,61.74364041,,,,,,,,,,,,,,,space,1.7812,right,1,0.7604,0,0,0,0,1,,,,,,,,,,,,,,,,,,,,,,,,,,,,,,,,,,,,,,,,,,,,,,,,,,,,,,,,,,,,,,,,
,,,,,,,,,R_2qqu8cm1WbYxBch,2022-09-03_15h01.45.928,jpn_C03,2022.1.2,Win32,61.74364041,,,,,,,,,,,,,,,,,,,,,,,,,0,0,0,11,1,CartoonStims/burglar_r.jpg,ドキ,CartoonStims/boxer_r.jpg,right,CartoonStims/boxer_r.jpg,audio/doki.mp3,残念！ こちらが正しい画像です。,,,,,,,,,,,,,,,,,,,,,,,,,,,,,,,,,,,,,,,,,,,,,,,,,,,,
,,,,,,,,,R_2qqu8cm1WbYxBch,2022-09-03_15h01.45.928,jpn_C03,2022.1.2,Win32,61.74364041,,,,,,,,,,,,,,,,,right,1,0.8565,0,0,0,0,1,,,,,,,,,,,,,,,,,,,,,,,,,,,,,,,,,,,,,,,,,,,,,,,,,,,,,,,,,,,,,,,,
,,,,,,,,,R_2qqu8cm1WbYxBch,2022-09-03_15h01.45.928,jpn_C03,2022.1.2,Win32,61.74364041,,,,,,,,,,,,,,,,,,,,,,,,,0,1,1,8,1,CartoonStims/doctor_r.jpg,ホレト,CartoonStims/chef_r.jpg,right,CartoonStims/chef_r.jpg,audio/horeto.mp3,残念！ こちらが正しい画像です。,,,,,,,,,,,,,,,,,,,,,,,,,,,,,,,,,,,,,,,,,,,,,,,,,,,,
,,,,,,,,,R_2qqu8cm1WbYxBch,2022-09-03_15h01.45.928,jpn_C03,2022.1.2,Win32,61.74364041,,,,,,,,,,,,,,,,,left,1,0.3662,,,,,,,,,,,,,,,,,,0,0,0,0,1,,,,,,,,,,,,,,,,,,,,,,,,,,,,,,,,,,,,,,,,,,,,,,,
,,,,,,,,,R_2qqu8cm1WbYxBch,2022-09-03_15h01.45.928,jpn_C03,2022.1.2,Win32,61.74364041,,,,,,,,,,,,,,,,,,,,,,,,,0,2,2,5,1,CartoonStims/boxer_r.jpg,ドキ,CartoonStims/artist_r.jpg,left,CartoonStims/boxer_r.jpg,audio/doki.mp3,残念！ こちらが正しい画像です。,,,,,,,,,,,,,,,,,,,,,,,,,,,,,,,,,,,,,,,,,,,,,,,,,,,,
,,,,,,,,,R_2qqu8cm1WbYxBch,2022-09-03_15h01.45.928,jpn_C03,2022.1.2,Win32,61.74364041,,,,,,,,,,,,,,,,,left,1,0.5494,,,,,,,,,,,,,,,,,,0,0,0,0,1,,,,,,,,,,,,,,,,,,,,,,,,,,,,,,,,,,,,,,,,,,,,,,,
,,,,,,,,,R_2qqu8cm1WbYxBch,2022-09-03_15h01.45.928,jpn_C03,2022.1.2,Win32,61.74364041,,,,,,,,,,,,,,,,,,,,,,,,,0,3,3,4,1,CartoonStims/doctor_r.jpg,ピポ,CartoonStims/boxer_r.jpg,left,CartoonStims/doctor_r.jpg,audio/pipo.mp3,残念！ こちらが正しい画像です。,,,,,,,,,,,,,,,,,,,,,,,,,,,,,,,,,,,,,,,,,,,,,,,,,,,,
,,,,,,,,,R_2qqu8cm1WbYxBch,2022-09-03_15h01.45.928,jpn_C03,2022.1.2,Win32,61.74364041,,,,,,,,,,,,,,,,,right,1,0.7834,0,0,0,0,1,,,,,,,,,,,,,,,,,,,,,,,,,,,,,,,,,,,,,,,,,,,,,,,,,,,,,,,,,,,,,,,,
,,,,,,,,,R_2qqu8cm1WbYxBch,2022-09-03_15h01.45.928,jpn_C03,2022.1.2,Win32,61.74364041,,,,,,,,,,,,,,,,,,,,,,,,,0,4,4,6,1,CartoonStims/chef_r.jpg,シド,CartoonStims/artist_r.jpg,right,CartoonStims/artist_r.jpg,audio/sido.mp3,残念！ こちらが正しい画像です。,,,,,,,,,,,,,,,,,,,,,,,,,,,,,,,,,,,,,,,,,,,,,,,,,,,,
,,,,,,,,,R_2qqu8cm1WbYxBch,2022-09-03_15h01.45.928,jpn_C03,2022.1.2,Win32,61.74364041,,,,,,,,,,,,,,,,,right,1,1.0324,0,0,0,0,1,,,,,,,,,,,,,,,,,,,,,,,,,,,,,,,,,,,,,,,,,,,,,,,,,,,,,,,,,,,,,,,,
,,,,,,,,,R_2qqu8cm1WbYxBch,2022-09-03_15h01.45.928,jpn_C03,2022.1.2,Win32,61.74364041,,,,,,,,,,,,,,,,,,,,,,,,,0,5,5,9,1,CartoonStims/boxer_r.jpg,ムク,CartoonStims/cowboy_r.jpg,right,CartoonStims/cowboy_r.jpg,audio/muku.mp3,残念！ こちらが正しい画像です。,,,,,,,,,,,,,,,,,,,,,,,,,,,,,,,,,,,,,,,,,,,,,,,,,,,,
,,,,,,,,,R_2qqu8cm1WbYxBch,2022-09-03_15h01.45.928,jpn_C03,2022.1.2,Win32,61.74364041,,,,,,,,,,,,,,,,,left,1,1.1252,,,,,,,,,,,,,,,,,,0,0,0,0,1,,,,,,,,,,,,,,,,,,,,,,,,,,,,,,,,,,,,,,,,,,,,,,,
,,,,,,,,,R_2qqu8cm1WbYxBch,2022-09-03_15h01.45.928,jpn_C03,2022.1.2,Win32,61.74364041,,,,,,,,,,,,,,,,,,,,,,,,,0,6,6,0,1,CartoonStims/artist_r.jpg,シド,CartoonStims/burglar_r.jpg,left,CartoonStims/artist_r.jpg,audio/sido.mp3,残念！ こちらが正しい画像です。,,,,,,,,,,,,,,,,,,,,,,,,,,,,,,,,,,,,,,,,,,,,,,,,,,,,
,,,,,,,,,R_2qqu8cm1WbYxBch,2022-09-03_15h01.45.928,jpn_C03,2022.1.2,Win32,61.74364041,,,,,,,,,,,,,,,,,left,1,1.0156,,,,,,,,,,,,,,,,,,0,0,0,0,1,,,,,,,,,,,,,,,,,,,,,,,,,,,,,,,,,,,,,,,,,,,,,,,
,,,,,,,,,R_2qqu8cm1WbYxBch,2022-09-03_15h01.45.928,jpn_C03,2022.1.2,Win32,61.74364041,,,,,,,,,,,,,,,,,,,,,,,,,0,7,7,3,1,CartoonStims/cowboy_r.jpg,ムク,CartoonStims/doctor_r.jpg,left,CartoonStims/cowboy_r.jpg,audio/muku.mp3,残念！ こちらが正しい画像です。,,,,,,,,,,,,,,,,,,,,,,,,,,,,,,,,,,,,,,,,,,,,,,,,,,,,
,,,,,,,,,R_2qqu8cm1WbYxBch,2022-09-03_15h01.45.928,jpn_C03,2022.1.2,Win32,61.74364041,,,,,,,,,,,,,,,,,right,1,1.4482,0,0,0,0,1,,,,,,,,,,,,,,,,,,,,,,,,,,,,,,,,,,,,,,,,,,,,,,,,,,,,,,,,,,,,,,,,
,,,,,,,,,R_2qqu8cm1WbYxBch,2022-09-03_15h01.45.928,jpn_C03,2022.1.2,Win32,61.74364041,,,,,,,,,,,,,,,,,,,,,,,,,0,8,8,10,1,CartoonStims/artist_r.jpg,ピポ,CartoonStims/doctor_r.jpg,right,CartoonStims/doctor_r.jpg,audio/pipo.mp3,残念！ こちらが正しい画像です。,,,,,,,,,,,,,,,,,,,,,,,,,,,,,,,,,,,,,,,,,,,,,,,,,,,,
,,,,,,,,,R_2qqu8cm1WbYxBch,2022-09-03_15h01.45.928,jpn_C03,2022.1.2,Win32,61.74364041,,,,,,,,,,,,,,,,,right,1,0.4756,0,0,0,0,1,,,,,,,,,,,,,,,,,,,,,,,,,,,,,,,,,,,,,,,,,,,,,,,,,,,,,,,,,,,,,,,,
,,,,,,,,,R_2qqu8cm1WbYxBch,2022-09-03_15h01.45.928,jpn_C03,2022.1.2,Win32,61.74364041,,,,,,,,,,,,,,,,,,,,,,,,,0,9,9,7,1,CartoonStims/cowboy_r.jpg,ルピン,CartoonStims/burglar_r.jpg,right,CartoonStims/burglar_r.jpg,audio/lupin.mp3,残念！ こちらが正しい画像です。,,,,,,,,,,,,,,,,,,,,,,,,,,,,,,,,,,,,,,,,,,,,,,,,,,,,
,,,,,,,,,R_2qqu8cm1WbYxBch,2022-09-03_15h01.45.928,jpn_C03,2022.1.2,Win32,61.74364041,,,,,,,,,,,,,,,,,left,1,1.6303,,,,,,,,,,,,,,,,,,0,0,0,0,1,,,,,,,,,,,,,,,,,,,,,,,,,,,,,,,,,,,,,,,,,,,,,,,
,,,,,,,,,R_2qqu8cm1WbYxBch,2022-09-03_15h01.45.928,jpn_C03,2022.1.2,Win32,61.74364041,,,,,,,,,,,,,,,,,,,,,,,,,0,10,10,2,1,CartoonStims/chef_r.jpg,ホレト,CartoonStims/cowboy_r.jpg,left,CartoonStims/chef_r.jpg,audio/horeto.mp3,残念！ こちらが正しい画像です。,,,,,,,,,,,,,,,,,,,,,,,,,,,,,,,,,,,,,,,,,,,,,,,,,,,,
,,,,,,,,,R_2qqu8cm1WbYxBch,2022-09-03_15h01.45.928,jpn_C03,2022.1.2,Win32,61.74364041,,,,,,,,,,,,,,,,,left,1,0.4901,,,,,,,,,,,,,,,,,,0,0,0,0,1,,,,,,,,,,,,,,,,,,,,,,,,,,,,,,,,,,,,,,,,,,,,,,,
,,,,,,,,,R_2qqu8cm1WbYxBch,2022-09-03_15h01.45.928,jpn_C03,2022.1.2,Win32,61.74364041,,,,,,,,,,,,,,,,,,,,,,,,,0,11,11,1,1,CartoonStims/burglar_r.jpg,ルピン,CartoonStims/chef_r.jpg,left,CartoonStims/burglar_r.jpg,audio/lupin.mp3,残念！ こちらが正しい画像です。,,,,,,,,,,,,,,,,,,,,,,,,,,,,,,,,,,,,,,,,,,,,,,,,,,,,
,,,,,,,,,R_2qqu8cm1WbYxBch,2022-09-03_15h01.45.928,jpn_C03,2022.1.2,Win32,61.74364041,,,,,,,,,,,,,,,,,,,,,,,,,,,,,,,,,,,,,,,,,,space,3.0117,ルピン,right,4.8996,0,0,0,0,1,,,,,,,,,,,,,,,,,,,,,,,,,,,,,,,,,,,,,
,,,,,,,,,R_2qqu8cm1WbYxBch,2022-09-03_15h01.45.928,jpn_C03,2022.1.2,Win32,61.74364041,,,,,,,,,,,,,CartoonStims/burglar_r.jpg,audio/lupin.mp3,,,,,,,,,,,,,,,,,,,,,,,,,,,,,,,,,,,,,,0,0,0,1,1,ルピン,,,,,,,,,,,,,,,,,,,,,,,,,,,,,,,
,,,,,,,,,R_2qqu8cm1WbYxBch,2022-09-03_15h01.45.928,jpn_C03,2022.1.2,Win32,61.74364041,,,,,,,,,,,,,,,,,,,,,,,,,,,,,,,,,,,,,,,,,,,,シド,right,3.6496,0,0,0,0,1,,,,,,,,,,,,,,,,,,,,,,,,,,,,,,,,,,,,,
,,,,,,,,,R_2qqu8cm1WbYxBch,2022-09-03_15h01.45.928,jpn_C03,2022.1.2,Win32,61.74364041,,,,,,,,,,,,,CartoonStims/doctor_r.jpg,audio/pipo.mp3,,,,,,,,,,,,,,,,,,,,,,,,,,,,,,,,,,,,,,0,1,1,4,1,ピポ,,,,,,,,,,,,,,,,,,,,,,,,,,,,,,,
,,,,,,,,,R_2qqu8cm1WbYxBch,2022-09-03_15h01.45.928,jpn_C03,2022.1.2,Win32,61.74364041,,,,,,,,,,,,,,,,,,,,,,,,,,,,,,,,,,,,,,,,,,,,ホレト,right,5.2926,0,0,0,0,1,,,,,,,,,,,,,,,,,,,,,,,,,,,,,,,,,,,,,
,,,,,,,,,R_2qqu8cm1WbYxBch,2022-09-03_15h01.45.928,jpn_C03,2022.1.2,Win32,61.74364041,,,,,,,,,,,,,CartoonStims/chef_r.jpg,audio/horeto.mp3,,,,,,,,,,,,,,,,,,,,,,,,,,,,,,,,,,,,,,0,2,2,2,1,ホレト,,,,,,,,,,,,,,,,,,,,,,,,,,,,,,,
,,,,,,,,,R_2qqu8cm1WbYxBch,2022-09-03_15h01.45.928,jpn_C03,2022.1.2,Win32,61.74364041,,,,,,,,,,,,,,,,,,,,,,,,,,,,,,,,,,,,,,,,,,,,シド,right,2.9083,0,0,0,0,1,,,,,,,,,,,,,,,,,,,,,,,,,,,,,,,,,,,,,
,,,,,,,,,R_2qqu8cm1WbYxBch,2022-09-03_15h01.45.928,jpn_C03,2022.1.2,Win32,61.74364041,,,,,,,,,,,,,CartoonStims/cowboy_r.jpg,audio/muku.mp3,,,,,,,,,,,,,,,,,,,,,,,,,,,,,,,,,,,,,,0,3,3,3,1,ムク,,,,,,,,,,,,,,,,,,,,,,,,,,,,,,,
,,,,,,,,,R_2qqu8cm1WbYxBch,2022-09-03_15h01.45.928,jpn_C03,2022.1.2,Win32,61.74364041,,,,,,,,,,,,,,,,,,,,,,,,,,,,,,,,,,,,,,,,,,,,シド,right,1.957,0,0,0,0,1,,,,,,,,,,,,,,,,,,,,,,,,,,,,,,,,,,,,,
,,,,,,,,,R_2qqu8cm1WbYxBch,2022-09-03_15h01.45.928,jpn_C03,2022.1.2,Win32,61.74364041,,,,,,,,,,,,,CartoonStims/artist_r.jpg,audio/sido.mp3,,,,,,,,,,,,,,,,,,,,,,,,,,,,,,,,,,,,,,0,4,4,0,1,シド,,,,,,,,,,,,,,,,,,,,,,,,,,,,,,,
,,,,,,,,,R_2qqu8cm1WbYxBch,2022-09-03_15h01.45.928,jpn_C03,2022.1.2,Win32,61.74364041,,,,,,,,,,,,,,,,,,,,,,,,,,,,,,,,,,,,,,,,,,,,ドキ,right,4.0274,0,0,0,0,1,,,,,,,,,,,,,,,,,,,,,,,,,,,,,,,,,,,,,
,,,,,,,,,R_2qqu8cm1WbYxBch,2022-09-03_15h01.45.928,jpn_C03,2022.1.2,Win32,61.74364041,,,,,,,,,,,,,CartoonStims/boxer_r.jpg,audio/doki.mp3,,,,,,,,,,,,,,,,,,,,,,,,,,,,,,,,,,,,,,0,5,5,5,1,ドキ,,,,,,,,,,,,,,,,,,,,,,,,,,,,,,,
,,,,,,,,,R_2qqu8cm1WbYxBch,2022-09-03_15h01.45.928,jpn_C03,2022.1.2,Win32,61.74364041,,,,,,,,,,,,,,,,,,,,,,,,,,,,,,,,,,,,,,,,,,,,ピポ,right,4.9051,0,0,0,0,1,,,,,,,,,,,,,,,,,,,,,,,,,,,,,,,,,,,,,
,,,,,,,,,R_2qqu8cm1WbYxBch,2022-09-03_15h01.45.928,jpn_C03,2022.1.2,Win32,61.74364041,,,,,,,,,,,,,CartoonStims/doctor_r.jpg,audio/pipo.mp3,,,,,,,,,,,,,,,,,,,,,,,,,,,,,,,,,,,,,,1,0,6,4,1,ピポ,,,,,,,,,,,,,,,,,,,,,,,,,,,,,,,
,,,,,,,,,R_2qqu8cm1WbYxBch,2022-09-03_15h01.45.928,jpn_C03,2022.1.2,Win32,61.74364041,,,,,,,,,,,,,,,,,,,,,,,,,,,,,,,,,,,,,,,,,,,,シド,right,3.8232,0,0,0,0,1,,,,,,,,,,,,,,,,,,,,,,,,,,,,,,,,,,,,,
,,,,,,,,,R_2qqu8cm1WbYxBch,2022-09-03_15h01.45.928,jpn_C03,2022.1.2,Win32,61.74364041,,,,,,,,,,,,,CartoonStims/artist_r.jpg,audio/sido.mp3,,,,,,,,,,,,,,,,,,,,,,,,,,,,,,,,,,,,,,1,1,7,0,1,シド,,,,,,,,,,,,,,,,,,,,,,,,,,,,,,,
,,,,,,,,,R_2qqu8cm1WbYxBch,2022-09-03_15h01.45.928,jpn_C03,2022.1.2,Win32,61.74364041,,,,,,,,,,,,,,,,,,,,,,,,,,,,,,,,,,,,,,,,,,,,ムク,right,4.3766,0,0,0,0,1,,,,,,,,,,,,,,,,,,,,,,,,,,,,,,,,,,,,,
,,,,,,,,,R_2qqu8cm1WbYxBch,2022-09-03_15h01.45.928,jpn_C03,2022.1.2,Win32,61.74364041,,,,,,,,,,,,,CartoonStims/cowboy_r.jpg,audio/muku.mp3,,,,,,,,,,,,,,,,,,,,,,,,,,,,,,,,,,,,,,1,2,8,3,1,ムク,,,,,,,,,,,,,,,,,,,,,,,,,,,,,,,
,,,,,,,,,R_2qqu8cm1WbYxBch,2022-09-03_15h01.45.928,jpn_C03,2022.1.2,Win32,61.74364041,,,,,,,,,,,,,,,,,,,,,,,,,,,,,,,,,,,,,,,,,,,,ドキ,right,2.5781,0,0,0,0,1,,,,,,,,,,,,,,,,,,,,,,,,,,,,,,,,,,,,,
,,,,,,,,,R_2qqu8cm1WbYxBch,2022-09-03_15h01.45.928,jpn_C03,2022.1.2,Win32,61.74364041,,,,,,,,,,,,,CartoonStims/boxer_r.jpg,audio/doki.mp3,,,,,,,,,,,,,,,,,,,,,,,,,,,,,,,,,,,,,,1,3,9,5,1,ドキ,,,,,,,,,,,,,,,,,,,,,,,,,,,,,,,
,,,,,,,,,R_2qqu8cm1WbYxBch,2022-09-03_15h01.45.928,jpn_C03,2022.1.2,Win32,61.74364041,,,,,,,,,,,,,,,,,,,,,,,,,,,,,,,,,,,,,,,,,,,,ルピン,right,4.4419,0,0,0,0,1,,,,,,,,,,,,,,,,,,,,,,,,,,,,,,,,,,,,,
,,,,,,,,,R_2qqu8cm1WbYxBch,2022-09-03_15h01.45.928,jpn_C03,2022.1.2,Win32,61.74364041,,,,,,,,,,,,,CartoonStims/burglar_r.jpg,audio/lupin.mp3,,,,,,,,,,,,,,,,,,,,,,,,,,,,,,,,,,,,,,1,4,10,1,1,ルピン,,,,,,,,,,,,,,,,,,,,,,,,,,,,,,,
,,,,,,,,,R_2qqu8cm1WbYxBch,2022-09-03_15h01.45.928,jpn_C03,2022.1.2,Win32,61.74364041,,,,,,,,,,,,,,,,,,,,,,,,,,,,,,,,,,,,,,,,,,,,ホレト,right,2.2859,0,0,0,0,1,,,,,,,,,,,,,,,,,,,,,,,,,,,,,,,,,,,,,
,,,,,,,,,R_2qqu8cm1WbYxBch,2022-09-03_15h01.45.928,jpn_C03,2022.1.2,Win32,61.74364041,,,,,,,,,,,,,CartoonStims/chef_r.jpg,audio/horeto.mp3,,,,,,,,,,,,,,,,,,,,,,,,,,,,,,,,,,,,,,1,5,11,2,1,ホレト,,,,,,,,,,,,,,,,,,,,,,,,,,,,,,,
,,,,,,,,,R_2qqu8cm1WbYxBch,2022-09-03_15h01.45.928,jpn_C03,2022.1.2,Win32,61.74364041,,,,,,,,,,,,,,,,,,,,,,,,,,,,,,,,,,,,,,,,,,,,,,,,,,,,,,,,,,,space,1.2396,0,0,0,0,1,NounExposure.xlsx,"最初のトライアルでは、 画像が表示され、 その画像の下に単語が出てきます。 またこの単語の音も聞くことができます。 この音を大きな声で復唱してください。 そしてこの画像がどのような単語を示しているのか, 考えてみてください。 その後、 続きのボタンを押すと次の単語の学習が始まります。

スペースキーを押して、学習を始めましょう。",3,NounFCT.xlsx,ここから語彙のクイズが始まります。スクリーンに表示される単語に合う画像をキーボードの右と左の矢印キーを使って選択してください。,NounTest.xlsx,2,次に、これまで学習してきたことをアウトプットしていただきます。 表示される画像を描写していると思う単語を、テキストボックスにタイプしてください。,1,"ここまでが最初のトライアルです。ここで休憩をとっても構いません。

休憩が済みましたら、スペースキーを押して続きを始めましょう。",,,,,,,,,,,,,
,,,,,,,,,R_2qqu8cm1WbYxBch,2022-09-03_15h01.45.928,jpn_C03,2022.1.2,Win32,61.74364041,space,3.45,space,4.9943,0,0,0,44,1,プミ　ピポ　ホレト,,,CartoonStims/doctor_punch_chef_r.jpg,audio/pumipipohoreto.mp3,,,,,,,,,,,,,,,,,,,,,,,,,,,,,,,,,,,,,,,,,,,,,,,,,,,,,,,,,,,,,,,,,,,,,,,,,,
,,,,,,,,,R_2qqu8cm1WbYxBch,2022-09-03_15h01.45.928,jpn_C03,2022.1.2,Win32,61.74364041,,,space,2.8124,0,1,1,47,1,プミ　ドキ　ピポ,,,CartoonStims/boxer_punch_doctor_r.jpg,audio/pumidokipipo.mp3,,,,,,,,,,,,,,,,,,,,,,,,,,,,,,,,,,,,,,,,,,,,,,,,,,,,,,,,,,,,,,,,,,,,,,,,,,
,,,,,,,,,R_2qqu8cm1WbYxBch,2022-09-03_15h01.45.928,jpn_C03,2022.1.2,Win32,61.74364041,,,space,3.0401,0,2,2,10,1,セル　ドキ　シド,,,CartoonStims/boxer_kick_artist_r.jpg,audio/serudokisido.mp3,,,,,,,,,,,,,,,,,,,,,,,,,,,,,,,,,,,,,,,,,,,,,,,,,,,,,,,,,,,,,,,,,,,,,,,,,,
,,,,,,,,,R_2qqu8cm1WbYxBch,2022-09-03_15h01.45.928,jpn_C03,2022.1.2,Win32,61.74364041,,,space,2.5232,0,3,3,7,1,セル　ムク　ドキ,,,CartoonStims/cowboy_kick_boxer_r.jpg,audio/serumukudoki.mp3,,,,,,,,,,,,,,,,,,,,,,,,,,,,,,,,,,,,,,,,,,,,,,,,,,,,,,,,,,,,,,,,,,,,,,,,,,
,,,,,,,,,R_2qqu8cm1WbYxBch,2022-09-03_15h01.45.928,jpn_C03,2022.1.2,Win32,61.74364041,,,space,2.4039,0,4,4,12,1,トマ　シド　ホレト,,,CartoonStims/artist_point_chef_r.jpg,audio/tomasidohoreto.mp3,,,,,,,,,,,,,,,,,,,,,,,,,,,,,,,,,,,,,,,,,,,,,,,,,,,,,,,,,,,,,,,,,,,,,,,,,,
,,,,,,,,,R_2qqu8cm1WbYxBch,2022-09-03_15h01.45.928,jpn_C03,2022.1.2,Win32,61.74364041,,,space,2.8462,0,5,5,41,1,プミ　ホレト　ルピン,,,CartoonStims/chef_punch_burglar_r.jpg,audio/pumihoretolupin.mp3,,,,,,,,,,,,,,,,,,,,,,,,,,,,,,,,,,,,,,,,,,,,,,,,,,,,,,,,,,,,,,,,,,,,,,,,,,
,,,,,,,,,R_2qqu8cm1WbYxBch,2022-09-03_15h01.45.928,jpn_C03,2022.1.2,Win32,61.74364041,,,space,3.1883,0,6,6,42,1,プミ　ムク　ルピン,,,CartoonStims/cowboy_punch_burglar_r.jpg,audio/pumimukulupin.mp3,,,,,,,,,,,,,,,,,,,,,,,,,,,,,,,,,,,,,,,,,,,,,,,,,,,,,,,,,,,,,,,,,,,,,,,,,,
,,,,,,,,,R_2qqu8cm1WbYxBch,2022-09-03_15h01.45.928,jpn_C03,2022.1.2,Win32,61.74364041,,,space,2.4466,0,7,7,26,1,パツ　ルピン　ピポ,,,CartoonStims/burglar_shoot_doctor_r.jpg,audio/patsulupinpipo.mp3,,,,,,,,,,,,,,,,,,,,,,,,,,,,,,,,,,,,,,,,,,,,,,,,,,,,,,,,,,,,,,,,,,,,,,,,,,
,,,,,,,,,R_2qqu8cm1WbYxBch,2022-09-03_15h01.45.928,jpn_C03,2022.1.2,Win32,61.74364041,,,space,2.9323,0,8,8,21,1,トマ　ピポ　ルピン,,,CartoonStims/doctor_point_burglar_r.jpg,audio/tomapipolupin.mp3,,,,,,,,,,,,,,,,,,,,,,,,,,,,,,,,,,,,,,,,,,,,,,,,,,,,,,,,,,,,,,,,,,,,,,,,,,
,,,,,,,,,R_2qqu8cm1WbYxBch,2022-09-03_15h01.45.928,jpn_C03,2022.1.2,Win32,61.74364041,,,space,2.2634,0,9,9,3,1,セル　ルピン　ムク,,,CartoonStims/burglar_kick_cowboy_r.jpg,audio/serulupinmuku.mp3,,,,,,,,,,,,,,,,,,,,,,,,,,,,,,,,,,,,,,,,,,,,,,,,,,,,,,,,,,,,,,,,,,,,,,,,,,
,,,,,,,,,R_2qqu8cm1WbYxBch,2022-09-03_15h01.45.928,jpn_C03,2022.1.2,Win32,61.74364041,,,space,2.3824,0,10,10,38,1,プミ　ルピン　ドキ,,,CartoonStims/burglar_punch_boxer_r.jpg,audio/pumilupindoki.mp3,,,,,,,,,,,,,,,,,,,,,,,,,,,,,,,,,,,,,,,,,,,,,,,,,,,,,,,,,,,,,,,,,,,,,,,,,,
,,,,,,,,,R_2qqu8cm1WbYxBch,2022-09-03_15h01.45.928,jpn_C03,2022.1.2,Win32,61.74364041,,,space,2.119,0,11,11,0,1,セル　シド　ルピン,,,CartoonStims/artist_kick_burglar_r.jpg,audio/serusidolupin.mp3,,,,,,,,,,,,,,,,,,,,,,,,,,,,,,,,,,,,,,,,,,,,,,,,,,,,,,,,,,,,,,,,,,,,,,,,,,
,,,,,,,,,R_2qqu8cm1WbYxBch,2022-09-03_15h01.45.928,jpn_C03,2022.1.2,Win32,61.74364041,,,space,1.8504,0,12,12,45,1,プミ　ピポ　ムク,,,CartoonStims/doctor_punch_cowboy_r.jpg,audio/pumipipomuku.mp3,,,,,,,,,,,,,,,,,,,,,,,,,,,,,,,,,,,,,,,,,,,,,,,,,,,,,,,,,,,,,,,,,,,,,,,,,,
,,,,,,,,,R_2qqu8cm1WbYxBch,2022-09-03_15h01.45.928,jpn_C03,2022.1.2,Win32,61.74364041,,,space,2.5131,0,13,13,15,1,トマ　ルピン　ピポ,,,CartoonStims/burglar_point_doctor_r.jpg,audio/tomalupinpipo.mp3,,,,,,,,,,,,,,,,,,,,,,,,,,,,,,,,,,,,,,,,,,,,,,,,,,,,,,,,,,,,,,,,,,,,,,,,,,
,,,,,,,,,R_2qqu8cm1WbYxBch,2022-09-03_15h01.45.928,jpn_C03,2022.1.2,Win32,61.74364041,,,space,2.2639,0,14,14,28,1,パツ　ホレト　ドキ,,,CartoonStims/chef_shoot_boxer_r.jpg,audio/patsuhoretodoki.mp3,,,,,,,,,,,,,,,,,,,,,,,,,,,,,,,,,,,,,,,,,,,,,,,,,,,,,,,,,,,,,,,,,,,,,,,,,,
,,,,,,,,,R_2qqu8cm1WbYxBch,2022-09-03_15h01.45.928,jpn_C03,2022.1.2,Win32,61.74364041,,,space,1.8576,0,15,15,34,1,パツ　ドキ　ホレト,,,CartoonStims/boxer_shoot_chef_r.jpg,audio/patsudokihoreto.mp3,,,,,,,,,,,,,,,,,,,,,,,,,,,,,,,,,,,,,,,,,,,,,,,,,,,,,,,,,,,,,,,,,,,,,,,,,,
,,,,,,,,,R_2qqu8cm1WbYxBch,2022-09-03_15h01.45.928,jpn_C03,2022.1.2,Win32,61.74364041,,,space,1.8641,0,16,16,40,1,プミ　ホレト　シド,,,CartoonStims/chef_punch_artist_r.jpg,audio/pumihoretosido.mp3,,,,,,,,,,,,,,,,,,,,,,,,,,,,,,,,,,,,,,,,,,,,,,,,,,,,,,,,,,,,,,,,,,,,,,,,,,
,,,,,,,,,R_2qqu8cm1WbYxBch,2022-09-03_15h01.45.928,jpn_C03,2022.1.2,Win32,61.74364041,,,space,2.0243,0,17,17,29,1,パツ　ホレト　シド,,,CartoonStims/chef_shoot_artist_r.jpg,audio/patsuhoretosido.mp3,,,,,,,,,,,,,,,,,,,,,,,,,,,,,,,,,,,,,,,,,,,,,,,,,,,,,,,,,,,,,,,,,,,,,,,,,,
,,,,,,,,,R_2qqu8cm1WbYxBch,2022-09-03_15h01.45.928,jpn_C03,2022.1.2,Win32,61.74364041,,,space,2.0731,0,18,18,5,1,セル　ホレト　ピポ,,,CartoonStims/chef_kick_doctor_r.jpg,audio/seruhoretopipo.mp3,,,,,,,,,,,,,,,,,,,,,,,,,,,,,,,,,,,,,,,,,,,,,,,,,,,,,,,,,,,,,,,,,,,,,,,,,,
,,,,,,,,,R_2qqu8cm1WbYxBch,2022-09-03_15h01.45.928,jpn_C03,2022.1.2,Win32,61.74364041,,,space,1.9902,0,19,19,14,1,トマ　ルピン　ムク,,,CartoonStims/burglar_point_cowboy_r.jpg,audio/tomalupinmuku.mp3,,,,,,,,,,,,,,,,,,,,,,,,,,,,,,,,,,,,,,,,,,,,,,,,,,,,,,,,,,,,,,,,,,,,,,,,,,
,,,,,,,,,R_2qqu8cm1WbYxBch,2022-09-03_15h01.45.928,jpn_C03,2022.1.2,Win32,61.74364041,,,space,1.4047,0,20,20,37,1,プミ　シド　ドキ,,,CartoonStims/artist_punch_boxer_r.jpg,audio/pumisidodoki.mp3,,,,,,,,,,,,,,,,,,,,,,,,,,,,,,,,,,,,,,,,,,,,,,,,,,,,,,,,,,,,,,,,,,,,,,,,,,
,,,,,,,,,R_2qqu8cm1WbYxBch,2022-09-03_15h01.45.928,jpn_C03,2022.1.2,Win32,61.74364041,,,space,2.0696,0,21,21,24,1,パツ　シド　ムク,,,CartoonStims/artist_shoot_cowboy_r.jpg,audio/patsusidomuku.mp3,,,,,,,,,,,,,,,,,,,,,,,,,,,,,,,,,,,,,,,,,,,,,,,,,,,,,,,,,,,,,,,,,,,,,,,,,,
,,,,,,,,,R_2qqu8cm1WbYxBch,2022-09-03_15h01.45.928,jpn_C03,2022.1.2,Win32,61.74364041,,,space,1.7864,0,22,22,19,1,トマ　ムク　シド,,,CartoonStims/cowboy_point_artist_r.jpg,audio/tomamukusido.mp3,,,,,,,,,,,,,,,,,,,,,,,,,,,,,,,,,,,,,,,,,,,,,,,,,,,,,,,,,,,,,,,,,,,,,,,,,,
,,,,,,,,,R_2qqu8cm1WbYxBch,2022-09-03_15h01.45.928,jpn_C03,2022.1.2,Win32,61.74364041,,,space,1.9232,0,23,23,4,1,セル　ホレト　ムク,,,CartoonStims/chef_kick_cowboy_r.jpg,audio/seruhoretomuku.mp3,,,,,,,,,,,,,,,,,,,,,,,,,,,,,,,,,,,,,,,,,,,,,,,,,,,,,,,,,,,,,,,,,,,,,,,,,,
,,,,,,,,,R_2qqu8cm1WbYxBch,2022-09-03_15h01.45.928,jpn_C03,2022.1.2,Win32,61.74364041,,,space,1.7472,0,24,24,35,1,パツ　ドキ　ムク,,,CartoonStims/boxer_shoot_cowboy_r.jpg,audio/patsudokimuku.mp3,,,,,,,,,,,,,,,,,,,,,,,,,,,,,,,,,,,,,,,,,,,,,,,,,,,,,,,,,,,,,,,,,,,,,,,,,,
,,,,,,,,,R_2qqu8cm1WbYxBch,2022-09-03_15h01.45.928,jpn_C03,2022.1.2,Win32,61.74364041,,,space,2.1799,0,25,25,20,1,トマ　ピポ　シド,,,CartoonStims/doctor_point_artist_r.jpg,audio/tomapiposido.mp3,,,,,,,,,,,,,,,,,,,,,,,,,,,,,,,,,,,,,,,,,,,,,,,,,,,,,,,,,,,,,,,,,,,,,,,,,,
,,,,,,,,,R_2qqu8cm1WbYxBch,2022-09-03_15h01.45.928,jpn_C03,2022.1.2,Win32,61.74364041,,,space,2.2037,0,26,26,32,1,パツ　ピポ　ルピン,,,CartoonStims/doctor_shoot_burglar_r.jpg,audio/patsupipolupin.mp3,,,,,,,,,,,,,,,,,,,,,,,,,,,,,,,,,,,,,,,,,,,,,,,,,,,,,,,,,,,,,,,,,,,,,,,,,,
,,,,,,,,,R_2qqu8cm1WbYxBch,2022-09-03_15h01.45.928,jpn_C03,2022.1.2,Win32,61.74364041,,,space,1.8367,0,27,27,17,1,トマ　ホレト　ドキ,,,CartoonStims/chef_point_boxer_r.jpg,audio/tomahoretodoki.mp3,,,,,,,,,,,,,,,,,,,,,,,,,,,,,,,,,,,,,,,,,,,,,,,,,,,,,,,,,,,,,,,,,,,,,,,,,,
,,,,,,,,,R_2qqu8cm1WbYxBch,2022-09-03_15h01.45.928,jpn_C03,2022.1.2,Win32,61.74364041,,,space,2.497,0,28,28,11,1,セル　ドキ　ルピン,,,CartoonStims/boxer_kick_burglar_r.jpg,audio/serudokilupin.mp3,,,,,,,,,,,,,,,,,,,,,,,,,,,,,,,,,,,,,,,,,,,,,,,,,,,,,,,,,,,,,,,,,,,,,,,,,,
,,,,,,,,,R_2qqu8cm1WbYxBch,2022-09-03_15h01.45.928,jpn_C03,2022.1.2,Win32,61.74364041,,,space,3.0129,0,29,29,31,1,パツ　ムク　ルピン,,,CartoonStims/cowboy_shoot_burglar_r.jpg,audio/patsumukulupin.mp3,,,,,,,,,,,,,,,,,,,,,,,,,,,,,,,,,,,,,,,,,,,,,,,,,,,,,,,,,,,,,,,,,,,,,,,,,,
,,,,,,,,,R_2qqu8cm1WbYxBch,2022-09-03_15h01.45.928,jpn_C03,2022.1.2,Win32,61.74364041,,,space,1.9544,0,30,30,39,1,プミ　ルピン　シド,,,CartoonStims/burglar_punch_artist_r.jpg,audio/pumilupinsido.mp3,,,,,,,,,,,,,,,,,,,,,,,,,,,,,,,,,,,,,,,,,,,,,,,,,,,,,,,,,,,,,,,,,,,,,,,,,,
,,,,,,,,,R_2qqu8cm1WbYxBch,2022-09-03_15h01.45.928,jpn_C03,2022.1.2,Win32,61.74364041,,,space,2.3133,0,31,31,43,1,プミ　ムク　ホレト,,,CartoonStims/cowboy_punch_chef_r.jpg,audio/pumimukuhoreto.mp3,,,,,,,,,,,,,,,,,,,,,,,,,,,,,,,,,,,,,,,,,,,,,,,,,,,,,,,,,,,,,,,,,,,,,,,,,,
,,,,,,,,,R_2qqu8cm1WbYxBch,2022-09-03_15h01.45.928,jpn_C03,2022.1.2,Win32,61.74364041,,,space,2.3969,0,32,32,2,1,セル 　ルピン 　ホレト,,,CartoonStims/burglar_kick_chef_r.jpg,audio/serulupinhoreto.mp3,,,,,,,,,,,,,,,,,,,,,,,,,,,,,,,,,,,,,,,,,,,,,,,,,,,,,,,,,,,,,,,,,,,,,,,,,,
,,,,,,,,,R_2qqu8cm1WbYxBch,2022-09-03_15h01.45.928,jpn_C03,2022.1.2,Win32,61.74364041,,,space,1.988,0,33,33,27,1,パツ　ルピン　ドキ,,,CartoonStims/burglar_shoot_boxer_r.jpg,audio/patsulupindoki.mp3,,,,,,,,,,,,,,,,,,,,,,,,,,,,,,,,,,,,,,,,,,,,,,,,,,,,,,,,,,,,,,,,,,,,,,,,,,
,,,,,,,,,R_2qqu8cm1WbYxBch,2022-09-03_15h01.45.928,jpn_C03,2022.1.2,Win32,61.74364041,,,space,2.9288,0,34,34,16,1,トマ　ホレト　ピポ,,,CartoonStims/chef_point_doctor_r.jpg,audio/tomahoretopipo.mp3,,,,,,,,,,,,,,,,,,,,,,,,,,,,,,,,,,,,,,,,,,,,,,,,,,,,,,,,,,,,,,,,,,,,,,,,,,
,,,,,,,,,R_2qqu8cm1WbYxBch,2022-09-03_15h01.45.928,jpn_C03,2022.1.2,Win32,61.74364041,,,space,2.1333,0,35,35,1,1,セル 　シド 　ホレト,,,CartoonStims/artist_kick_chef_r.jpg,audio/serusidohoreto.mp3,,,,,,,,,,,,,,,,,,,,,,,,,,,,,,,,,,,,,,,,,,,,,,,,,,,,,,,,,,,,,,,,,,,,,,,,,,
,,,,,,,,,R_2qqu8cm1WbYxBch,2022-09-03_15h01.45.928,jpn_C03,2022.1.2,Win32,61.74364041,,,space,2,0,36,36,33,1,パツ　ピポ　ホレト,,,CartoonStims/doctor_shoot_chef_r.jpg,audio/patsupipohoreto.mp3,,,,,,,,,,,,,,,,,,,,,,,,,,,,,,,,,,,,,,,,,,,,,,,,,,,,,,,,,,,,,,,,,,,,,,,,,,
,,,,,,,,,R_2qqu8cm1WbYxBch,2022-09-03_15h01.45.928,jpn_C03,2022.1.2,Win32,61.74364041,,,space,2.2386,0,37,37,13,1,トマ　シド　ムク,,,CartoonStims/artist_point_cowboy_r.jpg,audio/tomasidomuku.mp3,,,,,,,,,,,,,,,,,,,,,,,,,,,,,,,,,,,,,,,,,,,,,,,,,,,,,,,,,,,,,,,,,,,,,,,,,,
,,,,,,,,,R_2qqu8cm1WbYxBch,2022-09-03_15h01.45.928,jpn_C03,2022.1.2,Win32,61.74364041,,,space,3.5861,0,38,38,9,1,セル　ピポ　シド,,,CartoonStims/doctor_kick_artist_r.jpg,audio/serupiposido.mp3,,,,,,,,,,,,,,,,,,,,,,,,,,,,,,,,,,,,,,,,,,,,,,,,,,,,,,,,,,,,,,,,,,,,,,,,,,
,,,,,,,,,R_2qqu8cm1WbYxBch,2022-09-03_15h01.45.928,jpn_C03,2022.1.2,Win32,61.74364041,,,space,3.6013,0,39,39,6,1,セル　ムク　ピポ,,,CartoonStims/cowboy_kick_doctor_r.jpg,audio/serumukupipo.mp3,,,,,,,,,,,,,,,,,,,,,,,,,,,,,,,,,,,,,,,,,,,,,,,,,,,,,,,,,,,,,,,,,,,,,,,,,,
,,,,,,,,,R_2qqu8cm1WbYxBch,2022-09-03_15h01.45.928,jpn_C03,2022.1.2,Win32,61.74364041,,,space,1.956,0,40,40,30,1,パツ　ムク　シド,,,CartoonStims/cowboy_shoot_artist_r.jpg,audio/patsumukusido.mp3,,,,,,,,,,,,,,,,,,,,,,,,,,,,,,,,,,,,,,,,,,,,,,,,,,,,,,,,,,,,,,,,,,,,,,,,,,
,,,,,,,,,R_2qqu8cm1WbYxBch,2022-09-03_15h01.45.928,jpn_C03,2022.1.2,Win32,61.74364041,,,space,1.8546,0,41,41,23,1,トマ　ドキ　ホレト,,,CartoonStims/boxer_point_chef_r.jpg,audio/tomadokihoreto.mp3,,,,,,,,,,,,,,,,,,,,,,,,,,,,,,,,,,,,,,,,,,,,,,,,,,,,,,,,,,,,,,,,,,,,,,,,,,
,,,,,,,,,R_2qqu8cm1WbYxBch,2022-09-03_15h01.45.928,jpn_C03,2022.1.2,Win32,61.74364041,,,space,1.8008,0,42,42,22,1,トマ　ドキ　ルピン,,,CartoonStims/boxer_point_burglar_r.jpg,audio/tomadokilupin.mp3,,,,,,,,,,,,,,,,,,,,,,,,,,,,,,,,,,,,,,,,,,,,,,,,,,,,,,,,,,,,,,,,,,,,,,,,,,
,,,,,,,,,R_2qqu8cm1WbYxBch,2022-09-03_15h01.45.928,jpn_C03,2022.1.2,Win32,61.74364041,,,space,2.4176,0,43,43,8,1,セル　ピポ　ドキ,,,CartoonStims/doctor_kick_boxer_r.jpg,audio/serupipodoki.mp3,,,,,,,,,,,,,,,,,,,,,,,,,,,,,,,,,,,,,,,,,,,,,,,,,,,,,,,,,,,,,,,,,,,,,,,,,,
,,,,,,,,,R_2qqu8cm1WbYxBch,2022-09-03_15h01.45.928,jpn_C03,2022.1.2,Win32,61.74364041,,,space,3.1791,0,44,44,36,1,プミ　シド　ピポ,,,CartoonStims/artist_punch_doctor_r.jpg,audio/pumisidopipo.mp3,,,,,,,,,,,,,,,,,,,,,,,,,,,,,,,,,,,,,,,,,,,,,,,,,,,,,,,,,,,,,,,,,,,,,,,,,,
,,,,,,,,,R_2qqu8cm1WbYxBch,2022-09-03_15h01.45.928,jpn_C03,2022.1.2,Win32,61.74364041,,,space,1.5378,0,45,45,18,1,トマ　ムク　ドキ,,,CartoonStims/cowboy_point_boxer_r.jpg,audio/tomamukudoki.mp3,,,,,,,,,,,,,,,,,,,,,,,,,,,,,,,,,,,,,,,,,,,,,,,,,,,,,,,,,,,,,,,,,,,,,,,,,,
,,,,,,,,,R_2qqu8cm1WbYxBch,2022-09-03_15h01.45.928,jpn_C03,2022.1.2,Win32,61.74364041,,,space,2.1302,0,46,46,25,1,パツ　シド　ピポ,,,CartoonStims/artist_shoot_doctor_r.jpg,audio/patsusidopipo.mp3,,,,,,,,,,,,,,,,,,,,,,,,,,,,,,,,,,,,,,,,,,,,,,,,,,,,,,,,,,,,,,,,,,,,,,,,,,
,,,,,,,,,R_2qqu8cm1WbYxBch,2022-09-03_15h01.45.928,jpn_C03,2022.1.2,Win32,61.74364041,,,space,4.5098,0,47,47,46,1,プミ　ドキ　ムク,,,CartoonStims/boxer_punch_cowboy_r.jpg,audio/pumidokimuku.mp3,,,,,,,,,,,,,,,,,,,,,,,,,,,,,,,,,,,,,,,,,,,,,,,,,,,,,,,,,,,,,,,,,,,,,,,,,,
,,,,,,,,,R_2qqu8cm1WbYxBch,2022-09-03_15h01.45.928,jpn_C03,2022.1.2,Win32,61.74364041,,,,,,,,,,,,,,,space,0.7429,right,1,1.7668,0,0,0,0,1,,,,,,,,,,,,,,,,,,,,,,,,,,,,,,,,,,,,,,,,,,,,,,,,,,,,,,,,,,,,,,,,
,,,,,,,,,R_2qqu8cm1WbYxBch,2022-09-03_15h01.45.928,jpn_C03,2022.1.2,Win32,61.74364041,,,,,,,,,,,,,,,,,,,,,,,,,0,0,0,7,1,CartoonStims/artist_punch_cowboy_r.jpg,セル　シド　ムク,CartoonStims/artist_kick_cowboy_r.jpg,right,CartoonStims/artist_kick_cowboy_r.jpg,audio/serusidomuku.mp3,残念！ こちらが正しい画像です。,,,,,,,,,,,,,,,,,,,,,,,,,,,,,,,,,,,,,,,,,,,,,,,,,,,,
,,,,,,,,,R_2qqu8cm1WbYxBch,2022-09-03_15h01.45.928,jpn_C03,2022.1.2,Win32,61.74364041,,,,,,,,,,,,,,,,,right,0,0.9842,,,,,,,,,,,,,,,,,,,,,,,,,,,,,,,,,,,,,,,,,,,,,,,,,,,,,,,,,0,0,0,0,1,,,,,,,,
,,,,,,,,,R_2qqu8cm1WbYxBch,2022-09-03_15h01.45.928,jpn_C03,2022.1.2,Win32,61.74364041,,,,,,,,,,,,,,,,,,,,,,,,,0,1,1,8,1,CartoonStims/doctor_point_cowboy_r.jpg,トマ　ピポ　ムク,CartoonStims/boxer_point_cowboy_r.jpg,left,CartoonStims/doctor_point_cowboy_r.jpg,audio/tomapipomuku.mp3,残念！ こちらが正しい画像です。,,,,,,,,,,,,,,,,,,,,,,,,,,,,,,,,,,,,,,,,,,,,,,,,,,,,
,,,,,,,,,R_2qqu8cm1WbYxBch,2022-09-03_15h01.45.928,jpn_C03,2022.1.2,Win32,61.74364041,,,,,,,,,,,,,,,,,right,1,3.578,0,0,0,0,1,,,,,,,,,,,,,,,,,,,,,,,,,,,,,,,,,,,,,,,,,,,,,,,,,,,,,,,,,,,,,,,,
,,,,,,,,,R_2qqu8cm1WbYxBch,2022-09-03_15h01.45.928,jpn_C03,2022.1.2,Win32,61.74364041,,,,,,,,,,,,,,,,,,,,,,,,,0,2,2,3,1,CartoonStims/cowboy_punch_doctor_r.jpg,プミ　ムク　ドキ,CartoonStims/cowboy_punch_boxer_r.jpg,right,CartoonStims/cowboy_punch_boxer_r.jpg,audio/pumimukudoki.mp3,残念！ こちらが正しい画像です。,,,,,,,,,,,,,,,,,,,,,,,,,,,,,,,,,,,,,,,,,,,,,,,,,,,,
,,,,,,,,,R_2qqu8cm1WbYxBch,2022-09-03_15h01.45.928,jpn_C03,2022.1.2,Win32,61.74364041,,,,,,,,,,,,,,,,,left,1,6.8738,,,,,,,,,,,,,,,,,,0,0,0,0,1,,,,,,,,,,,,,,,,,,,,,,,,,,,,,,,,,,,,,,,,,,,,,,,
,,,,,,,,,R_2qqu8cm1WbYxBch,2022-09-03_15h01.45.928,jpn_C03,2022.1.2,Win32,61.74364041,,,,,,,,,,,,,,,,,,,,,,,,,0,3,3,2,1,CartoonStims/boxer_shoot_doctor_r.jpg,パツ　ドキ　ピポ,CartoonStims/boxer_shoot_artist_r.jpg,left,CartoonStims/boxer_shoot_doctor_r.jpg,audio/patsudokipipo.mp3,残念！ こちらが正しい画像です。,,,,,,,,,,,,,,,,,,,,,,,,,,,,,,,,,,,,,,,,,,,,,,,,,,,,
,,,,,,,,,R_2qqu8cm1WbYxBch,2022-09-03_15h01.45.928,jpn_C03,2022.1.2,Win32,61.74364041,,,,,,,,,,,,,,,,,right,1,3.2943,0,0,0,0,1,,,,,,,,,,,,,,,,,,,,,,,,,,,,,,,,,,,,,,,,,,,,,,,,,,,,,,,,,,,,,,,,
,,,,,,,,,R_2qqu8cm1WbYxBch,2022-09-03_15h01.45.928,jpn_C03,2022.1.2,Win32,61.74364041,,,,,,,,,,,,,,,,,,,,,,,,,0,4,4,1,1,CartoonStims/chef_point_burglar_r.jpg,トマ　ホレト　シド,CartoonStims/chef_point_artist_r.jpg,right,CartoonStims/chef_point_artist_r.jpg,audio/tomahoretosido.mp3,残念！ こちらが正しい画像です。,,,,,,,,,,,,,,,,,,,,,,,,,,,,,,,,,,,,,,,,,,,,,,,,,,,,
,,,,,,,,,R_2qqu8cm1WbYxBch,2022-09-03_15h01.45.928,jpn_C03,2022.1.2,Win32,61.74364041,,,,,,,,,,,,,,,,,right,1,1.1426,0,0,0,0,1,,,,,,,,,,,,,,,,,,,,,,,,,,,,,,,,,,,,,,,,,,,,,,,,,,,,,,,,,,,,,,,,
,,,,,,,,,R_2qqu8cm1WbYxBch,2022-09-03_15h01.45.928,jpn_C03,2022.1.2,Win32,61.74364041,,,,,,,,,,,,,,,,,,,,,,,,,0,5,5,5,1,CartoonStims/cowboy_point_chef_r.jpg,パツ　ムク　ホレト,CartoonStims/cowboy_shoot_chef_r.jpg,right,CartoonStims/cowboy_shoot_chef_r.jpg,audio/patsumukuhoreto.mp3,残念！ こちらが正しい画像です。,,,,,,,,,,,,,,,,,,,,,,,,,,,,,,,,,,,,,,,,,,,,,,,,,,,,
,,,,,,,,,R_2qqu8cm1WbYxBch,2022-09-03_15h01.45.928,jpn_C03,2022.1.2,Win32,61.74364041,,,,,,,,,,,,,,,,,left,1,0.9169,,,,,,,,,,,,,,,,,,0,0,0,0,1,,,,,,,,,,,,,,,,,,,,,,,,,,,,,,,,,,,,,,,,,,,,,,,
,,,,,,,,,R_2qqu8cm1WbYxBch,2022-09-03_15h01.45.928,jpn_C03,2022.1.2,Win32,61.74364041,,,,,,,,,,,,,,,,,,,,,,,,,0,6,6,4,1,CartoonStims/burglar_point_boxer_r.jpg,トマ　ルピン　ドキ,CartoonStims/burglar_kick_boxer_r.jpg,left,CartoonStims/burglar_point_boxer_r.jpg,audio/tomalupindoki.mp3,残念！ こちらが正しい画像です。,,,,,,,,,,,,,,,,,,,,,,,,,,,,,,,,,,,,,,,,,,,,,,,,,,,,
,,,,,,,,,R_2qqu8cm1WbYxBch,2022-09-03_15h01.45.928,jpn_C03,2022.1.2,Win32,61.74364041,,,,,,,,,,,,,,,,,left,1,1.1391,,,,,,,,,,,,,,,,,,0,0,0,0,1,,,,,,,,,,,,,,,,,,,,,,,,,,,,,,,,,,,,,,,,,,,,,,,
,,,,,,,,,R_2qqu8cm1WbYxBch,2022-09-03_15h01.45.928,jpn_C03,2022.1.2,Win32,61.74364041,,,,,,,,,,,,,,,,,,,,,,,,,0,7,7,6,1,CartoonStims/doctor_punch_boxer_r.jpg,プミ　ピポ　ドキ,CartoonStims/doctor_shoot_boxer_r.jpg,left,CartoonStims/doctor_punch_boxer_r.jpg,audio/pumipipodoki.mp3,残念！ こちらが正しい画像です。,,,,,,,,,,,,,,,,,,,,,,,,,,,,,,,,,,,,,,,,,,,,,,,,,,,,
,,,,,,,,,R_2qqu8cm1WbYxBch,2022-09-03_15h01.45.928,jpn_C03,2022.1.2,Win32,61.74364041,,,,,,,,,,,,,,,,,left,1,1.5741,,,,,,,,,,,,,,,,,,0,0,0,0,1,,,,,,,,,,,,,,,,,,,,,,,,,,,,,,,,,,,,,,,,,,,,,,,
,,,,,,,,,R_2qqu8cm1WbYxBch,2022-09-03_15h01.45.928,jpn_C03,2022.1.2,Win32,61.74364041,,,,,,,,,,,,,,,,,,,,,,,,,0,8,8,0,1,CartoonStims/doctor_kick_burglar_r.jpg,セル　ピポ　ルピン,CartoonStims/doctor_kick_chef_r.jpg,left,CartoonStims/doctor_kick_burglar_r.jpg,audio/serupipolupin.mp3,残念！ こちらが正しい画像です。,,,,,,,,,,,,,,,,,,,,,,,,,,,,,,,,,,,,,,,,,,,,,,,,,,,,
,,,,,,,,,R_2qqu8cm1WbYxBch,2022-09-03_15h01.45.928,jpn_C03,2022.1.2,Win32,61.74364041,,,,,,,,,,,,,,,,,right,1,3.0462,0,0,0,0,1,,,,,,,,,,,,,,,,,,,,,,,,,,,,,,,,,,,,,,,,,,,,,,,,,,,,,,,,,,,,,,,,
,,,,,,,,,R_2qqu8cm1WbYxBch,2022-09-03_15h01.45.928,jpn_C03,2022.1.2,Win32,61.74364041,,,,,,,,,,,,,,,,,,,,,,,,,0,9,9,9,1,CartoonStims/chef_kick_artist_r.jpg,セル　ムク　シド,CartoonStims/cowboy_kick_artist_r.jpg,right,CartoonStims/cowboy_kick_artist_r.jpg,audio/serumukusido.mp3,残念！ こちらが正しい画像です。,,,,,,,,,,,,,,,,,,,,,,,,,,,,,,,,,,,,,,,,,,,,,,,,,,,,
,,,,,,,,,R_2qqu8cm1WbYxBch,2022-09-03_15h01.45.928,jpn_C03,2022.1.2,Win32,61.74364041,,,,,,,,,,,,,,,,,left,1,4.334,,,,,,,,,,,,,,,,,,0,0,0,0,1,,,,,,,,,,,,,,,,,,,,,,,,,,,,,,,,,,,,,,,,,,,,,,,
,,,,,,,,,R_2qqu8cm1WbYxBch,2022-09-03_15h01.45.928,jpn_C03,2022.1.2,Win32,61.74364041,,,,,,,,,,,,,,,,,,,,,,,,,0,10,10,10,1,CartoonStims/artist_shoot_burglar_r.jpg,パツ　シド　ルピン,CartoonStims/chef_shoot_burglar_r.jpg,left,CartoonStims/artist_shoot_burglar_r.jpg,audio/patsusidolupin.mp3,残念！ こちらが正しい画像です。,,,,,,,,,,,,,,,,,,,,,,,,,,,,,,,,,,,,,,,,,,,,,,,,,,,,
,,,,,,,,,R_2qqu8cm1WbYxBch,2022-09-03_15h01.45.928,jpn_C03,2022.1.2,Win32,61.74364041,,,,,,,,,,,,,,,,,right,1,5.0586,0,0,0,0,1,,,,,,,,,,,,,,,,,,,,,,,,,,,,,,,,,,,,,,,,,,,,,,,,,,,,,,,,,,,,,,,,
,,,,,,,,,R_2qqu8cm1WbYxBch,2022-09-03_15h01.45.928,jpn_C03,2022.1.2,Win32,61.74364041,,,,,,,,,,,,,,,,,,,,,,,,,0,11,11,11,1,CartoonStims/burglar_punch_cowboy_r.jpg,プミ　ホレト　ムク,CartoonStims/chef_punch_cowboy_r.jpg,right,CartoonStims/chef_punch_cowboy_r.jpg,audio/pumihoretomuku.mp3,残念！ こちらが正しい画像です。,,,,,,,,,,,,,,,,,,,,,,,,,,,,,,,,,,,,,,,,,,,,,,,,,,,,
,,,,,,,,,R_2qqu8cm1WbYxBch,2022-09-03_15h01.45.928,jpn_C03,2022.1.2,Win32,61.74364041,,,,,,,,,,,,,,,,,,,,,,,,,,,,,,,,,,,,,,,,,,space,0.7008,セル　ドキ　ムク,right,9.5045,0,0,0,0,1,,,,,,,,,,,,,,,,,,,,,,,,,,,,,,,,,,,,,
,,,,,,,,,R_2qqu8cm1WbYxBch,2022-09-03_15h01.45.928,jpn_C03,2022.1.2,Win32,61.74364041,,,,,,,,,,,,,CartoonStims/boxer_kick_cowboy_r.jpg,audio/serudokimuku.mp3,,,,,,,,,,,,,,,,,,,,,,,,,,,,,,,,,,,,,,0,0,0,2,1,セル　ドキ　ムク,,,,,,,,,,,,,,,,,,,,,,,,,,,,,,,
,,,,,,,,,R_2qqu8cm1WbYxBch,2022-09-03_15h01.45.928,jpn_C03,2022.1.2,Win32,61.74364041,,,,,,,,,,,,,,,,,,,,,,,,,,,,,,,,,,,,,,,,,,,,パツ　ホレト　ムク,right,6.9513,0,0,0,0,1,,,,,,,,,,,,,,,,,,,,,,,,,,,,,,,,,,,,,
,,,,,,,,,R_2qqu8cm1WbYxBch,2022-09-03_15h01.45.928,jpn_C03,2022.1.2,Win32,61.74364041,,,,,,,,,,,,,CartoonStims/chef_shoot_cowboy_r.jpg,audio/patsuhoretomuku.mp3,,,,,,,,,,,,,,,,,,,,,,,,,,,,,,,,,,,,,,0,1,1,7,1,パツ　ホレト　ムク,,,,,,,,,,,,,,,,,,,,,,,,,,,,,,,
,,,,,,,,,R_2qqu8cm1WbYxBch,2022-09-03_15h01.45.928,jpn_C03,2022.1.2,Win32,61.74364041,,,,,,,,,,,,,,,,,,,,,,,,,,,,,,,,,,,,,,,,,,,,パツ　ルピン　ホレト,right,9.9147,0,0,0,0,1,,,,,,,,,,,,,,,,,,,,,,,,,,,,,,,,,,,,,
,,,,,,,,,R_2qqu8cm1WbYxBch,2022-09-03_15h01.45.928,jpn_C03,2022.1.2,Win32,61.74364041,,,,,,,,,,,,,CartoonStims/burglar_shoot_chef_r.jpg,audio/patsulupinhoreto.mp3,,,,,,,,,,,,,,,,,,,,,,,,,,,,,,,,,,,,,,0,2,2,6,1,パツ　ルピン　ホレト,,,,,,,,,,,,,,,,,,,,,,,,,,,,,,,
,,,,,,,,,R_2qqu8cm1WbYxBch,2022-09-03_15h01.45.928,jpn_C03,2022.1.2,Win32,61.74364041,,,,,,,,,,,,,,,,,,,,,,,,,,,,,,,,,,,,,,,,,,,,トマ　ホレト　ルピン,right,10.9225,0,0,0,0,1,,,,,,,,,,,,,,,,,,,,,,,,,,,,,,,,,,,,,
,,,,,,,,,R_2qqu8cm1WbYxBch,2022-09-03_15h01.45.928,jpn_C03,2022.1.2,Win32,61.74364041,,,,,,,,,,,,,CartoonStims/chef_point_burglar_r.jpg,audio/tomahoretolupin.mp3,,,,,,,,,,,,,,,,,,,,,,,,,,,,,,,,,,,,,,0,3,3,5,1,トマ　ホレト　ルピン,,,,,,,,,,,,,,,,,,,,,,,,,,,,,,,
,,,,,,,,,R_2qqu8cm1WbYxBch,2022-09-03_15h01.45.928,jpn_C03,2022.1.2,Win32,61.74364041,,,,,,,,,,,,,,,,,,,,,,,,,,,,,,,,,,,,,,,,,,,,パツ　ムク　シド,right,7.03,0,0,0,0,1,,,,,,,,,,,,,,,,,,,,,,,,,,,,,,,,,,,,,
,,,,,,,,,R_2qqu8cm1WbYxBch,2022-09-03_15h01.45.928,jpn_C03,2022.1.2,Win32,61.74364041,,,,,,,,,,,,,CartoonStims/cowboy_shoot_doctor_r.jpg,audio/patsumukupipo.mp3,,,,,,,,,,,,,,,,,,,,,,,,,,,,,,,,,,,,,,0,4,4,8,1,パツ　ムク　ピポ,,,,,,,,,,,,,,,,,,,,,,,,,,,,,,,
,,,,,,,,,R_2qqu8cm1WbYxBch,2022-09-03_15h01.45.928,jpn_C03,2022.1.2,Win32,61.74364041,,,,,,,,,,,,,,,,,,,,,,,,,,,,,,,,,,,,,,,,,,,,ピコ　シド　ルピン,right,22.4743,0,0,0,0,1,,,,,,,,,,,,,,,,,,,,,,,,,,,,,,,,,,,,,
,,,,,,,,,R_2qqu8cm1WbYxBch,2022-09-03_15h01.45.928,jpn_C03,2022.1.2,Win32,61.74364041,,,,,,,,,,,,,CartoonStims/artist_punch_burglar_r.jpg,audio/pumisidolupin.mp3,,,,,,,,,,,,,,,,,,,,,,,,,,,,,,,,,,,,,,0,5,5,9,1,プミ　シド　ルピン,,,,,,,,,,,,,,,,,,,,,,,,,,,,,,,
,,,,,,,,,R_2qqu8cm1WbYxBch,2022-09-03_15h01.45.928,jpn_C03,2022.1.2,Win32,61.74364041,,,,,,,,,,,,,,,,,,,,,,,,,,,,,,,,,,,,,,,,,,,,プト　シド　ドキ,right,17.2604,0,0,0,0,1,,,,,,,,,,,,,,,,,,,,,,,,,,,,,,,,,,,,,
,,,,,,,,,R_2qqu8cm1WbYxBch,2022-09-03_15h01.45.928,jpn_C03,2022.1.2,Win32,61.74364041,,,,,,,,,,,,,CartoonStims/artist_point_boxer_r.jpg,audio/tomasidodoki.mp3,,,,,,,,,,,,,,,,,,,,,,,,,,,,,,,,,,,,,,0,6,6,3,1,トマ　シド　ドキ,,,,,,,,,,,,,,,,,,,,,,,,,,,,,,,
,,,,,,,,,R_2qqu8cm1WbYxBch,2022-09-03_15h01.45.928,jpn_C03,2022.1.2,Win32,61.74364041,,,,,,,,,,,,,,,,,,,,,,,,,,,,,,,,,,,,,,,,,,,,セル　ポピ　ホレト,right,10.6136,0,0,0,0,1,,,,,,,,,,,,,,,,,,,,,,,,,,,,,,,,,,,,,
,,,,,,,,,R_2qqu8cm1WbYxBch,2022-09-03_15h01.45.928,jpn_C03,2022.1.2,Win32,61.74364041,,,,,,,,,,,,,CartoonStims/doctor_kick_chef_r.jpg,audio/serupipohoreto.mp3,,,,,,,,,,,,,,,,,,,,,,,,,,,,,,,,,,,,,,0,7,7,1,1,セル　ピポ　ホレト,,,,,,,,,,,,,,,,,,,,,,,,,,,,,,,
,,,,,,,,,R_2qqu8cm1WbYxBch,2022-09-03_15h01.45.928,jpn_C03,2022.1.2,Win32,61.74364041,,,,,,,,,,,,,,,,,,,,,,,,,,,,,,,,,,,,,,,,,,,,プト　シド　ルピン,right,9.915,0,0,0,0,1,,,,,,,,,,,,,,,,,,,,,,,,,,,,,,,,,,,,,
,,,,,,,,,R_2qqu8cm1WbYxBch,2022-09-03_15h01.45.928,jpn_C03,2022.1.2,Win32,61.74364041,,,,,,,,,,,,,CartoonStims/doctor_punch_boxer_r.jpg,audio/pumipipodoki.mp3,,,,,,,,,,,,,,,,,,,,,,,,,,,,,,,,,,,,,,0,8,8,10,1,プミ　ピポ　ドキ,,,,,,,,,,,,,,,,,,,,,,,,,,,,,,,
,,,,,,,,,R_2qqu8cm1WbYxBch,2022-09-03_15h01.45.928,jpn_C03,2022.1.2,Win32,61.74364041,,,,,,,,,,,,,,,,,,,,,,,,,,,,,,,,,,,,,,,,,,,,,right,0.2023,0,0,0,0,1,,,,,,,,,,,,,,,,,,,,,,,,,,,,,,,,,,,,,
,,,,,,,,,R_2qqu8cm1WbYxBch,2022-09-03_15h01.45.928,jpn_C03,2022.1.2,Win32,61.74364041,,,,,,,,,,,,,CartoonStims/cowboy_kick_burglar_r.jpg,audio/serumukulupin.mp3,,,,,,,,,,,,,,,,,,,,,,,,,,,,,,,,,,,,,,0,9,9,0,1,セル　ムク　ルピン,,,,,,,,,,,,,,,,,,,,,,,,,,,,,,,
,,,,,,,,,R_2qqu8cm1WbYxBch,2022-09-03_15h01.45.928,jpn_C03,2022.1.2,Win32,61.74364041,,,,,,,,,,,,,,,,,,,,,,,,,,,,,,,,,,,,,,,,,,,,プミ　ドキ　シド,right,9.151,0,0,0,0,1,,,,,,,,,,,,,,,,,,,,,,,,,,,,,,,,,,,,,
,,,,,,,,,R_2qqu8cm1WbYxBch,2022-09-03_15h01.45.928,jpn_C03,2022.1.2,Win32,61.74364041,,,,,,,,,,,,,CartoonStims/boxer_punch_artist_r.jpg,audio/pumidokisido.mp3,,,,,,,,,,,,,,,,,,,,,,,,,,,,,,,,,,,,,,0,10,10,11,1,プミ　ドキ　シド,,,,,,,,,,,,,,,,,,,,,,,,,,,,,,,
,,,,,,,,,R_2qqu8cm1WbYxBch,2022-09-03_15h01.45.928,jpn_C03,2022.1.2,Win32,61.74364041,,,,,,,,,,,,,,,,,,,,,,,,,,,,,,,,,,,,,,,,,,,,トマ　ルピン　シド,right,7.7806,0,0,0,0,1,,,,,,,,,,,,,,,,,,,,,,,,,,,,,,,,,,,,,
,,,,,,,,,R_2qqu8cm1WbYxBch,2022-09-03_15h01.45.928,jpn_C03,2022.1.2,Win32,61.74364041,,,,,,,,,,,,,CartoonStims/burglar_point_artist_r.jpg,audio/tomalupinsido.mp3,,,,,,,,,,,,,,,,,,,,,,,,,,,,,,,,,,,,,,0,11,11,4,1,トマ　ルピン　シド,,,,,,,,,,,,,,,,,,,,,,,,,,,,,,,
,,,,,,,,,R_2qqu8cm1WbYxBch,2022-09-03_15h01.45.928,jpn_C03,2022.1.2,Win32,61.74364041,,,,,,,,,,,,,,,,,,,,,,,,,,,,,,,,,,,,,,,,,,,,,,,,,,,,,,,,,,,space,0.6592,0,1,1,1,1,AffExposure.xlsx,"第二のトライアルの学習では、この言語で書かれた文を見ていただきます。引き続き注意して、 聞こえた音を復唱してください。


スペースキーを押してください。",1,AffFCT.xlsx,ここからクイズが始まります。 スクリーンに表示されるテキストに合う画像を選んでください。,AffTest.xlsx,1,次にここまで学んだことをアウトプットしていただきます。 表示される画像を描写していると思う単語を、テキストボックスにタイプしてください。 答えを提出したあとに正しい正解が少しの間画面に写ります。,1,"これで第二のトライアルが終了しました。 ここで休憩をとっていただいても構いません。

休憩が終わりましたら、 スペースキーを押して続きの学習を行いましょう。",,,,,,,,,,,,,
,,,,,,,,,R_2qqu8cm1WbYxBch,2022-09-03_15h01.45.928,jpn_C03,2022.1.2,Win32,61.74364041,space,1.8299,space,8.8193,0,0,0,28,1,パツ　ピク　ホレト　ドキ,,,CartoonStims/chef_shoot_boxer_r_no.jpg,audio/patsupikuhoretodoki.mp3,,,,,,,,,,,,,,,,,,,,,,,,,,,,,,,,,,,,,,,,,,,,,,,,,,,,,,,,,,,,,,,,,,,,,,,,,,
,,,,,,,,,R_2qqu8cm1WbYxBch,2022-09-03_15h01.45.928,jpn_C03,2022.1.2,Win32,61.74364041,,,space,5.6076,0,1,1,43,1,プミ　ピク　ムク　ホレト,,,CartoonStims/cowboy_punch_chef_r_no.jpg,audio/pumipikumukuhoreto.mp3,,,,,,,,,,,,,,,,,,,,,,,,,,,,,,,,,,,,,,,,,,,,,,,,,,,,,,,,,,,,,,,,,,,,,,,,,,
,,,,,,,,,R_2qqu8cm1WbYxBch,2022-09-03_15h01.45.928,jpn_C03,2022.1.2,Win32,61.74364041,,,space,3.2531,0,2,2,16,1,トマ　ピク　ホレト　ピポ,,,CartoonStims/chef_point_doctor_r_no.jpg,audio/tomapikuhoretopipo.mp3,,,,,,,,,,,,,,,,,,,,,,,,,,,,,,,,,,,,,,,,,,,,,,,,,,,,,,,,,,,,,,,,,,,,,,,,,,
,,,,,,,,,R_2qqu8cm1WbYxBch,2022-09-03_15h01.45.928,jpn_C03,2022.1.2,Win32,61.74364041,,,space,2.6343,0,3,3,47,1,プミ　ピク　ドキ　ピポ,,,CartoonStims/boxer_punch_doctor_r_no.jpg,audio/pumipikudokipipo.mp3,,,,,,,,,,,,,,,,,,,,,,,,,,,,,,,,,,,,,,,,,,,,,,,,,,,,,,,,,,,,,,,,,,,,,,,,,,
,,,,,,,,,R_2qqu8cm1WbYxBch,2022-09-03_15h01.45.928,jpn_C03,2022.1.2,Win32,61.74364041,,,space,2.3009,0,4,4,6,1,セル　ピク　ムク　ピポ,,,CartoonStims/cowboy_kick_doctor_r_no.jpg,audio/serupikumukupipo.mp3,,,,,,,,,,,,,,,,,,,,,,,,,,,,,,,,,,,,,,,,,,,,,,,,,,,,,,,,,,,,,,,,,,,,,,,,,,
,,,,,,,,,R_2qqu8cm1WbYxBch,2022-09-03_15h01.45.928,jpn_C03,2022.1.2,Win32,61.74364041,,,space,3.0037,0,5,5,29,1,ピク　パツ　ホレト　シド,,,CartoonStims/chef_shoot_artist_r_no.jpg,audio/pikupatsuhoretosido.mp3,,,,,,,,,,,,,,,,,,,,,,,,,,,,,,,,,,,,,,,,,,,,,,,,,,,,,,,,,,,,,,,,,,,,,,,,,,
,,,,,,,,,R_2qqu8cm1WbYxBch,2022-09-03_15h01.45.928,jpn_C03,2022.1.2,Win32,61.74364041,,,space,5.2917,0,6,6,21,1,トマ　ピク　ピポ　ルピン,,,CartoonStims/doctor_point_burglar_r_no.jpg,audio/tomapikupipolupin.mp3,,,,,,,,,,,,,,,,,,,,,,,,,,,,,,,,,,,,,,,,,,,,,,,,,,,,,,,,,,,,,,,,,,,,,,,,,,
,,,,,,,,,R_2qqu8cm1WbYxBch,2022-09-03_15h01.45.928,jpn_C03,2022.1.2,Win32,61.74364041,,,space,2.6989,0,7,7,32,1,パツ　ピク　ピポ　ルピン,,,CartoonStims/doctor_shoot_burglar_r_no.jpg,audio/patsupikupipolupin.mp3,,,,,,,,,,,,,,,,,,,,,,,,,,,,,,,,,,,,,,,,,,,,,,,,,,,,,,,,,,,,,,,,,,,,,,,,,,
,,,,,,,,,R_2qqu8cm1WbYxBch,2022-09-03_15h01.45.928,jpn_C03,2022.1.2,Win32,61.74364041,,,space,1.8024,0,8,8,10,1,セル　ピク　ドキ　シド,,,CartoonStims/boxer_kick_artist_r_no.jpg,audio/serupikudokisido.mp3,,,,,,,,,,,,,,,,,,,,,,,,,,,,,,,,,,,,,,,,,,,,,,,,,,,,,,,,,,,,,,,,,,,,,,,,,,
,,,,,,,,,R_2qqu8cm1WbYxBch,2022-09-03_15h01.45.928,jpn_C03,2022.1.2,Win32,61.74364041,,,space,3.6451,0,9,9,23,1,ピク　トマ　ドキ　ホレト,,,CartoonStims/boxer_point_chef_r_no.jpg,audio/pikutomadokihoreto.mp3,,,,,,,,,,,,,,,,,,,,,,,,,,,,,,,,,,,,,,,,,,,,,,,,,,,,,,,,,,,,,,,,,,,,,,,,,,
,,,,,,,,,R_2qqu8cm1WbYxBch,2022-09-03_15h01.45.928,jpn_C03,2022.1.2,Win32,61.74364041,,,space,4.6873,0,10,10,46,1,ピク　プミ　ドキ　ムク,,,CartoonStims/boxer_punch_cowboy_r_no.jpg,audio/pikupumidokimuku.mp3,,,,,,,,,,,,,,,,,,,,,,,,,,,,,,,,,,,,,,,,,,,,,,,,,,,,,,,,,,,,,,,,,,,,,,,,,,
,,,,,,,,,R_2qqu8cm1WbYxBch,2022-09-03_15h01.45.928,jpn_C03,2022.1.2,Win32,61.74364041,,,space,2.9455,0,11,11,2,1,セル　ピク　ルピン　ホレト,,,CartoonStims/burglar_kick_chef_r_no.jpg,audio/serupikulupinhoreto.mp3,,,,,,,,,,,,,,,,,,,,,,,,,,,,,,,,,,,,,,,,,,,,,,,,,,,,,,,,,,,,,,,,,,,,,,,,,,
,,,,,,,,,R_2qqu8cm1WbYxBch,2022-09-03_15h01.45.928,jpn_C03,2022.1.2,Win32,61.74364041,,,space,4.0804,0,12,12,22,1,トマ　ピク　ドキ　ルピン,,,CartoonStims/boxer_point_burglar_r_no.jpg,audio/tomapikudokilupin.mp3,,,,,,,,,,,,,,,,,,,,,,,,,,,,,,,,,,,,,,,,,,,,,,,,,,,,,,,,,,,,,,,,,,,,,,,,,,
,,,,,,,,,R_2qqu8cm1WbYxBch,2022-09-03_15h01.45.928,jpn_C03,2022.1.2,Win32,61.74364041,,,space,9.2053,0,13,13,9,1,セル　ピク　ピポ　シド,,,CartoonStims/doctor_kick_artist_r_no.jpg,audio/serupikupiposido.mp3,,,,,,,,,,,,,,,,,,,,,,,,,,,,,,,,,,,,,,,,,,,,,,,,,,,,,,,,,,,,,,,,,,,,,,,,,,
,,,,,,,,,R_2qqu8cm1WbYxBch,2022-09-03_15h01.45.928,jpn_C03,2022.1.2,Win32,61.74364041,,,space,2.6724,0,14,14,8,1,ピク　セル　ピポ　ドキ,,,CartoonStims/doctor_kick_boxer_r_no.jpg,audio/pikuserupipodoki.mp3,,,,,,,,,,,,,,,,,,,,,,,,,,,,,,,,,,,,,,,,,,,,,,,,,,,,,,,,,,,,,,,,,,,,,,,,,,
,,,,,,,,,R_2qqu8cm1WbYxBch,2022-09-03_15h01.45.928,jpn_C03,2022.1.2,Win32,61.74364041,,,space,4.2178,0,15,15,30,1,パツ　ピク　ムク　シド,,,CartoonStims/cowboy_shoot_artist_r_no.jpg,audio/patsupikumukusido.mp3,,,,,,,,,,,,,,,,,,,,,,,,,,,,,,,,,,,,,,,,,,,,,,,,,,,,,,,,,,,,,,,,,,,,,,,,,,
,,,,,,,,,R_2qqu8cm1WbYxBch,2022-09-03_15h01.45.928,jpn_C03,2022.1.2,Win32,61.74364041,,,space,4.0349,0,16,16,42,1,ピク　プミ　ムク　ルピン,,,CartoonStims/cowboy_punch_burglar_r_no.jpg,audio/pikupumimukulupin.mp3,,,,,,,,,,,,,,,,,,,,,,,,,,,,,,,,,,,,,,,,,,,,,,,,,,,,,,,,,,,,,,,,,,,,,,,,,,
,,,,,,,,,R_2qqu8cm1WbYxBch,2022-09-03_15h01.45.928,jpn_C03,2022.1.2,Win32,61.74364041,,,space,6.8936,0,17,17,1,1,セル　ピク　シド　ホレト,,,CartoonStims/artist_kick_chef_r_no.jpg,audio/serupikusidohoreto.mp3,,,,,,,,,,,,,,,,,,,,,,,,,,,,,,,,,,,,,,,,,,,,,,,,,,,,,,,,,,,,,,,,,,,,,,,,,,
,,,,,,,,,R_2qqu8cm1WbYxBch,2022-09-03_15h01.45.928,jpn_C03,2022.1.2,Win32,61.74364041,,,space,9.2378,0,18,18,37,1,プミ　ピク　シド　ドキ,,,CartoonStims/artist_punch_boxer_r_no.jpg,audio/pumipikusidodoki.mp3,,,,,,,,,,,,,,,,,,,,,,,,,,,,,,,,,,,,,,,,,,,,,,,,,,,,,,,,,,,,,,,,,,,,,,,,,,
,,,,,,,,,R_2qqu8cm1WbYxBch,2022-09-03_15h01.45.928,jpn_C03,2022.1.2,Win32,61.74364041,,,space,3.8497,0,19,19,0,1,ピク　セル　シド　ルピン,,,CartoonStims/artist_kick_burglar_r_no.jpg,audio/pikuserusidolupin.mp3,,,,,,,,,,,,,,,,,,,,,,,,,,,,,,,,,,,,,,,,,,,,,,,,,,,,,,,,,,,,,,,,,,,,,,,,,,
,,,,,,,,,R_2qqu8cm1WbYxBch,2022-09-03_15h01.45.928,jpn_C03,2022.1.2,Win32,61.74364041,,,space,3.3616,0,20,20,27,1,ピク　パツ　ルピン　ドキ,,,CartoonStims/burglar_shoot_boxer_r_no.jpg,audio/pikupatsulupindoki.mp3,,,,,,,,,,,,,,,,,,,,,,,,,,,,,,,,,,,,,,,,,,,,,,,,,,,,,,,,,,,,,,,,,,,,,,,,,,
,,,,,,,,,R_2qqu8cm1WbYxBch,2022-09-03_15h01.45.928,jpn_C03,2022.1.2,Win32,61.74364041,,,space,3.9348,0,21,21,24,1,パツ　ピク　シド　ムク,,,CartoonStims/artist_shoot_cowboy_r_no.jpg,audio/patsupikusidomuku.mp3,,,,,,,,,,,,,,,,,,,,,,,,,,,,,,,,,,,,,,,,,,,,,,,,,,,,,,,,,,,,,,,,,,,,,,,,,,
,,,,,,,,,R_2qqu8cm1WbYxBch,2022-09-03_15h01.45.928,jpn_C03,2022.1.2,Win32,61.74364041,,,space,3.0624,0,22,22,34,1,パツ　ピク　ドキ　ホレト,,,CartoonStims/boxer_shoot_chef_r_no.jpg,audio/patsupikudokihoreto.mp3,,,,,,,,,,,,,,,,,,,,,,,,,,,,,,,,,,,,,,,,,,,,,,,,,,,,,,,,,,,,,,,,,,,,,,,,,,
,,,,,,,,,R_2qqu8cm1WbYxBch,2022-09-03_15h01.45.928,jpn_C03,2022.1.2,Win32,61.74364041,,,space,2.0313,0,23,23,19,1,ピク　トマ　ムク　シド,,,CartoonStims/cowboy_point_artist_r_no.jpg,audio/pikutomamukusido.mp3,,,,,,,,,,,,,,,,,,,,,,,,,,,,,,,,,,,,,,,,,,,,,,,,,,,,,,,,,,,,,,,,,,,,,,,,,,
,,,,,,,,,R_2qqu8cm1WbYxBch,2022-09-03_15h01.45.928,jpn_C03,2022.1.2,Win32,61.74364041,,,space,5.2148,0,24,24,41,1,プミ　ピク　ホレト　ルピン,,,CartoonStims/chef_punch_burglar_r_no.jpg,audio/pumipikuhoretolupin.mp3,,,,,,,,,,,,,,,,,,,,,,,,,,,,,,,,,,,,,,,,,,,,,,,,,,,,,,,,,,,,,,,,,,,,,,,,,,
,,,,,,,,,R_2qqu8cm1WbYxBch,2022-09-03_15h01.45.928,jpn_C03,2022.1.2,Win32,61.74364041,,,space,4.949,0,25,25,7,1,セル　ピク　ムク　ドキ,,,CartoonStims/cowboy_kick_boxer_r_no.jpg,audio/serupikumukudoki.mp3,,,,,,,,,,,,,,,,,,,,,,,,,,,,,,,,,,,,,,,,,,,,,,,,,,,,,,,,,,,,,,,,,,,,,,,,,,
,,,,,,,,,R_2qqu8cm1WbYxBch,2022-09-03_15h01.45.928,jpn_C03,2022.1.2,Win32,61.74364041,,,space,2.8644,0,26,26,5,1,セル　ピク　ホレト　ピポ,,,CartoonStims/chef_kick_doctor_r_no.jpg,audio/serupikuhoretopipo.mp3,,,,,,,,,,,,,,,,,,,,,,,,,,,,,,,,,,,,,,,,,,,,,,,,,,,,,,,,,,,,,,,,,,,,,,,,,,
,,,,,,,,,R_2qqu8cm1WbYxBch,2022-09-03_15h01.45.928,jpn_C03,2022.1.2,Win32,61.74364041,,,space,4.6299,0,27,27,44,1,ピク　プミ　ピポ　ホレト,,,CartoonStims/doctor_punch_chef_r_no.jpg,audio/pikupumipipohoreto.mp3,,,,,,,,,,,,,,,,,,,,,,,,,,,,,,,,,,,,,,,,,,,,,,,,,,,,,,,,,,,,,,,,,,,,,,,,,,
,,,,,,,,,R_2qqu8cm1WbYxBch,2022-09-03_15h01.45.928,jpn_C03,2022.1.2,Win32,61.74364041,,,space,3.3715,0,28,28,31,1,パツ　ピク　ムク　ルピン,,,CartoonStims/cowboy_shoot_burglar_r_no.jpg,audio/patsupikumukulupin.mp3,,,,,,,,,,,,,,,,,,,,,,,,,,,,,,,,,,,,,,,,,,,,,,,,,,,,,,,,,,,,,,,,,,,,,,,,,,
,,,,,,,,,R_2qqu8cm1WbYxBch,2022-09-03_15h01.45.928,jpn_C03,2022.1.2,Win32,61.74364041,,,space,3.8195,0,29,29,26,1,パツ　ピク　ルピン　ピポ,,,CartoonStims/burglar_shoot_doctor_r_no.jpg,audio/patsupikulupinpipo.mp3,,,,,,,,,,,,,,,,,,,,,,,,,,,,,,,,,,,,,,,,,,,,,,,,,,,,,,,,,,,,,,,,,,,,,,,,,,
,,,,,,,,,R_2qqu8cm1WbYxBch,2022-09-03_15h01.45.928,jpn_C03,2022.1.2,Win32,61.74364041,,,space,2.8817,0,30,30,17,1,トマ　ピク　ホレト　ドキ,,,CartoonStims/chef_point_boxer_r_no.jpg,audio/tomapikuhoretodoki.mp3,,,,,,,,,,,,,,,,,,,,,,,,,,,,,,,,,,,,,,,,,,,,,,,,,,,,,,,,,,,,,,,,,,,,,,,,,,
,,,,,,,,,R_2qqu8cm1WbYxBch,2022-09-03_15h01.45.928,jpn_C03,2022.1.2,Win32,61.74364041,,,space,2.5906,0,31,31,45,1,プミ　ピク　ピポ　ムク,,,CartoonStims/doctor_punch_cowboy_r_no.jpg,audio/pumipikupipomuku.mp3,,,,,,,,,,,,,,,,,,,,,,,,,,,,,,,,,,,,,,,,,,,,,,,,,,,,,,,,,,,,,,,,,,,,,,,,,,
,,,,,,,,,R_2qqu8cm1WbYxBch,2022-09-03_15h01.45.928,jpn_C03,2022.1.2,Win32,61.74364041,,,space,5.6138,0,32,32,33,1,パツ　ピク　ピポ　ホレト,,,CartoonStims/doctor_shoot_chef_r_no.jpg,audio/patsupikupipohoreto.mp3,,,,,,,,,,,,,,,,,,,,,,,,,,,,,,,,,,,,,,,,,,,,,,,,,,,,,,,,,,,,,,,,,,,,,,,,,,
,,,,,,,,,R_2qqu8cm1WbYxBch,2022-09-03_15h01.45.928,jpn_C03,2022.1.2,Win32,61.74364041,,,space,2.0847,0,33,33,11,1,セル　ピク　ドキ　ルピン,,,CartoonStims/boxer_kick_burglar_r_no.jpg,audio/serupikudokilupin.mp3,,,,,,,,,,,,,,,,,,,,,,,,,,,,,,,,,,,,,,,,,,,,,,,,,,,,,,,,,,,,,,,,,,,,,,,,,,
,,,,,,,,,R_2qqu8cm1WbYxBch,2022-09-03_15h01.45.928,jpn_C03,2022.1.2,Win32,61.74364041,,,space,2.8173,0,34,34,25,1,ピク　パツ　シド　ピポ,,,CartoonStims/artist_shoot_doctor_r_no.jpg,audio/pikupatsusidopipo.mp3,,,,,,,,,,,,,,,,,,,,,,,,,,,,,,,,,,,,,,,,,,,,,,,,,,,,,,,,,,,,,,,,,,,,,,,,,,
,,,,,,,,,R_2qqu8cm1WbYxBch,2022-09-03_15h01.45.928,jpn_C03,2022.1.2,Win32,61.74364041,,,space,3.3806,0,35,35,40,1,プミ　ピク　ホレト　シド,,,CartoonStims/chef_punch_artist_r_no.jpg,audio/pumipikuhoretosido.mp3,,,,,,,,,,,,,,,,,,,,,,,,,,,,,,,,,,,,,,,,,,,,,,,,,,,,,,,,,,,,,,,,,,,,,,,,,,
,,,,,,,,,R_2qqu8cm1WbYxBch,2022-09-03_15h01.45.928,jpn_C03,2022.1.2,Win32,61.74364041,,,space,7.7208,0,36,36,12,1,トマ　ピク　シド　ホレト,,,CartoonStims/artist_point_chef_r_no.jpg,audio/tomapikusidohoreto.mp3,,,,,,,,,,,,,,,,,,,,,,,,,,,,,,,,,,,,,,,,,,,,,,,,,,,,,,,,,,,,,,,,,,,,,,,,,,
,,,,,,,,,R_2qqu8cm1WbYxBch,2022-09-03_15h01.45.928,jpn_C03,2022.1.2,Win32,61.74364041,,,space,3.3816,0,37,37,20,1,トマ　ピク　ピポ　シド,,,CartoonStims/doctor_point_artist_r_no.jpg,audio/tomapikupiposido.mp3,,,,,,,,,,,,,,,,,,,,,,,,,,,,,,,,,,,,,,,,,,,,,,,,,,,,,,,,,,,,,,,,,,,,,,,,,,
,,,,,,,,,R_2qqu8cm1WbYxBch,2022-09-03_15h01.45.928,jpn_C03,2022.1.2,Win32,61.74364041,,,space,2.314,0,38,38,35,1,パツ　ピク　ドキ　ムク,,,CartoonStims/boxer_shoot_cowboy_r_no.jpg,audio/patsupikudokimuku.mp3,,,,,,,,,,,,,,,,,,,,,,,,,,,,,,,,,,,,,,,,,,,,,,,,,,,,,,,,,,,,,,,,,,,,,,,,,,
,,,,,,,,,R_2qqu8cm1WbYxBch,2022-09-03_15h01.45.928,jpn_C03,2022.1.2,Win32,61.74364041,,,space,2.2655,0,39,39,3,1,セル　ピク　ルピン　ムク,,,CartoonStims/burglar_kick_cowboy_r_no.jpg,audio/serupikulupinmuku.mp3,,,,,,,,,,,,,,,,,,,,,,,,,,,,,,,,,,,,,,,,,,,,,,,,,,,,,,,,,,,,,,,,,,,,,,,,,,
,,,,,,,,,R_2qqu8cm1WbYxBch,2022-09-03_15h01.45.928,jpn_C03,2022.1.2,Win32,61.74364041,,,space,5.051,0,40,40,39,1,プミ　ピク　ルピン　シド,,,CartoonStims/burglar_punch_artist_r_no.jpg,audio/pumipikulupinsido.mp3,,,,,,,,,,,,,,,,,,,,,,,,,,,,,,,,,,,,,,,,,,,,,,,,,,,,,,,,,,,,,,,,,,,,,,,,,,
,,,,,,,,,R_2qqu8cm1WbYxBch,2022-09-03_15h01.45.928,jpn_C03,2022.1.2,Win32,61.74364041,,,space,2.386,0,41,41,15,1,ピク　トマ　ルピン　ピポ,,,CartoonStims/burglar_point_doctor_r_no.jpg,audio/pikutomalupinpipo.mp3,,,,,,,,,,,,,,,,,,,,,,,,,,,,,,,,,,,,,,,,,,,,,,,,,,,,,,,,,,,,,,,,,,,,,,,,,,
,,,,,,,,,R_2qqu8cm1WbYxBch,2022-09-03_15h01.45.928,jpn_C03,2022.1.2,Win32,61.74364041,,,space,2.3638,0,42,42,36,1,プミ　ピク　シド　ピポ,,,CartoonStims/artist_punch_doctor_r_no.jpg,audio/pumipikusidopipo.mp3,,,,,,,,,,,,,,,,,,,,,,,,,,,,,,,,,,,,,,,,,,,,,,,,,,,,,,,,,,,,,,,,,,,,,,,,,,
,,,,,,,,,R_2qqu8cm1WbYxBch,2022-09-03_15h01.45.928,jpn_C03,2022.1.2,Win32,61.74364041,,,space,2.016,0,43,43,13,1,トマ　ピク　シド　ムク,,,CartoonStims/artist_point_cowboy_r_no.jpg,audio/tomapikusidomuku.mp3,,,,,,,,,,,,,,,,,,,,,,,,,,,,,,,,,,,,,,,,,,,,,,,,,,,,,,,,,,,,,,,,,,,,,,,,,,
,,,,,,,,,R_2qqu8cm1WbYxBch,2022-09-03_15h01.45.928,jpn_C03,2022.1.2,Win32,61.74364041,,,space,2.7293,0,44,44,4,1,ピク　セル　ホレト　ムク,,,CartoonStims/chef_kick_cowboy_r_no.jpg,audio/pikuseruhoretomuku.mp3,,,,,,,,,,,,,,,,,,,,,,,,,,,,,,,,,,,,,,,,,,,,,,,,,,,,,,,,,,,,,,,,,,,,,,,,,,
,,,,,,,,,R_2qqu8cm1WbYxBch,2022-09-03_15h01.45.928,jpn_C03,2022.1.2,Win32,61.74364041,,,space,2.4044,0,45,45,38,1,プミ　ピク　ルピン　ドキ,,,CartoonStims/burglar_punch_boxer_r_no.jpg,audio/pumipikulupindoki.mp3,,,,,,,,,,,,,,,,,,,,,,,,,,,,,,,,,,,,,,,,,,,,,,,,,,,,,,,,,,,,,,,,,,,,,,,,,,
,,,,,,,,,R_2qqu8cm1WbYxBch,2022-09-03_15h01.45.928,jpn_C03,2022.1.2,Win32,61.74364041,,,space,2.1837,0,46,46,14,1,トマ　ピク　ルピン　ムク,,,CartoonStims/burglar_point_cowboy_r_no.jpg,audio/tomapikulupinmuku.mp3,,,,,,,,,,,,,,,,,,,,,,,,,,,,,,,,,,,,,,,,,,,,,,,,,,,,,,,,,,,,,,,,,,,,,,,,,,
,,,,,,,,,R_2qqu8cm1WbYxBch,2022-09-03_15h01.45.928,jpn_C03,2022.1.2,Win32,61.74364041,,,space,2.6056,0,47,47,18,1,トマ　ピク　ムク　ドキ,,,CartoonStims/cowboy_point_boxer_r_no.jpg,audio/tomapikumukudoki.mp3,,,,,,,,,,,,,,,,,,,,,,,,,,,,,,,,,,,,,,,,,,,,,,,,,,,,,,,,,,,,,,,,,,,,,,,,,,
,,,,,,,,,R_2qqu8cm1WbYxBch,2022-09-03_15h01.45.928,jpn_C03,2022.1.2,Win32,61.74364041,,,,,,,,,,,,,,,space,0.2332,left,0,2.2409,,,,,,,,,,,,,,,,,,,,,,,,,,,,,,,,,,,,,,,,,,,,,,,,,,,,,,,,,,,,,,0,0,0,0,1,,,
,,,,,,,,,R_2qqu8cm1WbYxBch,2022-09-03_15h01.45.928,jpn_C03,2022.1.2,Win32,61.74364041,,,,,,,,,,,,,,,,,,,,,,,,,0,0,0,1,1,CartoonStims/chef_punch_cowboy_r.jpg,プミ　ピク　ホレト　ムク,CartoonStims/chef_kick_cowboy_r.jpg,right,CartoonStims/chef_kick_cowboy_r.jpg,audio/pumipikuhoretomuku.mp3,"残念！ こちらが正しい画像です。

否定文は起きていないことを示しているのを思い出してください。",,,,,,,,,,,,,,,,,,,,,,,,,,,,,,,,,,,,,,,,,,,,,,,,,,,,
,,,,,,,,,R_2qqu8cm1WbYxBch,2022-09-03_15h01.45.928,jpn_C03,2022.1.2,Win32,61.74364041,,,,,,,,,,,,,,,,,left,1,3.2955,,,,,,,,,,,,,,,,,,0,0,0,0,1,,,,,,,,,,,,,,,,,,,,,,,,,,,,,,,,,,,,,,,,,,,,,,,
,,,,,,,,,R_2qqu8cm1WbYxBch,2022-09-03_15h01.45.928,jpn_C03,2022.1.2,Win32,61.74364041,,,,,,,,,,,,,,,,,,,,,,,,,0,1,1,6,1,CartoonStims/artist_shoot_boxer_r.jpg,トマ　ピク　シド　ドキ,CartoonStims/artist_point_boxer_r.jpg,left,CartoonStims/artist_shoot_boxer_r.jpg,audio/tomapikusidodoki.mp3,"残念！ こちらが正しい画像です。

否定文は起きていないことを示しているのを思い出してください。",,,,,,,,,,,,,,,,,,,,,,,,,,,,,,,,,,,,,,,,,,,,,,,,,,,,
,,,,,,,,,R_2qqu8cm1WbYxBch,2022-09-03_15h01.45.928,jpn_C03,2022.1.2,Win32,61.74364041,,,,,,,,,,,,,,,,,left,1,1.7309,,,,,,,,,,,,,,,,,,0,0,0,0,1,,,,,,,,,,,,,,,,,,,,,,,,,,,,,,,,,,,,,,,,,,,,,,,
,,,,,,,,,R_2qqu8cm1WbYxBch,2022-09-03_15h01.45.928,jpn_C03,2022.1.2,Win32,61.74364041,,,,,,,,,,,,,,,,,,,,,,,,,0,2,2,8,1,CartoonStims/burglar_punch_artist_r.jpg,トマ　ピク　ルピン　シド,CartoonStims/burglar_point_artist_r.jpg,left,CartoonStims/burglar_punch_artist_r.jpg,audio/tomapikulupinsido.mp3,"残念！ こちらが正しい画像です。

否定文は起きていないことを示しているのを思い出してください。",,,,,,,,,,,,,,,,,,,,,,,,,,,,,,,,,,,,,,,,,,,,,,,,,,,,
,,,,,,,,,R_2qqu8cm1WbYxBch,2022-09-03_15h01.45.928,jpn_C03,2022.1.2,Win32,61.74364041,,,,,,,,,,,,,,,,,left,1,1.3645,,,,,,,,,,,,,,,,,,0,0,0,0,1,,,,,,,,,,,,,,,,,,,,,,,,,,,,,,,,,,,,,,,,,,,,,,,
,,,,,,,,,R_2qqu8cm1WbYxBch,2022-09-03_15h01.45.928,jpn_C03,2022.1.2,Win32,61.74364041,,,,,,,,,,,,,,,,,,,,,,,,,0,3,3,4,1,CartoonStims/burglar_shoot_doctor_r.jpg,セル　ピク　ルピン　ピポ,CartoonStims/burglar_kick_doctor_r.jpg,left,CartoonStims/burglar_shoot_doctor_r.jpg,audio/serupikulupinpipo.mp3,"残念！ こちらが正しい画像です。

否定文は起きていないことを示しているのを思い出してください。",,,,,,,,,,,,,,,,,,,,,,,,,,,,,,,,,,,,,,,,,,,,,,,,,,,,
,,,,,,,,,R_2qqu8cm1WbYxBch,2022-09-03_15h01.45.928,jpn_C03,2022.1.2,Win32,61.74364041,,,,,,,,,,,,,,,,,right,1,1.0371,0,0,0,0,1,,,,,,,,,,,,,,,,,,,,,,,,,,,,,,,,,,,,,,,,,,,,,,,,,,,,,,,,,,,,,,,,
,,,,,,,,,R_2qqu8cm1WbYxBch,2022-09-03_15h01.45.928,jpn_C03,2022.1.2,Win32,61.74364041,,,,,,,,,,,,,,,,,,,,,,,,,0,4,4,9,1,CartoonStims/boxer_shoot_doctor_r.jpg,パツ　ピク　ドキ　ピポ,CartoonStims/boxer_point_doctor_r.jpg,right,CartoonStims/boxer_point_doctor_r.jpg,audio/patsupikudokipipo.mp3,"残念！ こちらが正しい画像です。

否定文は起きていないことを示しているのを思い出してください。",,,,,,,,,,,,,,,,,,,,,,,,,,,,,,,,,,,,,,,,,,,,,,,,,,,,
,,,,,,,,,R_2qqu8cm1WbYxBch,2022-09-03_15h01.45.928,jpn_C03,2022.1.2,Win32,61.74364041,,,,,,,,,,,,,,,,,right,1,1.8033,0,0,0,0,1,,,,,,,,,,,,,,,,,,,,,,,,,,,,,,,,,,,,,,,,,,,,,,,,,,,,,,,,,,,,,,,,
,,,,,,,,,R_2qqu8cm1WbYxBch,2022-09-03_15h01.45.928,jpn_C03,2022.1.2,Win32,61.74364041,,,,,,,,,,,,,,,,,,,,,,,,,0,5,5,7,1,CartoonStims/cowboy_point_chef_r.jpg,ピク　トマ　ムク　ホレト,CartoonStims/cowboy_kick_chef_r.jpg,right,CartoonStims/cowboy_kick_chef_r.jpg,audio/pikutomamukuhoreto.mp3,"残念！ こちらが正しい画像です。

否定文は起きていないことを示しているのを思い出してください。",,,,,,,,,,,,,,,,,,,,,,,,,,,,,,,,,,,,,,,,,,,,,,,,,,,,
,,,,,,,,,R_2qqu8cm1WbYxBch,2022-09-03_15h01.45.928,jpn_C03,2022.1.2,Win32,61.74364041,,,,,,,,,,,,,,,,,left,1,1.6808,,,,,,,,,,,,,,,,,,0,0,0,0,1,,,,,,,,,,,,,,,,,,,,,,,,,,,,,,,,,,,,,,,,,,,,,,,
,,,,,,,,,R_2qqu8cm1WbYxBch,2022-09-03_15h01.45.928,jpn_C03,2022.1.2,Win32,61.74364041,,,,,,,,,,,,,,,,,,,,,,,,,0,6,6,2,1,CartoonStims/doctor_point_boxer_r.jpg,プミ　ピク　ピポ　ドキ,CartoonStims/doctor_punch_boxer_r.jpg,left,CartoonStims/doctor_point_boxer_r.jpg,audio/pumipikupipodoki.mp3,"残念！ こちらが正しい画像です。

否定文は起きていないことを示しているのを思い出してください。",,,,,,,,,,,,,,,,,,,,,,,,,,,,,,,,,,,,,,,,,,,,,,,,,,,,
,,,,,,,,,R_2qqu8cm1WbYxBch,2022-09-03_15h01.45.928,jpn_C03,2022.1.2,Win32,61.74364041,,,,,,,,,,,,,,,,,right,1,1.0321,0,0,0,0,1,,,,,,,,,,,,,,,,,,,,,,,,,,,,,,,,,,,,,,,,,,,,,,,,,,,,,,,,,,,,,,,,
,,,,,,,,,R_2qqu8cm1WbYxBch,2022-09-03_15h01.45.928,jpn_C03,2022.1.2,Win32,61.74364041,,,,,,,,,,,,,,,,,,,,,,,,,0,7,7,5,1,CartoonStims/boxer_kick_cowboy_r.jpg,セル　ピク　ドキ　ムク,CartoonStims/boxer_punch_cowboy_r.jpg,right,CartoonStims/boxer_punch_cowboy_r.jpg,audio/serupikudokimuku.mp3,"残念！ こちらが正しい画像です。

否定文は起きていないことを示しているのを思い出してください。",,,,,,,,,,,,,,,,,,,,,,,,,,,,,,,,,,,,,,,,,,,,,,,,,,,,
,,,,,,,,,R_2qqu8cm1WbYxBch,2022-09-03_15h01.45.928,jpn_C03,2022.1.2,Win32,61.74364041,,,,,,,,,,,,,,,,,left,1,4.2437,,,,,,,,,,,,,,,,,,0,0,0,0,1,,,,,,,,,,,,,,,,,,,,,,,,,,,,,,,,,,,,,,,,,,,,,,,
,,,,,,,,,R_2qqu8cm1WbYxBch,2022-09-03_15h01.45.928,jpn_C03,2022.1.2,Win32,61.74364041,,,,,,,,,,,,,,,,,,,,,,,,,0,8,8,0,1,CartoonStims/artist_shoot_burglar_r.jpg,ピク　プミ　シド　ルピン,CartoonStims/artist_punch_burglar_r.jpg,left,CartoonStims/artist_shoot_burglar_r.jpg,audio/pikupumisidolupin.mp3,"残念！ こちらが正しい画像です。

否定文は起きていないことを示しているのを思い出してください。",,,,,,,,,,,,,,,,,,,,,,,,,,,,,,,,,,,,,,,,,,,,,,,,,,,,
,,,,,,,,,R_2qqu8cm1WbYxBch,2022-09-03_15h01.45.928,jpn_C03,2022.1.2,Win32,61.74364041,,,,,,,,,,,,,,,,,right,1,3.8818,0,0,0,0,1,,,,,,,,,,,,,,,,,,,,,,,,,,,,,,,,,,,,,,,,,,,,,,,,,,,,,,,,,,,,,,,,
,,,,,,,,,R_2qqu8cm1WbYxBch,2022-09-03_15h01.45.928,jpn_C03,2022.1.2,Win32,61.74364041,,,,,,,,,,,,,,,,,,,,,,,,,0,9,9,11,1,CartoonStims/chef_shoot_burglar_r.jpg,パツ　ピク　ホレト　ルピン,CartoonStims/chef_kick_burglar_r.jpg,right,CartoonStims/chef_kick_burglar_r.jpg,audio/patsupikuhoretolupin.mp3,"残念！ こちらが正しい画像です。

否定文は起きていないことを示しているのを思い出してください。",,,,,,,,,,,,,,,,,,,,,,,,,,,,,,,,,,,,,,,,,,,,,,,,,,,,
,,,,,,,,,R_2qqu8cm1WbYxBch,2022-09-03_15h01.45.928,jpn_C03,2022.1.2,Win32,61.74364041,,,,,,,,,,,,,,,,,left,1,7.0821,,,,,,,,,,,,,,,,,,0,0,0,0,1,,,,,,,,,,,,,,,,,,,,,,,,,,,,,,,,,,,,,,,,,,,,,,,
,,,,,,,,,R_2qqu8cm1WbYxBch,2022-09-03_15h01.45.928,jpn_C03,2022.1.2,Win32,61.74364041,,,,,,,,,,,,,,,,,,,,,,,,,0,10,10,10,1,CartoonStims/doctor_punch_cowboy_r.jpg,ピク　パツ　ピポ　ムク,CartoonStims/doctor_shoot_cowboy_r.jpg,left,CartoonStims/doctor_punch_cowboy_r.jpg,audio/pikupatsupipomuku.mp3,"残念！ こちらが正しい画像です。

否定文は起きていないことを示しているのを思い出してください。",,,,,,,,,,,,,,,,,,,,,,,,,,,,,,,,,,,,,,,,,,,,,,,,,,,,
,,,,,,,,,R_2qqu8cm1WbYxBch,2022-09-03_15h01.45.928,jpn_C03,2022.1.2,Win32,61.74364041,,,,,,,,,,,,,,,,,right,1,6.4075,0,0,0,0,1,,,,,,,,,,,,,,,,,,,,,,,,,,,,,,,,,,,,,,,,,,,,,,,,,,,,,,,,,,,,,,,,
,,,,,,,,,R_2qqu8cm1WbYxBch,2022-09-03_15h01.45.928,jpn_C03,2022.1.2,Win32,61.74364041,,,,,,,,,,,,,,,,,,,,,,,,,0,11,11,3,1,CartoonStims/chef_kick_artist_r.jpg,ピク　セル　ホレト　シド,CartoonStims/chef_point_artist_r.jpg,right,CartoonStims/chef_point_artist_r.jpg,audio/pikuseruhoretosido.mp3,"残念！ こちらが正しい画像です。

否定文は起きていないことを示しているのを思い出してください。",,,,,,,,,,,,,,,,,,,,,,,,,,,,,,,,,,,,,,,,,,,,,,,,,,,,
,,,,,,,,,R_2qqu8cm1WbYxBch,2022-09-03_15h01.45.928,jpn_C03,2022.1.2,Win32,61.74364041,,,,,,,,,,,,,CartoonStims/chef_point_burglar_r.jpg,,,,,,,,,,,,,,,,,,,,,,,,,,,,,space,0.3086,トマ　ホレト　ルピン,right,11.6423,,,,,,0,0,0,29,1,,,,,,,,,,,,,,,,,,,,,,,,,,,,,,トマ　ホレト　ルピン,トマ　ホレト　ルピン,0
,,,,,,,,,R_2qqu8cm1WbYxBch,2022-09-03_15h01.45.928,jpn_C03,2022.1.2,Win32,61.74364041,,,,,,,,,,,,,CartoonStims/doctor_punch_boxer_r.jpg,,,,,,,,,,,,,,,,,,,,,,,,,,,,,,,ピク　ピポ　ドキ,right,11.4752,,,,,,0,1,1,34,1,,,,,,,,,,,,,,,,,,,,,,,,,,,,,,プミ　ピポ　ドキ,プミ　ピポ　ドキ,0
,,,,,,,,,R_2qqu8cm1WbYxBch,2022-09-03_15h01.45.928,jpn_C03,2022.1.2,Win32,61.74364041,,,,,,,,,,,,,CartoonStims/artist_punch_burglar_r.jpg,,,,,,,,,,,,,,,,,,,,,,,,,,,,,,,ピク　シド　ルピン,right,6.3556,,,,,,0,2,2,33,1,,,,,,,,,,,,,,,,,,,,,,,,,,,,,,プミ　シド　ルピン,プミ　シド　ルピン,0
,,,,,,,,,R_2qqu8cm1WbYxBch,2022-09-03_15h01.45.928,jpn_C03,2022.1.2,Win32,61.74364041,,,,,,,,,,,,,CartoonStims/doctor_kick_chef_r.jpg,,,,,,,,,,,,,,,,,,,,,,,,,,,,,,,セル　ピポ　ホレト,right,10.1174,,,,,,0,3,3,25,1,,,,,,,,,,,,,,,,,,,,,,,,,,,,,,セル　ピポ　ホレト,セル　ピポ　ホレト,0
,,,,,,,,,R_2qqu8cm1WbYxBch,2022-09-03_15h01.45.928,jpn_C03,2022.1.2,Win32,61.74364041,,,,,,,,,,,,,CartoonStims/artist_point_boxer_r.jpg,,,,,,,,,,,,,,,,,,,,,,,,,,,,,,,トマ　シド　ドキ,right,11.3277,,,,,,0,4,4,27,1,,,,,,,,,,,,,,,,,,,,,,,,,,,,,,トマ　シド　ドキ,トマ　シド　ドキ,0
,,,,,,,,,R_2qqu8cm1WbYxBch,2022-09-03_15h01.45.928,jpn_C03,2022.1.2,Win32,61.74364041,,,,,,,,,,,,,CartoonStims/boxer_kick_cowboy_r.jpg,,,,,,,,,,,,,,,,,,,,,,,,,,,,,,,セル　ドキ　ムク,right,5.9088,,,,,,0,5,5,26,1,,,,,,,,,,,,,,,,,,,,,,,,,,,,,,セル　ドキ　ムク,セル　ドキ　ムク,0
,,,,,,,,,R_2qqu8cm1WbYxBch,2022-09-03_15h01.45.928,jpn_C03,2022.1.2,Win32,61.74364041,,,,,,,,,,,,,CartoonStims/chef_shoot_cowboy_r.jpg,,,,,,,,,,,,,,,,,,,,,,,,,,,,,,,パツ　ホレト　ムク,right,8.9456,,,,,,0,6,6,31,1,,,,,,,,,,,,,,,,,,,,,,,,,,,,,,パツ　ホレト　ムク,パツ　ホレト　ムク,0
,,,,,,,,,R_2qqu8cm1WbYxBch,2022-09-03_15h01.45.928,jpn_C03,2022.1.2,Win32,61.74364041,,,,,,,,,,,,,CartoonStims/cowboy_shoot_boxer_r_no.jpg,,,,,,,,,,,,,,,,,,,,,,,,,,,,,,,ピク　パツ　ホレト　ドキ,right,12.42,,,,,,0,7,7,15,1,,,,,,,,,,,,,,,,,,,,,,,,,,,,,,ピク　パツ　ムク　ドキ,パツ　ピク　ムク　ドキ,1
,,,,,,,,,R_2qqu8cm1WbYxBch,2022-09-03_15h01.45.928,jpn_C03,2022.1.2,Win32,61.74364041,,,,,,,,,,,,,CartoonStims/cowboy_shoot_doctor_r.jpg,,,,,,,,,,,,,,,,,,,,,,,,,,,,,,,ピク　パツ　ムク　ピポ,right,19.9931,,,,,,0,8,8,32,1,,,,,,,,,,,,,,,,,,,,,,,,,,,,,,パツ　ムク　ピポ,パツ　ムク　ピポ,0
,,,,,,,,,R_2qqu8cm1WbYxBch,2022-09-03_15h01.45.928,jpn_C03,2022.1.2,Win32,61.74364041,,,,,,,,,,,,,CartoonStims/boxer_point_artist_r_no.jpg,,,,,,,,,,,,,,,,,,,,,,,,,,,,,,,トマ　ピク　ルピン　シド,right,12.407,,,,,,0,9,9,11,1,,,,,,,,,,,,,,,,,,,,,,,,,,,,,,ピク　トマ　ドキ　シド,トマ　ピク　ドキ　シド,1
,,,,,,,,,R_2qqu8cm1WbYxBch,2022-09-03_15h01.45.928,jpn_C03,2022.1.2,Win32,61.74364041,,,,,,,,,,,,,CartoonStims/chef_point_cowboy_r_no.jpg,,,,,,,,,,,,,,,,,,,,,,,,,,,,,,,トマ　ピク　ホレト　ムク,right,9.8623,,,,,,0,10,10,8,1,,,,,,,,,,,,,,,,,,,,,,,,,,,,,,ピク　トマ　ホレト　ムク,トマ　ピク　ホレト　ムク,1
,,,,,,,,,R_2qqu8cm1WbYxBch,2022-09-03_15h01.45.928,jpn_C03,2022.1.2,Win32,61.74364041,,,,,,,,,,,,,CartoonStims/artist_kick_boxer_r_no.jpg,,,,,,,,,,,,,,,,,,,,,,,,,,,,,,,ピク　セル　シド　ドキ,right,9.5941,,,,,,0,11,11,0,1,,,,,,,,,,,,,,,,,,,,,,,,,,,,,,ピク　セル　シド　ドキ,セル　ピク　シド　ドキ,1
,,,,,,,,,R_2qqu8cm1WbYxBch,2022-09-03_15h01.45.928,jpn_C03,2022.1.2,Win32,61.74364041,,,,,,,,,,,,,CartoonStims/burglar_kick_artist_r_no.jpg,,,,,,,,,,,,,,,,,,,,,,,,,,,,,,,ピク　セル　ルピン　シド,right,9.3959,,,,,,0,12,12,1,1,,,,,,,,,,,,,,,,,,,,,,,,,,,,,,ピク　セル　ルピン　シド,セル　ピク　ルピン　シド,1
,,,,,,,,,R_2qqu8cm1WbYxBch,2022-09-03_15h01.45.928,jpn_C03,2022.1.2,Win32,61.74364041,,,,,,,,,,,,,CartoonStims/burglar_point_artist_r.jpg,,,,,,,,,,,,,,,,,,,,,,,,,,,,,,,トマ　ルピン　シド,right,5.3719,,,,,,0,13,13,28,1,,,,,,,,,,,,,,,,,,,,,,,,,,,,,,トマ　ルピン　シド,トマ　ルピン　シド,0
,,,,,,,,,R_2qqu8cm1WbYxBch,2022-09-03_15h01.45.928,jpn_C03,2022.1.2,Win32,61.74364041,,,,,,,,,,,,,CartoonStims/chef_punch_boxer_r_no.jpg,,,,,,,,,,,,,,,,,,,,,,,,,,,,,,,プミ　ピク　ホレト　ドキ,right,13.0608,,,,,,0,14,14,20,1,,,,,,,,,,,,,,,,,,,,,,,,,,,,,,ピク　プミ　ホレト　ドキ,プミ　ピク　ホレト　ドキ,1
,,,,,,,,,R_2qqu8cm1WbYxBch,2022-09-03_15h01.45.928,jpn_C03,2022.1.2,Win32,61.74364041,,,,,,,,,,,,,CartoonStims/cowboy_kick_chef_r_no.jpg,,,,,,,,,,,,,,,,,,,,,,,,,,,,,,,セル　ピク　ムク　ホレト,right,15.5734,,,,,,0,15,15,3,1,,,,,,,,,,,,,,,,,,,,,,,,,,,,,,ピク　セル　ムク　ホレト,セル　ピク　ムク　ホレト,1
,,,,,,,,,R_2qqu8cm1WbYxBch,2022-09-03_15h01.45.928,jpn_C03,2022.1.2,Win32,61.74364041,,,,,,,,,,,,,CartoonStims/artist_shoot_chef_r_no.jpg,,,,,,,,,,,,,,,,,,,,,,,,,,,,,,,パツ　ピク　シド　ホレト,right,8.4645,,,,,,0,16,16,12,1,,,,,,,,,,,,,,,,,,,,,,,,,,,,,,ピク　パツ　シド　ホレト,パツ　ピク　シド　ホレト,1
,,,,,,,,,R_2qqu8cm1WbYxBch,2022-09-03_15h01.45.928,jpn_C03,2022.1.2,Win32,61.74364041,,,,,,,,,,,,,CartoonStims/boxer_punch_chef_r_no.jpg,,,,,,,,,,,,,,,,,,,,,,,,,,,,,,,パツ　ピク　ドキ　ホレト,right,9.4365,,,,,,0,17,17,23,1,,,,,,,,,,,,,,,,,,,,,,,,,,,,,,ピク　プミ　ドキ　ホレト,プミ　ピク　ドキ　ホレト,1
,,,,,,,,,R_2qqu8cm1WbYxBch,2022-09-03_15h01.45.928,jpn_C03,2022.1.2,Win32,61.74364041,,,,,,,,,,,,,CartoonStims/boxer_kick_doctor_r_no.jpg,,,,,,,,,,,,,,,,,,,,,,,,,,,,,,,ピク　セル　ドキ　ピポ,right,6.2847,,,,,,0,18,18,5,1,,,,,,,,,,,,,,,,,,,,,,,,,,,,,,ピク　セル　ドキ　ピポ,セル　ピク　ドキ　ピポ,1
,,,,,,,,,R_2qqu8cm1WbYxBch,2022-09-03_15h01.45.928,jpn_C03,2022.1.2,Win32,61.74364041,,,,,,,,,,,,,CartoonStims/cowboy_punch_artist_r_no.jpg,,,,,,,,,,,,,,,,,,,,,,,,,,,,,,,プミ　ピク　ムク　シド,right,11.9939,,,,,,0,19,19,21,1,,,,,,,,,,,,,,,,,,,,,,,,,,,,,,ピク　プミ　ムク　シド,プミ　ピク　ムク　シド,1
,,,,,,,,,R_2qqu8cm1WbYxBch,2022-09-03_15h01.45.928,jpn_C03,2022.1.2,Win32,61.74364041,,,,,,,,,,,,,CartoonStims/burglar_punch_doctor_r_no.jpg,,,,,,,,,,,,,,,,,,,,,,,,,,,,,,,プミ　ピク　ルピン　ピポ,right,11.4103,,,,,,0,20,20,19,1,,,,,,,,,,,,,,,,,,,,,,,,,,,,,,ピク　プミ　ルピン　ピポ,プミ　ピク　ルピン　ピポ,1
,,,,,,,,,R_2qqu8cm1WbYxBch,2022-09-03_15h01.45.928,jpn_C03,2022.1.2,Win32,61.74364041,,,,,,,,,,,,,CartoonStims/burglar_point_chef_r_no.jpg,,,,,,,,,,,,,,,,,,,,,,,,,,,,,,,トマ　ピク　ルピン　ホレト,right,10.7076,,,,,,0,21,21,7,1,,,,,,,,,,,,,,,,,,,,,,,,,,,,,,ピク　トマ　ルピン　ホレト,トマ　ピク　ルピン　ホレト,1
,,,,,,,,,R_2qqu8cm1WbYxBch,2022-09-03_15h01.45.928,jpn_C03,2022.1.2,Win32,61.74364041,,,,,,,,,,,,,CartoonStims/artist_punch_cowboy_r_no.jpg,,,,,,,,,,,,,,,,,,,,,,,,,,,,,,,プミ　ピク　シド　ムク,right,14.8689,,,,,,0,22,22,18,1,,,,,,,,,,,,,,,,,,,,,,,,,,,,,,ピク　プミ　シド　ムク,プミ　ピク　シド　ムク,1
,,,,,,,,,R_2qqu8cm1WbYxBch,2022-09-03_15h01.45.928,jpn_C03,2022.1.2,Win32,61.74364041,,,,,,,,,,,,,CartoonStims/cowboy_kick_burglar_r.jpg,,,,,,,,,,,,,,,,,,,,,,,,,,,,,,,セル　ムク　ルピン,right,4.6544,,,,,,0,23,23,24,1,,,,,,,,,,,,,,,,,,,,,,,,,,,,,,セル　ムク　ルピン,セル　ムク　ルピン,0
,,,,,,,,,R_2qqu8cm1WbYxBch,2022-09-03_15h01.45.928,jpn_C03,2022.1.2,Win32,61.74364041,,,,,,,,,,,,,CartoonStims/boxer_punch_artist_r.jpg,,,,,,,,,,,,,,,,,,,,,,,,,,,,,,,プミ　ドキ　シド,right,6.0101,,,,,,0,24,24,35,1,,,,,,,,,,,,,,,,,,,,,,,,,,,,,,プミ　ドキ　シド,プミ　ドキ　シド,0
,,,,,,,,,R_2qqu8cm1WbYxBch,2022-09-03_15h01.45.928,jpn_C03,2022.1.2,Win32,61.74364041,,,,,,,,,,,,,CartoonStims/boxer_shoot_burglar_r_no.jpg,,,,,,,,,,,,,,,,,,,,,,,,,,,,,,,パツ　ピク　ドキ　ルピン,right,6.3682,,,,,,0,25,25,17,1,,,,,,,,,,,,,,,,,,,,,,,,,,,,,,ピク　パツ　ドキ　ルピン,パツ　ピク　ドキ　ルピン,1
,,,,,,,,,R_2qqu8cm1WbYxBch,2022-09-03_15h01.45.928,jpn_C03,2022.1.2,Win32,61.74364041,,,,,,,,,,,,,CartoonStims/artist_point_burglar_r_no.jpg,,,,,,,,,,,,,,,,,,,,,,,,,,,,,,,トマ　ピク　シド　ルピン,right,7.2307,,,,,,0,26,26,6,1,,,,,,,,,,,,,,,,,,,,,,,,,,,,,,ピク　トマ　シド　ルピン,トマ　ピク　シド　ルピン,1
,,,,,,,,,R_2qqu8cm1WbYxBch,2022-09-03_15h01.45.928,jpn_C03,2022.1.2,Win32,61.74364041,,,,,,,,,,,,,CartoonStims/chef_shoot_doctor_r_no.jpg,,,,,,,,,,,,,,,,,,,,,,,,,,,,,,,パツ　ピク　ホレト　ピポ,right,13.7599,,,,,,0,27,27,14,1,,,,,,,,,,,,,,,,,,,,,,,,,,,,,,ピク　パツ　ホレト　ピポ,パツ　ピク　ホレト　ピポ,1
,,,,,,,,,R_2qqu8cm1WbYxBch,2022-09-03_15h01.45.928,jpn_C03,2022.1.2,Win32,61.74364041,,,,,,,,,,,,,CartoonStims/chef_kick_burglar_r_no.jpg,,,,,,,,,,,,,,,,,,,,,,,,,,,,,,,ピク　セル　ホレト　ルピン,right,6.8074,,,,,,0,28,28,2,1,,,,,,,,,,,,,,,,,,,,,,,,,,,,,,ピク　セル　ホレト　ルピン,セル　ピク　ホレト　ルピン,1
,,,,,,,,,R_2qqu8cm1WbYxBch,2022-09-03_15h01.45.928,jpn_C03,2022.1.2,Win32,61.74364041,,,,,,,,,,,,,CartoonStims/doctor_shoot_artist_r_no.jpg,,,,,,,,,,,,,,,,,,,,,,,,,,,,,,,パツ　ピク　ピポ　シド,right,7.1498,,,,,,0,29,29,16,1,,,,,,,,,,,,,,,,,,,,,,,,,,,,,,ピク　パツ　ピポ　シド,パツ　ピク　ピポ　シド,1
,,,,,,,,,R_2qqu8cm1WbYxBch,2022-09-03_15h01.45.928,jpn_C03,2022.1.2,Win32,61.74364041,,,,,,,,,,,,,CartoonStims/burglar_shoot_cowboy_r_no.jpg,,,,,,,,,,,,,,,,,,,,,,,,,,,,,,,パツ　ピク　ルピン　ムク,right,5.8026,,,,,,0,30,30,13,1,,,,,,,,,,,,,,,,,,,,,,,,,,,,,,ピク　パツ　ルピン　ムク,パツ　ピク　ルピン　ムク,1
,,,,,,,,,R_2qqu8cm1WbYxBch,2022-09-03_15h01.45.928,jpn_C03,2022.1.2,Win32,61.74364041,,,,,,,,,,,,,CartoonStims/doctor_punch_burglar_r_no.jpg,,,,,,,,,,,,,,,,,,,,,,,,,,,,,,,プミ　ピク　ピポ　ルピン,right,12.5429,,,,,,0,31,31,22,1,,,,,,,,,,,,,,,,,,,,,,,,,,,,,,ピク　プミ　ピポ　ルピン,プミ　ピク　ピポ　ルピン,1
,,,,,,,,,R_2qqu8cm1WbYxBch,2022-09-03_15h01.45.928,jpn_C03,2022.1.2,Win32,61.74364041,,,,,,,,,,,,,CartoonStims/burglar_shoot_chef_r.jpg,,,,,,,,,,,,,,,,,,,,,,,,,,,,,,,パツ　ルピン　ホレト,right,4.0216,,,,,,0,32,32,30,1,,,,,,,,,,,,,,,,,,,,,,,,,,,,,,パツ　ルピン　ホレト,パツ　ルピン　ホレト,0
,,,,,,,,,R_2qqu8cm1WbYxBch,2022-09-03_15h01.45.928,jpn_C03,2022.1.2,Win32,61.74364041,,,,,,,,,,,,,CartoonStims/doctor_kick_cowboy_r_no.jpg,,,,,,,,,,,,,,,,,,,,,,,,,,,,,,,ピク　セル　ピポ　ムク,right,8.4846,,,,,,0,33,33,4,1,,,,,,,,,,,,,,,,,,,,,,,,,,,,,,ピク　セル　ピポ　ムク,セル　ピク　ピポ　ムク,1
,,,,,,,,,R_2qqu8cm1WbYxBch,2022-09-03_15h01.45.928,jpn_C03,2022.1.2,Win32,61.74364041,,,,,,,,,,,,,CartoonStims/cowboy_point_doctor_r_no.jpg,,,,,,,,,,,,,,,,,,,,,,,,,,,,,,,トマ　ピク　ムク　ピポ,right,9.266,,,,,,0,34,34,9,1,,,,,,,,,,,,,,,,,,,,,,,,,,,,,,ピク　トマ　ムク　ピポ,トマ　ピク　ムク　ピポ,1
,,,,,,,,,R_2qqu8cm1WbYxBch,2022-09-03_15h01.45.928,jpn_C03,2022.1.2,Win32,61.74364041,,,,,,,,,,,,,CartoonStims/doctor_point_boxer_r_no.jpg,,,,,,,,,,,,,,,,,,,,,,,,,,,,,,,トマ　ピク　ピポ　ドキ,right,9.4269,,,,,,0,35,35,10,1,,,,,,,,,,,,,,,,,,,,,,,,,,,,,,ピク　トマ　ピポ　ドキ,トマ　ピク　ピポ　ドキ,1
,,,,,,,,,R_2qqu8cm1WbYxBch,2022-09-03_15h01.45.928,jpn_C03,2022.1.2,Win32,61.74364041,,,,,,,,,,,,,,,,,,,,,,,,,,,,,,,,,,,,,,,,,,,,,,,,,,,,,,,,,,,space,0.4799,0,2,2,2,1,VNegCondition.xlsx,"ここではこの言語における否定の文を学習していただきます。引き続き注意して、 聞こえた音を復唱してください。

スペースキーを押してください。",1,VNegFCT.xlsx,ここからクイズが始まります。 スクリーンに表示されるテキストに合うイメージを選んでください。,NegTest.xlsx,1,最後にここまで学んだことをアウトプットしていただきます。 テキストボックスにあるイメージを描写するテキストを入力してください。 このタスクでは、 答え合わせは行いません。,0,これですべての実験が終わりました。 お疲れさまです。 この後はアンケートに答えていただきます。,,,,,,,,,,,,,