key_resp_instr_a.keys,key_resp_instr_a.rt,key_resp_instr_b.keys,key_resp_instr_b.rt,dummy.thisRepN,dummy.thisTrialN,dummy.thisN,dummy.thisIndex,dummy.ran,participant,date,expName,psychopyVersion,OS,frameRate,key_resp_instr1.keys,key_resp_instr1.rt,key_resp.keys,key_resp.rt,exp_loop.thisRepN,exp_loop.thisTrialN,exp_loop.thisN,exp_loop.thisIndex,exp_loop.ran,Word,English,Flip,Path,Audio,key_resp_instr2.keys,key_resp_instr2.rt,key_resp_fct.keys,key_resp_fct.corr,key_resp_fct.rt,trials_2.thisRepN,trials_2.thisTrialN,trials_2.thisN,trials_2.thisIndex,trials_2.ran,fct_loop.thisRepN,fct_loop.thisTrialN,fct_loop.thisN,fct_loop.thisIndex,fct_loop.ran,left_img,word,right_img,correctans,correct_img,audio,incorrect_feedback,trials_3.thisRepN,trials_3.thisTrialN,trials_3.thisN,trials_3.thisIndex,trials_3.ran,trials.thisRepN,trials.thisTrialN,trials.thisN,trials.thisIndex,trials.ran,trials_4.thisRepN,trials_4.thisTrialN,trials_4.thisN,trials_4.thisIndex,trials_4.ran,key_resp_instr3.keys,key_resp_instr3.rt,textbox.text,key_resp_2.keys,key_resp_2.rt,fb_yn.thisRepN,fb_yn.thisTrialN,fb_yn.thisN,fb_yn.thisIndex,fb_yn.ran,gather_loop.thisRepN,gather_loop.thisTrialN,gather_loop.thisN,gather_loop.thisIndex,gather_loop.ran,Text,Wordbank,key_resp_instr4.keys,key_resp_instr4.rt,master_loop.thisRepN,master_loop.thisTrialN,master_loop.thisN,master_loop.thisIndex,master_loop.ran,exposure_file,instr_1,exp_reps,fct_file,instr_2,gather_file,gather_reps,instr_3,fReps,instr_4,NegVSentence,VNegSentence,NegTF
space,3.9309,space,9.2043,0,0,0,0,1,R_sKVlsNZLMGzhiOR,2022-07-08_02h23.23.676,jpn_C02,2022.1.2,Win32,60.32090723,,,,,,,,,,,,,,,,,,,,,,,,,,,,,,,,,,,,,,,,,,,,,,,,,,,,,,,,,,,,,,,,,,,,,,,,,,,,,,,,,,,,,,,,
,,,,,,,,,R_sKVlsNZLMGzhiOR,2022-07-08_02h23.23.676,jpn_C02,2022.1.2,Win32,60.32090723,space,17.8906,space,7.0088,0,0,0,3,1,ムク,cowboy,,CartoonStims/cowboy_r.jpg,audio/muku.mp3,,,,,,,,,,,,,,,,,,,,,,,,,,,,,,,,,,,,,,,,,,,,,,,,,,,,,,,,,,,,,,,,,,,,,,,,,,
,,,,,,,,,R_sKVlsNZLMGzhiOR,2022-07-08_02h23.23.676,jpn_C02,2022.1.2,Win32,60.32090723,,,space,3.7619,0,1,1,4,1,ピポ,doctor,,CartoonStims/doctor_r.jpg,audio/pipo.mp3,,,,,,,,,,,,,,,,,,,,,,,,,,,,,,,,,,,,,,,,,,,,,,,,,,,,,,,,,,,,,,,,,,,,,,,,,,
,,,,,,,,,R_sKVlsNZLMGzhiOR,2022-07-08_02h23.23.676,jpn_C02,2022.1.2,Win32,60.32090723,,,space,3.9551,0,2,2,1,1,ルピン,burglar,,CartoonStims/burglar_r.jpg,audio/lupin.mp3,,,,,,,,,,,,,,,,,,,,,,,,,,,,,,,,,,,,,,,,,,,,,,,,,,,,,,,,,,,,,,,,,,,,,,,,,,
,,,,,,,,,R_sKVlsNZLMGzhiOR,2022-07-08_02h23.23.676,jpn_C02,2022.1.2,Win32,60.32090723,,,space,3.4149,0,3,3,5,1,ドキ,boxer,,CartoonStims/boxer_r.jpg,audio/doki.mp3,,,,,,,,,,,,,,,,,,,,,,,,,,,,,,,,,,,,,,,,,,,,,,,,,,,,,,,,,,,,,,,,,,,,,,,,,,
,,,,,,,,,R_sKVlsNZLMGzhiOR,2022-07-08_02h23.23.676,jpn_C02,2022.1.2,Win32,60.32090723,,,space,3.1132,0,4,4,0,1,シド,artist,,CartoonStims/artist_r.jpg,audio/sido.mp3,,,,,,,,,,,,,,,,,,,,,,,,,,,,,,,,,,,,,,,,,,,,,,,,,,,,,,,,,,,,,,,,,,,,,,,,,,
,,,,,,,,,R_sKVlsNZLMGzhiOR,2022-07-08_02h23.23.676,jpn_C02,2022.1.2,Win32,60.32090723,,,space,4.681,0,5,5,2,1,ホレト,chef,,CartoonStims/chef_r.jpg,audio/horeto.mp3,,,,,,,,,,,,,,,,,,,,,,,,,,,,,,,,,,,,,,,,,,,,,,,,,,,,,,,,,,,,,,,,,,,,,,,,,,
,,,,,,,,,R_sKVlsNZLMGzhiOR,2022-07-08_02h23.23.676,jpn_C02,2022.1.2,Win32,60.32090723,,,space,1.0481,1,0,6,3,1,ムク,cowboy,,CartoonStims/cowboy_r.jpg,audio/muku.mp3,,,,,,,,,,,,,,,,,,,,,,,,,,,,,,,,,,,,,,,,,,,,,,,,,,,,,,,,,,,,,,,,,,,,,,,,,,
,,,,,,,,,R_sKVlsNZLMGzhiOR,2022-07-08_02h23.23.676,jpn_C02,2022.1.2,Win32,60.32090723,,,space,1.625,1,1,7,0,1,シド,artist,,CartoonStims/artist_r.jpg,audio/sido.mp3,,,,,,,,,,,,,,,,,,,,,,,,,,,,,,,,,,,,,,,,,,,,,,,,,,,,,,,,,,,,,,,,,,,,,,,,,,
,,,,,,,,,R_sKVlsNZLMGzhiOR,2022-07-08_02h23.23.676,jpn_C02,2022.1.2,Win32,60.32090723,,,space,1.4522,1,2,8,4,1,ピポ,doctor,,CartoonStims/doctor_r.jpg,audio/pipo.mp3,,,,,,,,,,,,,,,,,,,,,,,,,,,,,,,,,,,,,,,,,,,,,,,,,,,,,,,,,,,,,,,,,,,,,,,,,,
,,,,,,,,,R_sKVlsNZLMGzhiOR,2022-07-08_02h23.23.676,jpn_C02,2022.1.2,Win32,60.32090723,,,space,2.7385,1,3,9,1,1,ルピン,burglar,,CartoonStims/burglar_r.jpg,audio/lupin.mp3,,,,,,,,,,,,,,,,,,,,,,,,,,,,,,,,,,,,,,,,,,,,,,,,,,,,,,,,,,,,,,,,,,,,,,,,,,
,,,,,,,,,R_sKVlsNZLMGzhiOR,2022-07-08_02h23.23.676,jpn_C02,2022.1.2,Win32,60.32090723,,,space,2.4071,1,4,10,5,1,ドキ,boxer,,CartoonStims/boxer_r.jpg,audio/doki.mp3,,,,,,,,,,,,,,,,,,,,,,,,,,,,,,,,,,,,,,,,,,,,,,,,,,,,,,,,,,,,,,,,,,,,,,,,,,
,,,,,,,,,R_sKVlsNZLMGzhiOR,2022-07-08_02h23.23.676,jpn_C02,2022.1.2,Win32,60.32090723,,,space,1.6461,1,5,11,2,1,ホレト,chef,,CartoonStims/chef_r.jpg,audio/horeto.mp3,,,,,,,,,,,,,,,,,,,,,,,,,,,,,,,,,,,,,,,,,,,,,,,,,,,,,,,,,,,,,,,,,,,,,,,,,,
,,,,,,,,,R_sKVlsNZLMGzhiOR,2022-07-08_02h23.23.676,jpn_C02,2022.1.2,Win32,60.32090723,,,space,1.4739,2,0,12,4,1,ピポ,doctor,,CartoonStims/doctor_r.jpg,audio/pipo.mp3,,,,,,,,,,,,,,,,,,,,,,,,,,,,,,,,,,,,,,,,,,,,,,,,,,,,,,,,,,,,,,,,,,,,,,,,,,
,,,,,,,,,R_sKVlsNZLMGzhiOR,2022-07-08_02h23.23.676,jpn_C02,2022.1.2,Win32,60.32090723,,,space,1.4448,2,1,13,5,1,ドキ,boxer,,CartoonStims/boxer_r.jpg,audio/doki.mp3,,,,,,,,,,,,,,,,,,,,,,,,,,,,,,,,,,,,,,,,,,,,,,,,,,,,,,,,,,,,,,,,,,,,,,,,,,
,,,,,,,,,R_sKVlsNZLMGzhiOR,2022-07-08_02h23.23.676,jpn_C02,2022.1.2,Win32,60.32090723,,,space,1.2525,2,2,14,3,1,ムク,cowboy,,CartoonStims/cowboy_r.jpg,audio/muku.mp3,,,,,,,,,,,,,,,,,,,,,,,,,,,,,,,,,,,,,,,,,,,,,,,,,,,,,,,,,,,,,,,,,,,,,,,,,,
,,,,,,,,,R_sKVlsNZLMGzhiOR,2022-07-08_02h23.23.676,jpn_C02,2022.1.2,Win32,60.32090723,,,space,1.4868,2,3,15,2,1,ホレト,chef,,CartoonStims/chef_r.jpg,audio/horeto.mp3,,,,,,,,,,,,,,,,,,,,,,,,,,,,,,,,,,,,,,,,,,,,,,,,,,,,,,,,,,,,,,,,,,,,,,,,,,
,,,,,,,,,R_sKVlsNZLMGzhiOR,2022-07-08_02h23.23.676,jpn_C02,2022.1.2,Win32,60.32090723,,,space,1.3578,2,4,16,1,1,ルピン,burglar,,CartoonStims/burglar_r.jpg,audio/lupin.mp3,,,,,,,,,,,,,,,,,,,,,,,,,,,,,,,,,,,,,,,,,,,,,,,,,,,,,,,,,,,,,,,,,,,,,,,,,,
,,,,,,,,,R_sKVlsNZLMGzhiOR,2022-07-08_02h23.23.676,jpn_C02,2022.1.2,Win32,60.32090723,,,space,1.5474,2,5,17,0,1,シド,artist,,CartoonStims/artist_r.jpg,audio/sido.mp3,,,,,,,,,,,,,,,,,,,,,,,,,,,,,,,,,,,,,,,,,,,,,,,,,,,,,,,,,,,,,,,,,,,,,,,,,,
,,,,,,,,,R_sKVlsNZLMGzhiOR,2022-07-08_02h23.23.676,jpn_C02,2022.1.2,Win32,60.32090723,,,,,,,,,,,,,,,space,9.5177,right,1,1.0187,0,0,0,0,1,,,,,,,,,,,,,,,,,,,,,,,,,,,,,,,,,,,,,,,,,,,,,,,,,,,,,,,,,,,,,,,,
,,,,,,,,,R_sKVlsNZLMGzhiOR,2022-07-08_02h23.23.676,jpn_C02,2022.1.2,Win32,60.32090723,,,,,,,,,,,,,,,,,,,,,,,,,0,0,0,11,1,CartoonStims/burglar_r.jpg,ドキ,CartoonStims/boxer_r.jpg,right,CartoonStims/boxer_r.jpg,audio/doki.mp3,残念！ こちらが正しい画像です。,,,,,,,,,,,,,,,,,,,,,,,,,,,,,,,,,,,,,,,,,,,,,,,,,,,,
,,,,,,,,,R_sKVlsNZLMGzhiOR,2022-07-08_02h23.23.676,jpn_C02,2022.1.2,Win32,60.32090723,,,,,,,,,,,,,,,,,right,0,1.9123,,,,,,,,,,,,,,,,,,0,0,0,0,1,,,,,,,,,,,,,,,,,,,,,,,,,,,,,,,,,,,,,,,,,,,,,,,
,,,,,,,,,R_sKVlsNZLMGzhiOR,2022-07-08_02h23.23.676,jpn_C02,2022.1.2,Win32,60.32090723,,,,,,,,,,,,,,,,,,,,,,,,,0,1,1,0,1,CartoonStims/artist_r.jpg,シド,CartoonStims/burglar_r.jpg,left,CartoonStims/artist_r.jpg,audio/sido.mp3,残念！ こちらが正しい画像です。,,,,,,,,,,,,,,,,,,,,,,,,,,,,,,,,,,,,,,,,,,,,,,,,,,,,
,,,,,,,,,R_sKVlsNZLMGzhiOR,2022-07-08_02h23.23.676,jpn_C02,2022.1.2,Win32,60.32090723,,,,,,,,,,,,,,,,,right,1,1.3078,0,0,0,0,1,,,,,,,,,,,,,,,,,,,,,,,,,,,,,,,,,,,,,,,,,,,,,,,,,,,,,,,,,,,,,,,,
,,,,,,,,,R_sKVlsNZLMGzhiOR,2022-07-08_02h23.23.676,jpn_C02,2022.1.2,Win32,60.32090723,,,,,,,,,,,,,,,,,,,,,,,,,0,2,2,9,1,CartoonStims/boxer_r.jpg,ムク,CartoonStims/cowboy_r.jpg,right,CartoonStims/cowboy_r.jpg,audio/muku.mp3,残念！ こちらが正しい画像です。,,,,,,,,,,,,,,,,,,,,,,,,,,,,,,,,,,,,,,,,,,,,,,,,,,,,
,,,,,,,,,R_sKVlsNZLMGzhiOR,2022-07-08_02h23.23.676,jpn_C02,2022.1.2,Win32,60.32090723,,,,,,,,,,,,,,,,,left,1,1.3529,,,,,,,,,,,,,,,,,,,,,,,0,0,0,0,1,,,,,,,,,,,,,,,,,,,,,,,,,,,,,,,,,,,,,,,,,,
,,,,,,,,,R_sKVlsNZLMGzhiOR,2022-07-08_02h23.23.676,jpn_C02,2022.1.2,Win32,60.32090723,,,,,,,,,,,,,,,,,,,,,,,,,0,3,3,2,1,CartoonStims/chef_r.jpg,ホレト,CartoonStims/cowboy_r.jpg,left,CartoonStims/chef_r.jpg,audio/horeto.mp3,残念！ こちらが正しい画像です。,,,,,,,,,,,,,,,,,,,,,,,,,,,,,,,,,,,,,,,,,,,,,,,,,,,,
,,,,,,,,,R_sKVlsNZLMGzhiOR,2022-07-08_02h23.23.676,jpn_C02,2022.1.2,Win32,60.32090723,,,,,,,,,,,,,,,,,right,1,1.0982,0,0,0,0,1,,,,,,,,,,,,,,,,,,,,,,,,,,,,,,,,,,,,,,,,,,,,,,,,,,,,,,,,,,,,,,,,
,,,,,,,,,R_sKVlsNZLMGzhiOR,2022-07-08_02h23.23.676,jpn_C02,2022.1.2,Win32,60.32090723,,,,,,,,,,,,,,,,,,,,,,,,,0,4,4,7,1,CartoonStims/cowboy_r.jpg,ルピン,CartoonStims/burglar_r.jpg,right,CartoonStims/burglar_r.jpg,audio/lupin.mp3,残念！ こちらが正しい画像です。,,,,,,,,,,,,,,,,,,,,,,,,,,,,,,,,,,,,,,,,,,,,,,,,,,,,
,,,,,,,,,R_sKVlsNZLMGzhiOR,2022-07-08_02h23.23.676,jpn_C02,2022.1.2,Win32,60.32090723,,,,,,,,,,,,,,,,,left,0,4.2044,,,,,,,,,,,,,,,,,,,,,,,,,,,,0,0,0,0,1,,,,,,,,,,,,,,,,,,,,,,,,,,,,,,,,,,,,,
,,,,,,,,,R_sKVlsNZLMGzhiOR,2022-07-08_02h23.23.676,jpn_C02,2022.1.2,Win32,60.32090723,,,,,,,,,,,,,,,,,,,,,,,,,0,5,5,10,1,CartoonStims/artist_r.jpg,ピポ,CartoonStims/doctor_r.jpg,right,CartoonStims/doctor_r.jpg,audio/pipo.mp3,残念！ こちらが正しい画像です。,,,,,,,,,,,,,,,,,,,,,,,,,,,,,,,,,,,,,,,,,,,,,,,,,,,,
,,,,,,,,,R_sKVlsNZLMGzhiOR,2022-07-08_02h23.23.676,jpn_C02,2022.1.2,Win32,60.32090723,,,,,,,,,,,,,,,,,left,1,1.2296,,,,,,,,,,,,,,,,,,,,,,,0,0,0,0,1,,,,,,,,,,,,,,,,,,,,,,,,,,,,,,,,,,,,,,,,,,
,,,,,,,,,R_sKVlsNZLMGzhiOR,2022-07-08_02h23.23.676,jpn_C02,2022.1.2,Win32,60.32090723,,,,,,,,,,,,,,,,,,,,,,,,,0,6,6,4,1,CartoonStims/doctor_r.jpg,ピポ,CartoonStims/boxer_r.jpg,left,CartoonStims/doctor_r.jpg,audio/pipo.mp3,残念！ こちらが正しい画像です。,,,,,,,,,,,,,,,,,,,,,,,,,,,,,,,,,,,,,,,,,,,,,,,,,,,,
,,,,,,,,,R_sKVlsNZLMGzhiOR,2022-07-08_02h23.23.676,jpn_C02,2022.1.2,Win32,60.32090723,,,,,,,,,,,,,,,,,right,1,0.66,0,0,0,0,1,,,,,,,,,,,,,,,,,,,,,,,,,,,,,,,,,,,,,,,,,,,,,,,,,,,,,,,,,,,,,,,,
,,,,,,,,,R_sKVlsNZLMGzhiOR,2022-07-08_02h23.23.676,jpn_C02,2022.1.2,Win32,60.32090723,,,,,,,,,,,,,,,,,,,,,,,,,0,7,7,6,1,CartoonStims/chef_r.jpg,シド,CartoonStims/artist_r.jpg,right,CartoonStims/artist_r.jpg,audio/sido.mp3,残念！ こちらが正しい画像です。,,,,,,,,,,,,,,,,,,,,,,,,,,,,,,,,,,,,,,,,,,,,,,,,,,,,
,,,,,,,,,R_sKVlsNZLMGzhiOR,2022-07-08_02h23.23.676,jpn_C02,2022.1.2,Win32,60.32090723,,,,,,,,,,,,,,,,,left,1,1.2877,,,,,,,,,,,,,,,,,,,,,,,0,0,0,0,1,,,,,,,,,,,,,,,,,,,,,,,,,,,,,,,,,,,,,,,,,,
,,,,,,,,,R_sKVlsNZLMGzhiOR,2022-07-08_02h23.23.676,jpn_C02,2022.1.2,Win32,60.32090723,,,,,,,,,,,,,,,,,,,,,,,,,0,8,8,3,1,CartoonStims/cowboy_r.jpg,ムク,CartoonStims/doctor_r.jpg,left,CartoonStims/cowboy_r.jpg,audio/muku.mp3,残念！ こちらが正しい画像です。,,,,,,,,,,,,,,,,,,,,,,,,,,,,,,,,,,,,,,,,,,,,,,,,,,,,
,,,,,,,,,R_sKVlsNZLMGzhiOR,2022-07-08_02h23.23.676,jpn_C02,2022.1.2,Win32,60.32090723,,,,,,,,,,,,,,,,,left,1,0.4289,,,,,,,,,,,,,,,,,,,,,,,0,0,0,0,1,,,,,,,,,,,,,,,,,,,,,,,,,,,,,,,,,,,,,,,,,,
,,,,,,,,,R_sKVlsNZLMGzhiOR,2022-07-08_02h23.23.676,jpn_C02,2022.1.2,Win32,60.32090723,,,,,,,,,,,,,,,,,,,,,,,,,0,9,9,5,1,CartoonStims/boxer_r.jpg,ドキ,CartoonStims/artist_r.jpg,left,CartoonStims/boxer_r.jpg,audio/doki.mp3,残念！ こちらが正しい画像です。,,,,,,,,,,,,,,,,,,,,,,,,,,,,,,,,,,,,,,,,,,,,,,,,,,,,
,,,,,,,,,R_sKVlsNZLMGzhiOR,2022-07-08_02h23.23.676,jpn_C02,2022.1.2,Win32,60.32090723,,,,,,,,,,,,,,,,,left,1,0.4254,,,,,,,,,,,,,,,,,,,,,,,0,0,0,0,1,,,,,,,,,,,,,,,,,,,,,,,,,,,,,,,,,,,,,,,,,,
,,,,,,,,,R_sKVlsNZLMGzhiOR,2022-07-08_02h23.23.676,jpn_C02,2022.1.2,Win32,60.32090723,,,,,,,,,,,,,,,,,,,,,,,,,0,10,10,1,1,CartoonStims/burglar_r.jpg,ルピン,CartoonStims/chef_r.jpg,left,CartoonStims/burglar_r.jpg,audio/lupin.mp3,残念！ こちらが正しい画像です。,,,,,,,,,,,,,,,,,,,,,,,,,,,,,,,,,,,,,,,,,,,,,,,,,,,,
,,,,,,,,,R_sKVlsNZLMGzhiOR,2022-07-08_02h23.23.676,jpn_C02,2022.1.2,Win32,60.32090723,,,,,,,,,,,,,,,,,right,1,1.1684,0,0,0,0,1,,,,,,,,,,,,,,,,,,,,,,,,,,,,,,,,,,,,,,,,,,,,,,,,,,,,,,,,,,,,,,,,
,,,,,,,,,R_sKVlsNZLMGzhiOR,2022-07-08_02h23.23.676,jpn_C02,2022.1.2,Win32,60.32090723,,,,,,,,,,,,,,,,,,,,,,,,,0,11,11,8,1,CartoonStims/doctor_r.jpg,ホレト,CartoonStims/chef_r.jpg,right,CartoonStims/chef_r.jpg,audio/horeto.mp3,残念！ こちらが正しい画像です。,,,,,,,,,,,,,,,,,,,,,,,,,,,,,,,,,,,,,,,,,,,,,,,,,,,,
,,,,,,,,,R_sKVlsNZLMGzhiOR,2022-07-08_02h23.23.676,jpn_C02,2022.1.2,Win32,60.32090723,,,,,,,,,,,,,,,,,,,,,,,,,,,,,,,,,,,,,,,,,,,,,,,,,,,,space,18.5771,ピ歩,right,9.277,0,0,0,0,1,,,,,,,,,,,,,,,,,,,,,,,,,,,
,,,,,,,,,R_sKVlsNZLMGzhiOR,2022-07-08_02h23.23.676,jpn_C02,2022.1.2,Win32,60.32090723,,,,,,,,,,,,,CartoonStims/chef_r.jpg,audio/horeto.mp3,,,,,,,,,,,,,,,,,,,,,,,,,,,,,,,,,,,,,,,,,,,,,,,,0,0,0,2,1,ホレト,,,,,,,,,,,,,,,,,,,,,
,,,,,,,,,R_sKVlsNZLMGzhiOR,2022-07-08_02h23.23.676,jpn_C02,2022.1.2,Win32,60.32090723,,,,,,,,,,,,,,,,,,,,,,,,,,,,,,,,,,,,,,,,,,,,,,,,,,,,,,ピポ,right,10.9282,0,0,0,0,1,,,,,,,,,,,,,,,,,,,,,,,,,,,
,,,,,,,,,R_sKVlsNZLMGzhiOR,2022-07-08_02h23.23.676,jpn_C02,2022.1.2,Win32,60.32090723,,,,,,,,,,,,,CartoonStims/doctor_r.jpg,audio/pipo.mp3,,,,,,,,,,,,,,,,,,,,,,,,,,,,,,,,,,,,,,,,,,,,,,,,0,1,1,4,1,ピポ,,,,,,,,,,,,,,,,,,,,,
,,,,,,,,,R_sKVlsNZLMGzhiOR,2022-07-08_02h23.23.676,jpn_C02,2022.1.2,Win32,60.32090723,,,,,,,,,,,,,,,,,,,,,,,,,,,,,,,,,,,,,,,,,,,,,,,,,,,,,,ルピン,right,11.1458,0,0,0,0,1,,,,,,,,,,,,,,,,,,,,,,,,,,,
,,,,,,,,,R_sKVlsNZLMGzhiOR,2022-07-08_02h23.23.676,jpn_C02,2022.1.2,Win32,60.32090723,,,,,,,,,,,,,CartoonStims/burglar_r.jpg,audio/lupin.mp3,,,,,,,,,,,,,,,,,,,,,,,,,,,,,,,,,,,,,,,,,,,,,,,,0,2,2,1,1,ルピン,,,,,,,,,,,,,,,,,,,,,
,,,,,,,,,R_sKVlsNZLMGzhiOR,2022-07-08_02h23.23.676,jpn_C02,2022.1.2,Win32,60.32090723,,,,,,,,,,,,,,,,,,,,,,,,,,,,,,,,,,,,,,,,,,,,,,,,,,,,,,向く,right,6.405,0,0,0,0,1,,,,,,,,,,,,,,,,,,,,,,,,,,,
,,,,,,,,,R_sKVlsNZLMGzhiOR,2022-07-08_02h23.23.676,jpn_C02,2022.1.2,Win32,60.32090723,,,,,,,,,,,,,CartoonStims/cowboy_r.jpg,audio/muku.mp3,,,,,,,,,,,,,,,,,,,,,,,,,,,,,,,,,,,,,,,,,,,,,,,,0,3,3,3,1,ムク,,,,,,,,,,,,,,,,,,,,,
,,,,,,,,,R_sKVlsNZLMGzhiOR,2022-07-08_02h23.23.676,jpn_C02,2022.1.2,Win32,60.32090723,,,,,,,,,,,,,,,,,,,,,,,,,,,,,,,,,,,,,,,,,,,,,,,,,,,,,,ドキ,right,5.3567,0,0,0,0,1,,,,,,,,,,,,,,,,,,,,,,,,,,,
,,,,,,,,,R_sKVlsNZLMGzhiOR,2022-07-08_02h23.23.676,jpn_C02,2022.1.2,Win32,60.32090723,,,,,,,,,,,,,CartoonStims/boxer_r.jpg,audio/doki.mp3,,,,,,,,,,,,,,,,,,,,,,,,,,,,,,,,,,,,,,,,,,,,,,,,0,4,4,5,1,ドキ,,,,,,,,,,,,,,,,,,,,,
,,,,,,,,,R_sKVlsNZLMGzhiOR,2022-07-08_02h23.23.676,jpn_C02,2022.1.2,Win32,60.32090723,,,,,,,,,,,,,,,,,,,,,,,,,,,,,,,,,,,,,,,,,,,,,,,,,,,,,,ピポ,right,11.2861,0,0,0,0,1,,,,,,,,,,,,,,,,,,,,,,,,,,,
,,,,,,,,,R_sKVlsNZLMGzhiOR,2022-07-08_02h23.23.676,jpn_C02,2022.1.2,Win32,60.32090723,,,,,,,,,,,,,CartoonStims/artist_r.jpg,audio/sido.mp3,,,,,,,,,,,,,,,,,,,,,,,,,,,,,,,,,,,,,,,,,,,,,,,,0,5,5,0,1,シド,,,,,,,,,,,,,,,,,,,,,
,,,,,,,,,R_sKVlsNZLMGzhiOR,2022-07-08_02h23.23.676,jpn_C02,2022.1.2,Win32,60.32090723,,,,,,,,,,,,,,,,,,,,,,,,,,,,,,,,,,,,,,,,,,,,,,,,,,,,,,ドキ,right,4.267,0,0,0,0,1,,,,,,,,,,,,,,,,,,,,,,,,,,,
,,,,,,,,,R_sKVlsNZLMGzhiOR,2022-07-08_02h23.23.676,jpn_C02,2022.1.2,Win32,60.32090723,,,,,,,,,,,,,CartoonStims/boxer_r.jpg,audio/doki.mp3,,,,,,,,,,,,,,,,,,,,,,,,,,,,,,,,,,,,,,,,,,,,,,,,1,0,6,5,1,ドキ,,,,,,,,,,,,,,,,,,,,,
,,,,,,,,,R_sKVlsNZLMGzhiOR,2022-07-08_02h23.23.676,jpn_C02,2022.1.2,Win32,60.32090723,,,,,,,,,,,,,,,,,,,,,,,,,,,,,,,,,,,,,,,,,,,,,,,,,,,,,,ルピン,right,4.1531,0,0,0,0,1,,,,,,,,,,,,,,,,,,,,,,,,,,,
,,,,,,,,,R_sKVlsNZLMGzhiOR,2022-07-08_02h23.23.676,jpn_C02,2022.1.2,Win32,60.32090723,,,,,,,,,,,,,CartoonStims/burglar_r.jpg,audio/lupin.mp3,,,,,,,,,,,,,,,,,,,,,,,,,,,,,,,,,,,,,,,,,,,,,,,,1,1,7,1,1,ルピン,,,,,,,,,,,,,,,,,,,,,
,,,,,,,,,R_sKVlsNZLMGzhiOR,2022-07-08_02h23.23.676,jpn_C02,2022.1.2,Win32,60.32090723,,,,,,,,,,,,,,,,,,,,,,,,,,,,,,,,,,,,,,,,,,,,,,,,,,,,,,ムク,right,7.804,0,0,0,0,1,,,,,,,,,,,,,,,,,,,,,,,,,,,
,,,,,,,,,R_sKVlsNZLMGzhiOR,2022-07-08_02h23.23.676,jpn_C02,2022.1.2,Win32,60.32090723,,,,,,,,,,,,,CartoonStims/doctor_r.jpg,audio/pipo.mp3,,,,,,,,,,,,,,,,,,,,,,,,,,,,,,,,,,,,,,,,,,,,,,,,1,2,8,4,1,ピポ,,,,,,,,,,,,,,,,,,,,,
,,,,,,,,,R_sKVlsNZLMGzhiOR,2022-07-08_02h23.23.676,jpn_C02,2022.1.2,Win32,60.32090723,,,,,,,,,,,,,,,,,,,,,,,,,,,,,,,,,,,,,,,,,,,,,,,,,,,,,,シド,right,4.3488,0,0,0,0,1,,,,,,,,,,,,,,,,,,,,,,,,,,,
,,,,,,,,,R_sKVlsNZLMGzhiOR,2022-07-08_02h23.23.676,jpn_C02,2022.1.2,Win32,60.32090723,,,,,,,,,,,,,CartoonStims/chef_r.jpg,audio/horeto.mp3,,,,,,,,,,,,,,,,,,,,,,,,,,,,,,,,,,,,,,,,,,,,,,,,1,3,9,2,1,ホレト,,,,,,,,,,,,,,,,,,,,,
,,,,,,,,,R_sKVlsNZLMGzhiOR,2022-07-08_02h23.23.676,jpn_C02,2022.1.2,Win32,60.32090723,,,,,,,,,,,,,,,,,,,,,,,,,,,,,,,,,,,,,,,,,,,,,,,,,,,,,,シド,right,5.703,0,0,0,0,1,,,,,,,,,,,,,,,,,,,,,,,,,,,
,,,,,,,,,R_sKVlsNZLMGzhiOR,2022-07-08_02h23.23.676,jpn_C02,2022.1.2,Win32,60.32090723,,,,,,,,,,,,,CartoonStims/artist_r.jpg,audio/sido.mp3,,,,,,,,,,,,,,,,,,,,,,,,,,,,,,,,,,,,,,,,,,,,,,,,1,4,10,0,1,シド,,,,,,,,,,,,,,,,,,,,,
,,,,,,,,,R_sKVlsNZLMGzhiOR,2022-07-08_02h23.23.676,jpn_C02,2022.1.2,Win32,60.32090723,,,,,,,,,,,,,,,,,,,,,,,,,,,,,,,,,,,,,,,,,,,,,,,,,,,,,,ピポ,right,4.845,0,0,0,0,1,,,,,,,,,,,,,,,,,,,,,,,,,,,
,,,,,,,,,R_sKVlsNZLMGzhiOR,2022-07-08_02h23.23.676,jpn_C02,2022.1.2,Win32,60.32090723,,,,,,,,,,,,,CartoonStims/cowboy_r.jpg,audio/muku.mp3,,,,,,,,,,,,,,,,,,,,,,,,,,,,,,,,,,,,,,,,,,,,,,,,1,5,11,3,1,ムク,,,,,,,,,,,,,,,,,,,,,
,,,,,,,,,R_sKVlsNZLMGzhiOR,2022-07-08_02h23.23.676,jpn_C02,2022.1.2,Win32,60.32090723,,,,,,,,,,,,,,,,,,,,,,,,,,,,,,,,,,,,,,,,,,,,,,,,,,,,,,,,,,,,,,,,,,,,,space,2.1142,0,0,0,0,1,NounExposure.xlsx,"最初のトライアルでは、 画像が表示され、 その画像の下に単語が出てきます。 またこの単語の音も聞くことができます。 この音を大きな声で復唱してください。 そしてこの画像がどのような単語を示しているのか, 考えてみてください。 その後、 続きのボタンを押すと次の単語の学習が始まります。

スペースキーを押して、学習を始めましょう。",3,NounFCT.xlsx,ここから語彙のクイズが始まります。スクリーンに表示される単語に合う画像をキーボードの右と左の矢印キーを使って選択してください。,NounTest.xlsx,2,次に、これまで学習してきたことをアウトプットしていただきます。 表示される画像を描写していると思う単語を、テキストボックスにタイプしてください。,1,"ここまでが最初のトライアルです。ここで休憩をとっても構いません。

休憩が済みましたら、スペースキーを押して続きを始めましょう。",,,
,,,,,,,,,R_sKVlsNZLMGzhiOR,2022-07-08_02h23.23.676,jpn_C02,2022.1.2,Win32,60.32090723,space,5.7984,space,10.4688,0,0,0,45,1,プミ　ピポ　ムク,,,CartoonStims/doctor_punch_cowboy_r.jpg,audio/pumipipomuku.mp3,,,,,,,,,,,,,,,,,,,,,,,,,,,,,,,,,,,,,,,,,,,,,,,,,,,,,,,,,,,,,,,,,,,,,,,,,,
,,,,,,,,,R_sKVlsNZLMGzhiOR,2022-07-08_02h23.23.676,jpn_C02,2022.1.2,Win32,60.32090723,,,space,6.8742,0,1,1,25,1,パツ　シド　ピポ,,,CartoonStims/artist_shoot_doctor_r.jpg,audio/patsusidopipo.mp3,,,,,,,,,,,,,,,,,,,,,,,,,,,,,,,,,,,,,,,,,,,,,,,,,,,,,,,,,,,,,,,,,,,,,,,,,,
,,,,,,,,,R_sKVlsNZLMGzhiOR,2022-07-08_02h23.23.676,jpn_C02,2022.1.2,Win32,60.32090723,,,space,6.4372,0,2,2,14,1,トマ　ルピン　ムク,,,CartoonStims/burglar_point_cowboy_r.jpg,audio/tomalupinmuku.mp3,,,,,,,,,,,,,,,,,,,,,,,,,,,,,,,,,,,,,,,,,,,,,,,,,,,,,,,,,,,,,,,,,,,,,,,,,,
,,,,,,,,,R_sKVlsNZLMGzhiOR,2022-07-08_02h23.23.676,jpn_C02,2022.1.2,Win32,60.32090723,,,space,3.2616,0,3,3,1,1,セル 　シド 　ホレト,,,CartoonStims/artist_kick_chef_r.jpg,audio/serusidohoreto.mp3,,,,,,,,,,,,,,,,,,,,,,,,,,,,,,,,,,,,,,,,,,,,,,,,,,,,,,,,,,,,,,,,,,,,,,,,,,
,,,,,,,,,R_sKVlsNZLMGzhiOR,2022-07-08_02h23.23.676,jpn_C02,2022.1.2,Win32,60.32090723,,,space,6.416,0,4,4,40,1,プミ　ホレト　シド,,,CartoonStims/chef_punch_artist_r.jpg,audio/pumihoretosido.mp3,,,,,,,,,,,,,,,,,,,,,,,,,,,,,,,,,,,,,,,,,,,,,,,,,,,,,,,,,,,,,,,,,,,,,,,,,,
,,,,,,,,,R_sKVlsNZLMGzhiOR,2022-07-08_02h23.23.676,jpn_C02,2022.1.2,Win32,60.32090723,,,space,3.1804,0,5,5,12,1,トマ　シド　ホレト,,,CartoonStims/artist_point_chef_r.jpg,audio/tomasidohoreto.mp3,,,,,,,,,,,,,,,,,,,,,,,,,,,,,,,,,,,,,,,,,,,,,,,,,,,,,,,,,,,,,,,,,,,,,,,,,,
,,,,,,,,,R_sKVlsNZLMGzhiOR,2022-07-08_02h23.23.676,jpn_C02,2022.1.2,Win32,60.32090723,,,space,2.0209,0,6,6,13,1,トマ　シド　ムク,,,CartoonStims/artist_point_cowboy_r.jpg,audio/tomasidomuku.mp3,,,,,,,,,,,,,,,,,,,,,,,,,,,,,,,,,,,,,,,,,,,,,,,,,,,,,,,,,,,,,,,,,,,,,,,,,,
,,,,,,,,,R_sKVlsNZLMGzhiOR,2022-07-08_02h23.23.676,jpn_C02,2022.1.2,Win32,60.32090723,,,space,2.8703,0,7,7,29,1,パツ　ホレト　シド,,,CartoonStims/chef_shoot_artist_r.jpg,audio/patsuhoretosido.mp3,,,,,,,,,,,,,,,,,,,,,,,,,,,,,,,,,,,,,,,,,,,,,,,,,,,,,,,,,,,,,,,,,,,,,,,,,,
,,,,,,,,,R_sKVlsNZLMGzhiOR,2022-07-08_02h23.23.676,jpn_C02,2022.1.2,Win32,60.32090723,,,space,2.8935,0,8,8,24,1,パツ　シド　ムク,,,CartoonStims/artist_shoot_cowboy_r.jpg,audio/patsusidomuku.mp3,,,,,,,,,,,,,,,,,,,,,,,,,,,,,,,,,,,,,,,,,,,,,,,,,,,,,,,,,,,,,,,,,,,,,,,,,,
,,,,,,,,,R_sKVlsNZLMGzhiOR,2022-07-08_02h23.23.676,jpn_C02,2022.1.2,Win32,60.32090723,,,space,4.3722,0,9,9,2,1,セル 　ルピン 　ホレト,,,CartoonStims/burglar_kick_chef_r.jpg,audio/serulupinhoreto.mp3,,,,,,,,,,,,,,,,,,,,,,,,,,,,,,,,,,,,,,,,,,,,,,,,,,,,,,,,,,,,,,,,,,,,,,,,,,
,,,,,,,,,R_sKVlsNZLMGzhiOR,2022-07-08_02h23.23.676,jpn_C02,2022.1.2,Win32,60.32090723,,,space,5.3938,0,10,10,23,1,トマ　ドキ　ホレト,,,CartoonStims/boxer_point_chef_r.jpg,audio/tomadokihoreto.mp3,,,,,,,,,,,,,,,,,,,,,,,,,,,,,,,,,,,,,,,,,,,,,,,,,,,,,,,,,,,,,,,,,,,,,,,,,,
,,,,,,,,,R_sKVlsNZLMGzhiOR,2022-07-08_02h23.23.676,jpn_C02,2022.1.2,Win32,60.32090723,,,space,4.3387,0,11,11,33,1,パツ　ピポ　ホレト,,,CartoonStims/doctor_shoot_chef_r.jpg,audio/patsupipohoreto.mp3,,,,,,,,,,,,,,,,,,,,,,,,,,,,,,,,,,,,,,,,,,,,,,,,,,,,,,,,,,,,,,,,,,,,,,,,,,
,,,,,,,,,R_sKVlsNZLMGzhiOR,2022-07-08_02h23.23.676,jpn_C02,2022.1.2,Win32,60.32090723,,,space,2.5073,0,12,12,4,1,セル　ホレト　ムク,,,CartoonStims/chef_kick_cowboy_r.jpg,audio/seruhoretomuku.mp3,,,,,,,,,,,,,,,,,,,,,,,,,,,,,,,,,,,,,,,,,,,,,,,,,,,,,,,,,,,,,,,,,,,,,,,,,,
,,,,,,,,,R_sKVlsNZLMGzhiOR,2022-07-08_02h23.23.676,jpn_C02,2022.1.2,Win32,60.32090723,,,space,3.4412,0,13,13,9,1,セル　ピポ　シド,,,CartoonStims/doctor_kick_artist_r.jpg,audio/serupiposido.mp3,,,,,,,,,,,,,,,,,,,,,,,,,,,,,,,,,,,,,,,,,,,,,,,,,,,,,,,,,,,,,,,,,,,,,,,,,,
,,,,,,,,,R_sKVlsNZLMGzhiOR,2022-07-08_02h23.23.676,jpn_C02,2022.1.2,Win32,60.32090723,,,space,1.7357,0,14,14,10,1,セル　ドキ　シド,,,CartoonStims/boxer_kick_artist_r.jpg,audio/serudokisido.mp3,,,,,,,,,,,,,,,,,,,,,,,,,,,,,,,,,,,,,,,,,,,,,,,,,,,,,,,,,,,,,,,,,,,,,,,,,,
,,,,,,,,,R_sKVlsNZLMGzhiOR,2022-07-08_02h23.23.676,jpn_C02,2022.1.2,Win32,60.32090723,,,space,2.8633,0,15,15,21,1,トマ　ピポ　ルピン,,,CartoonStims/doctor_point_burglar_r.jpg,audio/tomapipolupin.mp3,,,,,,,,,,,,,,,,,,,,,,,,,,,,,,,,,,,,,,,,,,,,,,,,,,,,,,,,,,,,,,,,,,,,,,,,,,
,,,,,,,,,R_sKVlsNZLMGzhiOR,2022-07-08_02h23.23.676,jpn_C02,2022.1.2,Win32,60.32090723,,,space,2.2664,0,16,16,7,1,セル　ムク　ドキ,,,CartoonStims/cowboy_kick_boxer_r.jpg,audio/serumukudoki.mp3,,,,,,,,,,,,,,,,,,,,,,,,,,,,,,,,,,,,,,,,,,,,,,,,,,,,,,,,,,,,,,,,,,,,,,,,,,
,,,,,,,,,R_sKVlsNZLMGzhiOR,2022-07-08_02h23.23.676,jpn_C02,2022.1.2,Win32,60.32090723,,,space,2.8207,0,17,17,47,1,プミ　ドキ　ピポ,,,CartoonStims/boxer_punch_doctor_r.jpg,audio/pumidokipipo.mp3,,,,,,,,,,,,,,,,,,,,,,,,,,,,,,,,,,,,,,,,,,,,,,,,,,,,,,,,,,,,,,,,,,,,,,,,,,
,,,,,,,,,R_sKVlsNZLMGzhiOR,2022-07-08_02h23.23.676,jpn_C02,2022.1.2,Win32,60.32090723,,,space,1.708,0,18,18,22,1,トマ　ドキ　ルピン,,,CartoonStims/boxer_point_burglar_r.jpg,audio/tomadokilupin.mp3,,,,,,,,,,,,,,,,,,,,,,,,,,,,,,,,,,,,,,,,,,,,,,,,,,,,,,,,,,,,,,,,,,,,,,,,,,
,,,,,,,,,R_sKVlsNZLMGzhiOR,2022-07-08_02h23.23.676,jpn_C02,2022.1.2,Win32,60.32090723,,,space,2.6201,0,19,19,28,1,パツ　ホレト　ドキ,,,CartoonStims/chef_shoot_boxer_r.jpg,audio/patsuhoretodoki.mp3,,,,,,,,,,,,,,,,,,,,,,,,,,,,,,,,,,,,,,,,,,,,,,,,,,,,,,,,,,,,,,,,,,,,,,,,,,
,,,,,,,,,R_sKVlsNZLMGzhiOR,2022-07-08_02h23.23.676,jpn_C02,2022.1.2,Win32,60.32090723,,,space,6.1978,0,20,20,15,1,トマ　ルピン　ピポ,,,CartoonStims/burglar_point_doctor_r.jpg,audio/tomalupinpipo.mp3,,,,,,,,,,,,,,,,,,,,,,,,,,,,,,,,,,,,,,,,,,,,,,,,,,,,,,,,,,,,,,,,,,,,,,,,,,
,,,,,,,,,R_sKVlsNZLMGzhiOR,2022-07-08_02h23.23.676,jpn_C02,2022.1.2,Win32,60.32090723,,,space,2.3416,0,21,21,3,1,セル　ルピン　ムク,,,CartoonStims/burglar_kick_cowboy_r.jpg,audio/serulupinmuku.mp3,,,,,,,,,,,,,,,,,,,,,,,,,,,,,,,,,,,,,,,,,,,,,,,,,,,,,,,,,,,,,,,,,,,,,,,,,,
,,,,,,,,,R_sKVlsNZLMGzhiOR,2022-07-08_02h23.23.676,jpn_C02,2022.1.2,Win32,60.32090723,,,space,1.9747,0,22,22,35,1,パツ　ドキ　ムク,,,CartoonStims/boxer_shoot_cowboy_r.jpg,audio/patsudokimuku.mp3,,,,,,,,,,,,,,,,,,,,,,,,,,,,,,,,,,,,,,,,,,,,,,,,,,,,,,,,,,,,,,,,,,,,,,,,,,
,,,,,,,,,R_sKVlsNZLMGzhiOR,2022-07-08_02h23.23.676,jpn_C02,2022.1.2,Win32,60.32090723,,,space,1.511,0,23,23,11,1,セル　ドキ　ルピン,,,CartoonStims/boxer_kick_burglar_r.jpg,audio/serudokilupin.mp3,,,,,,,,,,,,,,,,,,,,,,,,,,,,,,,,,,,,,,,,,,,,,,,,,,,,,,,,,,,,,,,,,,,,,,,,,,
,,,,,,,,,R_sKVlsNZLMGzhiOR,2022-07-08_02h23.23.676,jpn_C02,2022.1.2,Win32,60.32090723,,,space,4.747,0,24,24,19,1,トマ　ムク　シド,,,CartoonStims/cowboy_point_artist_r.jpg,audio/tomamukusido.mp3,,,,,,,,,,,,,,,,,,,,,,,,,,,,,,,,,,,,,,,,,,,,,,,,,,,,,,,,,,,,,,,,,,,,,,,,,,
,,,,,,,,,R_sKVlsNZLMGzhiOR,2022-07-08_02h23.23.676,jpn_C02,2022.1.2,Win32,60.32090723,,,space,2.3329,0,25,25,46,1,プミ　ドキ　ムク,,,CartoonStims/boxer_punch_cowboy_r.jpg,audio/pumidokimuku.mp3,,,,,,,,,,,,,,,,,,,,,,,,,,,,,,,,,,,,,,,,,,,,,,,,,,,,,,,,,,,,,,,,,,,,,,,,,,
,,,,,,,,,R_sKVlsNZLMGzhiOR,2022-07-08_02h23.23.676,jpn_C02,2022.1.2,Win32,60.32090723,,,space,2.3861,0,26,26,34,1,パツ　ドキ　ホレト,,,CartoonStims/boxer_shoot_chef_r.jpg,audio/patsudokihoreto.mp3,,,,,,,,,,,,,,,,,,,,,,,,,,,,,,,,,,,,,,,,,,,,,,,,,,,,,,,,,,,,,,,,,,,,,,,,,,
,,,,,,,,,R_sKVlsNZLMGzhiOR,2022-07-08_02h23.23.676,jpn_C02,2022.1.2,Win32,60.32090723,,,space,2.3809,0,27,27,32,1,パツ　ピポ　ルピン,,,CartoonStims/doctor_shoot_burglar_r.jpg,audio/patsupipolupin.mp3,,,,,,,,,,,,,,,,,,,,,,,,,,,,,,,,,,,,,,,,,,,,,,,,,,,,,,,,,,,,,,,,,,,,,,,,,,
,,,,,,,,,R_sKVlsNZLMGzhiOR,2022-07-08_02h23.23.676,jpn_C02,2022.1.2,Win32,60.32090723,,,space,2.5323,0,28,28,41,1,プミ　ホレト　ルピン,,,CartoonStims/chef_punch_burglar_r.jpg,audio/pumihoretolupin.mp3,,,,,,,,,,,,,,,,,,,,,,,,,,,,,,,,,,,,,,,,,,,,,,,,,,,,,,,,,,,,,,,,,,,,,,,,,,
,,,,,,,,,R_sKVlsNZLMGzhiOR,2022-07-08_02h23.23.676,jpn_C02,2022.1.2,Win32,60.32090723,,,space,3.5208,0,29,29,5,1,セル　ホレト　ピポ,,,CartoonStims/chef_kick_doctor_r.jpg,audio/seruhoretopipo.mp3,,,,,,,,,,,,,,,,,,,,,,,,,,,,,,,,,,,,,,,,,,,,,,,,,,,,,,,,,,,,,,,,,,,,,,,,,,
,,,,,,,,,R_sKVlsNZLMGzhiOR,2022-07-08_02h23.23.676,jpn_C02,2022.1.2,Win32,60.32090723,,,space,3.6956,0,30,30,38,1,プミ　ルピン　ドキ,,,CartoonStims/burglar_punch_boxer_r.jpg,audio/pumilupindoki.mp3,,,,,,,,,,,,,,,,,,,,,,,,,,,,,,,,,,,,,,,,,,,,,,,,,,,,,,,,,,,,,,,,,,,,,,,,,,
,,,,,,,,,R_sKVlsNZLMGzhiOR,2022-07-08_02h23.23.676,jpn_C02,2022.1.2,Win32,60.32090723,,,space,2.5556,0,31,31,30,1,パツ　ムク　シド,,,CartoonStims/cowboy_shoot_artist_r.jpg,audio/patsumukusido.mp3,,,,,,,,,,,,,,,,,,,,,,,,,,,,,,,,,,,,,,,,,,,,,,,,,,,,,,,,,,,,,,,,,,,,,,,,,,
,,,,,,,,,R_sKVlsNZLMGzhiOR,2022-07-08_02h23.23.676,jpn_C02,2022.1.2,Win32,60.32090723,,,space,3.6767,0,32,32,6,1,セル　ムク　ピポ,,,CartoonStims/cowboy_kick_doctor_r.jpg,audio/serumukupipo.mp3,,,,,,,,,,,,,,,,,,,,,,,,,,,,,,,,,,,,,,,,,,,,,,,,,,,,,,,,,,,,,,,,,,,,,,,,,,
,,,,,,,,,R_sKVlsNZLMGzhiOR,2022-07-08_02h23.23.676,jpn_C02,2022.1.2,Win32,60.32090723,,,space,1.8042,0,33,33,26,1,パツ　ルピン　ピポ,,,CartoonStims/burglar_shoot_doctor_r.jpg,audio/patsulupinpipo.mp3,,,,,,,,,,,,,,,,,,,,,,,,,,,,,,,,,,,,,,,,,,,,,,,,,,,,,,,,,,,,,,,,,,,,,,,,,,
,,,,,,,,,R_sKVlsNZLMGzhiOR,2022-07-08_02h23.23.676,jpn_C02,2022.1.2,Win32,60.32090723,,,space,2.5146,0,34,34,16,1,トマ　ホレト　ピポ,,,CartoonStims/chef_point_doctor_r.jpg,audio/tomahoretopipo.mp3,,,,,,,,,,,,,,,,,,,,,,,,,,,,,,,,,,,,,,,,,,,,,,,,,,,,,,,,,,,,,,,,,,,,,,,,,,
,,,,,,,,,R_sKVlsNZLMGzhiOR,2022-07-08_02h23.23.676,jpn_C02,2022.1.2,Win32,60.32090723,,,space,2.072,0,35,35,8,1,セル　ピポ　ドキ,,,CartoonStims/doctor_kick_boxer_r.jpg,audio/serupipodoki.mp3,,,,,,,,,,,,,,,,,,,,,,,,,,,,,,,,,,,,,,,,,,,,,,,,,,,,,,,,,,,,,,,,,,,,,,,,,,
,,,,,,,,,R_sKVlsNZLMGzhiOR,2022-07-08_02h23.23.676,jpn_C02,2022.1.2,Win32,60.32090723,,,space,2.5635,0,36,36,17,1,トマ　ホレト　ドキ,,,CartoonStims/chef_point_boxer_r.jpg,audio/tomahoretodoki.mp3,,,,,,,,,,,,,,,,,,,,,,,,,,,,,,,,,,,,,,,,,,,,,,,,,,,,,,,,,,,,,,,,,,,,,,,,,,
,,,,,,,,,R_sKVlsNZLMGzhiOR,2022-07-08_02h23.23.676,jpn_C02,2022.1.2,Win32,60.32090723,,,space,1.3978,0,37,37,37,1,プミ　シド　ドキ,,,CartoonStims/artist_punch_boxer_r.jpg,audio/pumisidodoki.mp3,,,,,,,,,,,,,,,,,,,,,,,,,,,,,,,,,,,,,,,,,,,,,,,,,,,,,,,,,,,,,,,,,,,,,,,,,,
,,,,,,,,,R_sKVlsNZLMGzhiOR,2022-07-08_02h23.23.676,jpn_C02,2022.1.2,Win32,60.32090723,,,space,1.7736,0,38,38,27,1,パツ　ルピン　ドキ,,,CartoonStims/burglar_shoot_boxer_r.jpg,audio/patsulupindoki.mp3,,,,,,,,,,,,,,,,,,,,,,,,,,,,,,,,,,,,,,,,,,,,,,,,,,,,,,,,,,,,,,,,,,,,,,,,,,
,,,,,,,,,R_sKVlsNZLMGzhiOR,2022-07-08_02h23.23.676,jpn_C02,2022.1.2,Win32,60.32090723,,,space,2.2978,0,39,39,18,1,トマ　ムク　ドキ,,,CartoonStims/cowboy_point_boxer_r.jpg,audio/tomamukudoki.mp3,,,,,,,,,,,,,,,,,,,,,,,,,,,,,,,,,,,,,,,,,,,,,,,,,,,,,,,,,,,,,,,,,,,,,,,,,,
,,,,,,,,,R_sKVlsNZLMGzhiOR,2022-07-08_02h23.23.676,jpn_C02,2022.1.2,Win32,60.32090723,,,space,1.8602,0,40,40,20,1,トマ　ピポ　シド,,,CartoonStims/doctor_point_artist_r.jpg,audio/tomapiposido.mp3,,,,,,,,,,,,,,,,,,,,,,,,,,,,,,,,,,,,,,,,,,,,,,,,,,,,,,,,,,,,,,,,,,,,,,,,,,
,,,,,,,,,R_sKVlsNZLMGzhiOR,2022-07-08_02h23.23.676,jpn_C02,2022.1.2,Win32,60.32090723,,,space,2.0041,0,41,41,36,1,プミ　シド　ピポ,,,CartoonStims/artist_punch_doctor_r.jpg,audio/pumisidopipo.mp3,,,,,,,,,,,,,,,,,,,,,,,,,,,,,,,,,,,,,,,,,,,,,,,,,,,,,,,,,,,,,,,,,,,,,,,,,,
,,,,,,,,,R_sKVlsNZLMGzhiOR,2022-07-08_02h23.23.676,jpn_C02,2022.1.2,Win32,60.32090723,,,space,2.0641,0,42,42,43,1,プミ　ムク　ホレト,,,CartoonStims/cowboy_punch_chef_r.jpg,audio/pumimukuhoreto.mp3,,,,,,,,,,,,,,,,,,,,,,,,,,,,,,,,,,,,,,,,,,,,,,,,,,,,,,,,,,,,,,,,,,,,,,,,,,
,,,,,,,,,R_sKVlsNZLMGzhiOR,2022-07-08_02h23.23.676,jpn_C02,2022.1.2,Win32,60.32090723,,,space,2.0691,0,43,43,0,1,セル　シド　ルピン,,,CartoonStims/artist_kick_burglar_r.jpg,audio/serusidolupin.mp3,,,,,,,,,,,,,,,,,,,,,,,,,,,,,,,,,,,,,,,,,,,,,,,,,,,,,,,,,,,,,,,,,,,,,,,,,,
,,,,,,,,,R_sKVlsNZLMGzhiOR,2022-07-08_02h23.23.676,jpn_C02,2022.1.2,Win32,60.32090723,,,space,4.4411,0,44,44,39,1,プミ　ルピン　シド,,,CartoonStims/burglar_punch_artist_r.jpg,audio/pumilupinsido.mp3,,,,,,,,,,,,,,,,,,,,,,,,,,,,,,,,,,,,,,,,,,,,,,,,,,,,,,,,,,,,,,,,,,,,,,,,,,
,,,,,,,,,R_sKVlsNZLMGzhiOR,2022-07-08_02h23.23.676,jpn_C02,2022.1.2,Win32,60.32090723,,,space,2.0692,0,45,45,44,1,プミ　ピポ　ホレト,,,CartoonStims/doctor_punch_chef_r.jpg,audio/pumipipohoreto.mp3,,,,,,,,,,,,,,,,,,,,,,,,,,,,,,,,,,,,,,,,,,,,,,,,,,,,,,,,,,,,,,,,,,,,,,,,,,
,,,,,,,,,R_sKVlsNZLMGzhiOR,2022-07-08_02h23.23.676,jpn_C02,2022.1.2,Win32,60.32090723,,,space,3.3486,0,46,46,31,1,パツ　ムク　ルピン,,,CartoonStims/cowboy_shoot_burglar_r.jpg,audio/patsumukulupin.mp3,,,,,,,,,,,,,,,,,,,,,,,,,,,,,,,,,,,,,,,,,,,,,,,,,,,,,,,,,,,,,,,,,,,,,,,,,,
,,,,,,,,,R_sKVlsNZLMGzhiOR,2022-07-08_02h23.23.676,jpn_C02,2022.1.2,Win32,60.32090723,,,space,4.1853,0,47,47,42,1,プミ　ムク　ルピン,,,CartoonStims/cowboy_punch_burglar_r.jpg,audio/pumimukulupin.mp3,,,,,,,,,,,,,,,,,,,,,,,,,,,,,,,,,,,,,,,,,,,,,,,,,,,,,,,,,,,,,,,,,,,,,,,,,,
,,,,,,,,,R_sKVlsNZLMGzhiOR,2022-07-08_02h23.23.676,jpn_C02,2022.1.2,Win32,60.32090723,,,,,,,,,,,,,,,space,0.6229,right,1,6.4365,0,0,0,0,1,,,,,,,,,,,,,,,,,,,,,,,,,,,,,,,,,,,,,,,,,,,,,,,,,,,,,,,,,,,,,,,,
,,,,,,,,,R_sKVlsNZLMGzhiOR,2022-07-08_02h23.23.676,jpn_C02,2022.1.2,Win32,60.32090723,,,,,,,,,,,,,,,,,,,,,,,,,0,0,0,3,1,CartoonStims/cowboy_punch_doctor_r.jpg,プミ　ムク　ドキ,CartoonStims/cowboy_punch_boxer_r.jpg,right,CartoonStims/cowboy_punch_boxer_r.jpg,audio/pumimukudoki.mp3,残念！ こちらが正しい画像です。,,,,,,,,,,,,,,,,,,,,,,,,,,,,,,,,,,,,,,,,,,,,,,,,,,,,
,,,,,,,,,R_sKVlsNZLMGzhiOR,2022-07-08_02h23.23.676,jpn_C02,2022.1.2,Win32,60.32090723,,,,,,,,,,,,,,,,,right,1,4.7423,0,0,0,0,1,,,,,,,,,,,,,,,,,,,,,,,,,,,,,,,,,,,,,,,,,,,,,,,,,,,,,,,,,,,,,,,,
,,,,,,,,,R_sKVlsNZLMGzhiOR,2022-07-08_02h23.23.676,jpn_C02,2022.1.2,Win32,60.32090723,,,,,,,,,,,,,,,,,,,,,,,,,0,1,1,9,1,CartoonStims/chef_kick_artist_r.jpg,セル　ムク　シド,CartoonStims/cowboy_kick_artist_r.jpg,right,CartoonStims/cowboy_kick_artist_r.jpg,audio/serumukusido.mp3,残念！ こちらが正しい画像です。,,,,,,,,,,,,,,,,,,,,,,,,,,,,,,,,,,,,,,,,,,,,,,,,,,,,
,,,,,,,,,R_sKVlsNZLMGzhiOR,2022-07-08_02h23.23.676,jpn_C02,2022.1.2,Win32,60.32090723,,,,,,,,,,,,,,,,,left,1,6.1297,,,,,,,,,,,,,,,,,,,,,,,0,0,0,0,1,,,,,,,,,,,,,,,,,,,,,,,,,,,,,,,,,,,,,,,,,,
,,,,,,,,,R_sKVlsNZLMGzhiOR,2022-07-08_02h23.23.676,jpn_C02,2022.1.2,Win32,60.32090723,,,,,,,,,,,,,,,,,,,,,,,,,0,2,2,6,1,CartoonStims/doctor_punch_boxer_r.jpg,プミ　ピポ　ドキ,CartoonStims/doctor_shoot_boxer_r.jpg,left,CartoonStims/doctor_punch_boxer_r.jpg,audio/pumipipodoki.mp3,残念！ こちらが正しい画像です。,,,,,,,,,,,,,,,,,,,,,,,,,,,,,,,,,,,,,,,,,,,,,,,,,,,,
,,,,,,,,,R_sKVlsNZLMGzhiOR,2022-07-08_02h23.23.676,jpn_C02,2022.1.2,Win32,60.32090723,,,,,,,,,,,,,,,,,right,1,2.5692,0,0,0,0,1,,,,,,,,,,,,,,,,,,,,,,,,,,,,,,,,,,,,,,,,,,,,,,,,,,,,,,,,,,,,,,,,
,,,,,,,,,R_sKVlsNZLMGzhiOR,2022-07-08_02h23.23.676,jpn_C02,2022.1.2,Win32,60.32090723,,,,,,,,,,,,,,,,,,,,,,,,,0,3,3,1,1,CartoonStims/chef_point_burglar_r.jpg,トマ　ホレト　シド,CartoonStims/chef_point_artist_r.jpg,right,CartoonStims/chef_point_artist_r.jpg,audio/tomahoretosido.mp3,残念！ こちらが正しい画像です。,,,,,,,,,,,,,,,,,,,,,,,,,,,,,,,,,,,,,,,,,,,,,,,,,,,,
,,,,,,,,,R_sKVlsNZLMGzhiOR,2022-07-08_02h23.23.676,jpn_C02,2022.1.2,Win32,60.32090723,,,,,,,,,,,,,,,,,right,1,5.8758,0,0,0,0,1,,,,,,,,,,,,,,,,,,,,,,,,,,,,,,,,,,,,,,,,,,,,,,,,,,,,,,,,,,,,,,,,
,,,,,,,,,R_sKVlsNZLMGzhiOR,2022-07-08_02h23.23.676,jpn_C02,2022.1.2,Win32,60.32090723,,,,,,,,,,,,,,,,,,,,,,,,,0,4,4,7,1,CartoonStims/artist_punch_cowboy_r.jpg,セル　シド　ムク,CartoonStims/artist_kick_cowboy_r.jpg,right,CartoonStims/artist_kick_cowboy_r.jpg,audio/serusidomuku.mp3,残念！ こちらが正しい画像です。,,,,,,,,,,,,,,,,,,,,,,,,,,,,,,,,,,,,,,,,,,,,,,,,,,,,
,,,,,,,,,R_sKVlsNZLMGzhiOR,2022-07-08_02h23.23.676,jpn_C02,2022.1.2,Win32,60.32090723,,,,,,,,,,,,,,,,,right,1,2.0189,0,0,0,0,1,,,,,,,,,,,,,,,,,,,,,,,,,,,,,,,,,,,,,,,,,,,,,,,,,,,,,,,,,,,,,,,,
,,,,,,,,,R_sKVlsNZLMGzhiOR,2022-07-08_02h23.23.676,jpn_C02,2022.1.2,Win32,60.32090723,,,,,,,,,,,,,,,,,,,,,,,,,0,5,5,11,1,CartoonStims/burglar_punch_cowboy_r.jpg,プミ　ホレト　ムク,CartoonStims/chef_punch_cowboy_r.jpg,right,CartoonStims/chef_punch_cowboy_r.jpg,audio/pumihoretomuku.mp3,残念！ こちらが正しい画像です。,,,,,,,,,,,,,,,,,,,,,,,,,,,,,,,,,,,,,,,,,,,,,,,,,,,,
,,,,,,,,,R_sKVlsNZLMGzhiOR,2022-07-08_02h23.23.676,jpn_C02,2022.1.2,Win32,60.32090723,,,,,,,,,,,,,,,,,right,1,1.1692,0,0,0,0,1,,,,,,,,,,,,,,,,,,,,,,,,,,,,,,,,,,,,,,,,,,,,,,,,,,,,,,,,,,,,,,,,
,,,,,,,,,R_sKVlsNZLMGzhiOR,2022-07-08_02h23.23.676,jpn_C02,2022.1.2,Win32,60.32090723,,,,,,,,,,,,,,,,,,,,,,,,,0,6,6,5,1,CartoonStims/cowboy_point_chef_r.jpg,パツ　ムク　ホレト,CartoonStims/cowboy_shoot_chef_r.jpg,right,CartoonStims/cowboy_shoot_chef_r.jpg,audio/patsumukuhoreto.mp3,残念！ こちらが正しい画像です。,,,,,,,,,,,,,,,,,,,,,,,,,,,,,,,,,,,,,,,,,,,,,,,,,,,,
,,,,,,,,,R_sKVlsNZLMGzhiOR,2022-07-08_02h23.23.676,jpn_C02,2022.1.2,Win32,60.32090723,,,,,,,,,,,,,,,,,left,1,5.3246,,,,,,,,,,,,,,,,,,,,,,,0,0,0,0,1,,,,,,,,,,,,,,,,,,,,,,,,,,,,,,,,,,,,,,,,,,
,,,,,,,,,R_sKVlsNZLMGzhiOR,2022-07-08_02h23.23.676,jpn_C02,2022.1.2,Win32,60.32090723,,,,,,,,,,,,,,,,,,,,,,,,,0,7,7,2,1,CartoonStims/boxer_shoot_doctor_r.jpg,パツ　ドキ　ピポ,CartoonStims/boxer_shoot_artist_r.jpg,left,CartoonStims/boxer_shoot_doctor_r.jpg,audio/patsudokipipo.mp3,残念！ こちらが正しい画像です。,,,,,,,,,,,,,,,,,,,,,,,,,,,,,,,,,,,,,,,,,,,,,,,,,,,,
,,,,,,,,,R_sKVlsNZLMGzhiOR,2022-07-08_02h23.23.676,jpn_C02,2022.1.2,Win32,60.32090723,,,,,,,,,,,,,,,,,left,1,1.0612,,,,,,,,,,,,,,,,,,,,,,,0,0,0,0,1,,,,,,,,,,,,,,,,,,,,,,,,,,,,,,,,,,,,,,,,,,
,,,,,,,,,R_sKVlsNZLMGzhiOR,2022-07-08_02h23.23.676,jpn_C02,2022.1.2,Win32,60.32090723,,,,,,,,,,,,,,,,,,,,,,,,,0,8,8,0,1,CartoonStims/doctor_kick_burglar_r.jpg,セル　ピポ　ルピン,CartoonStims/doctor_kick_chef_r.jpg,left,CartoonStims/doctor_kick_burglar_r.jpg,audio/serupipolupin.mp3,残念！ こちらが正しい画像です。,,,,,,,,,,,,,,,,,,,,,,,,,,,,,,,,,,,,,,,,,,,,,,,,,,,,
,,,,,,,,,R_sKVlsNZLMGzhiOR,2022-07-08_02h23.23.676,jpn_C02,2022.1.2,Win32,60.32090723,,,,,,,,,,,,,,,,,right,0,2.63,,,,,,,,,,,,,,,,,,0,0,0,0,1,,,,,,,,,,,,,,,,,,,,,,,,,,,,,,,,,,,,,,,,,,,,,,,
,,,,,,,,,R_sKVlsNZLMGzhiOR,2022-07-08_02h23.23.676,jpn_C02,2022.1.2,Win32,60.32090723,,,,,,,,,,,,,,,,,,,,,,,,,0,9,9,10,1,CartoonStims/artist_shoot_burglar_r.jpg,パツ　シド　ルピン,CartoonStims/chef_shoot_burglar_r.jpg,left,CartoonStims/artist_shoot_burglar_r.jpg,audio/patsusidolupin.mp3,残念！ こちらが正しい画像です。,,,,,,,,,,,,,,,,,,,,,,,,,,,,,,,,,,,,,,,,,,,,,,,,,,,,
,,,,,,,,,R_sKVlsNZLMGzhiOR,2022-07-08_02h23.23.676,jpn_C02,2022.1.2,Win32,60.32090723,,,,,,,,,,,,,,,,,left,1,2.5943,,,,,,,,,,,,,,,,,,,,,,,0,0,0,0,1,,,,,,,,,,,,,,,,,,,,,,,,,,,,,,,,,,,,,,,,,,
,,,,,,,,,R_sKVlsNZLMGzhiOR,2022-07-08_02h23.23.676,jpn_C02,2022.1.2,Win32,60.32090723,,,,,,,,,,,,,,,,,,,,,,,,,0,10,10,4,1,CartoonStims/burglar_point_boxer_r.jpg,トマ　ルピン　ドキ,CartoonStims/burglar_kick_boxer_r.jpg,left,CartoonStims/burglar_point_boxer_r.jpg,audio/tomalupindoki.mp3,残念！ こちらが正しい画像です。,,,,,,,,,,,,,,,,,,,,,,,,,,,,,,,,,,,,,,,,,,,,,,,,,,,,
,,,,,,,,,R_sKVlsNZLMGzhiOR,2022-07-08_02h23.23.676,jpn_C02,2022.1.2,Win32,60.32090723,,,,,,,,,,,,,,,,,left,1,2.3656,,,,,,,,,,,,,,,,,,,,,,,0,0,0,0,1,,,,,,,,,,,,,,,,,,,,,,,,,,,,,,,,,,,,,,,,,,
,,,,,,,,,R_sKVlsNZLMGzhiOR,2022-07-08_02h23.23.676,jpn_C02,2022.1.2,Win32,60.32090723,,,,,,,,,,,,,,,,,,,,,,,,,0,11,11,8,1,CartoonStims/doctor_point_cowboy_r.jpg,トマ　ピポ　ムク,CartoonStims/boxer_point_cowboy_r.jpg,left,CartoonStims/doctor_point_cowboy_r.jpg,audio/tomapipomuku.mp3,残念！ こちらが正しい画像です。,,,,,,,,,,,,,,,,,,,,,,,,,,,,,,,,,,,,,,,,,,,,,,,,,,,,
,,,,,,,,,R_sKVlsNZLMGzhiOR,2022-07-08_02h23.23.676,jpn_C02,2022.1.2,Win32,60.32090723,,,,,,,,,,,,,,,,,,,,,,,,,,,,,,,,,,,,,,,,,,,,,,,,,,,,space,13.9286,トマ　シド　ルピン,right,17.8179,0,0,0,0,1,,,,,,,,,,,,,,,,,,,,,,,,,,,
,,,,,,,,,R_sKVlsNZLMGzhiOR,2022-07-08_02h23.23.676,jpn_C02,2022.1.2,Win32,60.32090723,,,,,,,,,,,,,CartoonStims/chef_point_burglar_r.jpg,audio/tomahoretolupin.mp3,,,,,,,,,,,,,,,,,,,,,,,,,,,,,,,,,,,,,,,,,,,,,,,,0,0,0,5,1,トマ　ホレト　ルピン,,,,,,,,,,,,,,,,,,,,,
,,,,,,,,,R_sKVlsNZLMGzhiOR,2022-07-08_02h23.23.676,jpn_C02,2022.1.2,Win32,60.32090723,,,,,,,,,,,,,,,,,,,,,,,,,,,,,,,,,,,,,,,,,,,,,,,,,,,,,,ポム　ムク　ルピン,right,15.451,0,0,0,0,1,,,,,,,,,,,,,,,,,,,,,,,,,,,
,,,,,,,,,R_sKVlsNZLMGzhiOR,2022-07-08_02h23.23.676,jpn_C02,2022.1.2,Win32,60.32090723,,,,,,,,,,,,,CartoonStims/artist_punch_burglar_r.jpg,audio/pumisidolupin.mp3,,,,,,,,,,,,,,,,,,,,,,,,,,,,,,,,,,,,,,,,,,,,,,,,0,1,1,9,1,プミ　シド　ルピン,,,,,,,,,,,,,,,,,,,,,
,,,,,,,,,R_sKVlsNZLMGzhiOR,2022-07-08_02h23.23.676,jpn_C02,2022.1.2,Win32,60.32090723,,,,,,,,,,,,,,,,,,,,,,,,,,,,,,,,,,,,,,,,,,,,,,,,,,,,,,セル　ピポ　ルピン,right,12.373,0,0,0,0,1,,,,,,,,,,,,,,,,,,,,,,,,,,,
,,,,,,,,,R_sKVlsNZLMGzhiOR,2022-07-08_02h23.23.676,jpn_C02,2022.1.2,Win32,60.32090723,,,,,,,,,,,,,CartoonStims/cowboy_kick_burglar_r.jpg,audio/serumukulupin.mp3,,,,,,,,,,,,,,,,,,,,,,,,,,,,,,,,,,,,,,,,,,,,,,,,0,2,2,0,1,セル　ムク　ルピン,,,,,,,,,,,,,,,,,,,,,
,,,,,,,,,R_sKVlsNZLMGzhiOR,2022-07-08_02h23.23.676,jpn_C02,2022.1.2,Win32,60.32090723,,,,,,,,,,,,,,,,,,,,,,,,,,,,,,,,,,,,,,,,,,,,,,,,,,,,,,セル　ドキ　ムク,right,10.8519,0,0,0,0,1,,,,,,,,,,,,,,,,,,,,,,,,,,,
,,,,,,,,,R_sKVlsNZLMGzhiOR,2022-07-08_02h23.23.676,jpn_C02,2022.1.2,Win32,60.32090723,,,,,,,,,,,,,CartoonStims/boxer_kick_cowboy_r.jpg,audio/serudokimuku.mp3,,,,,,,,,,,,,,,,,,,,,,,,,,,,,,,,,,,,,,,,,,,,,,,,0,3,3,2,1,セル　ドキ　ムク,,,,,,,,,,,,,,,,,,,,,
,,,,,,,,,R_sKVlsNZLMGzhiOR,2022-07-08_02h23.23.676,jpn_C02,2022.1.2,Win32,60.32090723,,,,,,,,,,,,,,,,,,,,,,,,,,,,,,,,,,,,,,,,,,,,,,,,,,,,,,トマ　ピポ　ドキ,right,11.9836,0,0,0,0,1,,,,,,,,,,,,,,,,,,,,,,,,,,,
,,,,,,,,,R_sKVlsNZLMGzhiOR,2022-07-08_02h23.23.676,jpn_C02,2022.1.2,Win32,60.32090723,,,,,,,,,,,,,CartoonStims/artist_point_boxer_r.jpg,audio/tomasidodoki.mp3,,,,,,,,,,,,,,,,,,,,,,,,,,,,,,,,,,,,,,,,,,,,,,,,0,4,4,3,1,トマ　シド　ドキ,,,,,,,,,,,,,,,,,,,,,
,,,,,,,,,R_sKVlsNZLMGzhiOR,2022-07-08_02h23.23.676,jpn_C02,2022.1.2,Win32,60.32090723,,,,,,,,,,,,,,,,,,,,,,,,,,,,,,,,,,,,,,,,,,,,,,,,,,,,,,プミ　シド　ドキ,right,27.0297,0,0,0,0,1,,,,,,,,,,,,,,,,,,,,,,,,,,,
,,,,,,,,,R_sKVlsNZLMGzhiOR,2022-07-08_02h23.23.676,jpn_C02,2022.1.2,Win32,60.32090723,,,,,,,,,,,,,CartoonStims/doctor_punch_boxer_r.jpg,audio/pumipipodoki.mp3,,,,,,,,,,,,,,,,,,,,,,,,,,,,,,,,,,,,,,,,,,,,,,,,0,5,5,10,1,プミ　ピポ　ドキ,,,,,,,,,,,,,,,,,,,,,
,,,,,,,,,R_sKVlsNZLMGzhiOR,2022-07-08_02h23.23.676,jpn_C02,2022.1.2,Win32,60.32090723,,,,,,,,,,,,,,,,,,,,,,,,,,,,,,,,,,,,,,,,,,,,,,,,,,,,,,パツ　シド　ムク,right,10.9512,0,0,0,0,1,,,,,,,,,,,,,,,,,,,,,,,,,,,
,,,,,,,,,R_sKVlsNZLMGzhiOR,2022-07-08_02h23.23.676,jpn_C02,2022.1.2,Win32,60.32090723,,,,,,,,,,,,,CartoonStims/chef_shoot_cowboy_r.jpg,audio/patsuhoretomuku.mp3,,,,,,,,,,,,,,,,,,,,,,,,,,,,,,,,,,,,,,,,,,,,,,,,0,6,6,7,1,パツ　ホレト　ムク,,,,,,,,,,,,,,,,,,,,,
,,,,,,,,,R_sKVlsNZLMGzhiOR,2022-07-08_02h23.23.676,jpn_C02,2022.1.2,Win32,60.32090723,,,,,,,,,,,,,,,,,,,,,,,,,,,,,,,,,,,,,,,,,,,,,,,,,,,,,,パツ　ルピン　ホレト,right,14.6761,0,0,0,0,1,,,,,,,,,,,,,,,,,,,,,,,,,,,
,,,,,,,,,R_sKVlsNZLMGzhiOR,2022-07-08_02h23.23.676,jpn_C02,2022.1.2,Win32,60.32090723,,,,,,,,,,,,,CartoonStims/burglar_shoot_chef_r.jpg,audio/patsulupinhoreto.mp3,,,,,,,,,,,,,,,,,,,,,,,,,,,,,,,,,,,,,,,,,,,,,,,,0,7,7,6,1,パツ　ルピン　ホレト,,,,,,,,,,,,,,,,,,,,,
,,,,,,,,,R_sKVlsNZLMGzhiOR,2022-07-08_02h23.23.676,jpn_C02,2022.1.2,Win32,60.32090723,,,,,,,,,,,,,,,,,,,,,,,,,,,,,,,,,,,,,,,,,,,,,,,,,,,,,,トマ　ルピン　ムク,right,10.1459,0,0,0,0,1,,,,,,,,,,,,,,,,,,,,,,,,,,,
,,,,,,,,,R_sKVlsNZLMGzhiOR,2022-07-08_02h23.23.676,jpn_C02,2022.1.2,Win32,60.32090723,,,,,,,,,,,,,CartoonStims/burglar_point_artist_r.jpg,audio/tomalupinsido.mp3,,,,,,,,,,,,,,,,,,,,,,,,,,,,,,,,,,,,,,,,,,,,,,,,0,8,8,4,1,トマ　ルピン　シド,,,,,,,,,,,,,,,,,,,,,
,,,,,,,,,R_sKVlsNZLMGzhiOR,2022-07-08_02h23.23.676,jpn_C02,2022.1.2,Win32,60.32090723,,,,,,,,,,,,,,,,,,,,,,,,,,,,,,,,,,,,,,,,,,,,,,,,,,,,,,プミ　ドキ　シド,right,9.0623,0,0,0,0,1,,,,,,,,,,,,,,,,,,,,,,,,,,,
,,,,,,,,,R_sKVlsNZLMGzhiOR,2022-07-08_02h23.23.676,jpn_C02,2022.1.2,Win32,60.32090723,,,,,,,,,,,,,CartoonStims/boxer_punch_artist_r.jpg,audio/pumidokisido.mp3,,,,,,,,,,,,,,,,,,,,,,,,,,,,,,,,,,,,,,,,,,,,,,,,0,9,9,11,1,プミ　ドキ　シド,,,,,,,,,,,,,,,,,,,,,
,,,,,,,,,R_sKVlsNZLMGzhiOR,2022-07-08_02h23.23.676,jpn_C02,2022.1.2,Win32,60.32090723,,,,,,,,,,,,,,,,,,,,,,,,,,,,,,,,,,,,,,,,,,,,,,,,,,,,,,セル　ムク　ホレト,right,14.1872,0,0,0,0,1,,,,,,,,,,,,,,,,,,,,,,,,,,,
,,,,,,,,,R_sKVlsNZLMGzhiOR,2022-07-08_02h23.23.676,jpn_C02,2022.1.2,Win32,60.32090723,,,,,,,,,,,,,CartoonStims/doctor_kick_chef_r.jpg,audio/serupipohoreto.mp3,,,,,,,,,,,,,,,,,,,,,,,,,,,,,,,,,,,,,,,,,,,,,,,,0,10,10,1,1,セル　ピポ　ホレト,,,,,,,,,,,,,,,,,,,,,
,,,,,,,,,R_sKVlsNZLMGzhiOR,2022-07-08_02h23.23.676,jpn_C02,2022.1.2,Win32,60.32090723,,,,,,,,,,,,,,,,,,,,,,,,,,,,,,,,,,,,,,,,,,,,,,,,,,,,,,パツ　ムク　ホレト,right,8.0617,0,0,0,0,1,,,,,,,,,,,,,,,,,,,,,,,,,,,
,,,,,,,,,R_sKVlsNZLMGzhiOR,2022-07-08_02h23.23.676,jpn_C02,2022.1.2,Win32,60.32090723,,,,,,,,,,,,,CartoonStims/cowboy_shoot_doctor_r.jpg,audio/patsumukupipo.mp3,,,,,,,,,,,,,,,,,,,,,,,,,,,,,,,,,,,,,,,,,,,,,,,,0,11,11,8,1,パツ　ムク　ピポ,,,,,,,,,,,,,,,,,,,,,
,,,,,,,,,R_sKVlsNZLMGzhiOR,2022-07-08_02h23.23.676,jpn_C02,2022.1.2,Win32,60.32090723,,,,,,,,,,,,,,,,,,,,,,,,,,,,,,,,,,,,,,,,,,,,,,,,,,,,,,,,,,,,,,,,,,,,,space,2.3393,0,1,1,1,1,AffExposure.xlsx,"第二のトライアルの学習では、この言語で書かれた文を見ていただきます。引き続き注意して、 聞こえた音を復唱してください。


スペースキーを押してください。",1,AffFCT.xlsx,ここからクイズが始まります。 スクリーンに表示されるテキストに合う画像を選んでください。,AffTest.xlsx,1,次にここまで学んだことをアウトプットしていただきます。 表示される画像を描写していると思う単語を、テキストボックスにタイプしてください。 答えを提出したあとに正しい正解が少しの間画面に写ります。,1,"これで第二のトライアルが終了しました。 ここで休憩をとっていただいても構いません。

休憩が終わりましたら、 スペースキーを押して続きの学習を行いましょう。",,,
,,,,,,,,,R_sKVlsNZLMGzhiOR,2022-07-08_02h23.23.676,jpn_C02,2022.1.2,Win32,60.32090723,space,3.5387,space,7.5214,0,0,0,41,1,ピク　プミ　ホレト　ルピン,,,CartoonStims/chef_punch_burglar_r_no.jpg,audio/pikupumihoretolupin.mp3,,,,,,,,,,,,,,,,,,,,,,,,,,,,,,,,,,,,,,,,,,,,,,,,,,,,,,,,,,,,,,,,,,,,,,,,,,
,,,,,,,,,R_sKVlsNZLMGzhiOR,2022-07-08_02h23.23.676,jpn_C02,2022.1.2,Win32,60.32090723,,,space,7.3724,0,1,1,17,1,ピク　トマ　ホレト　ドキ,,,CartoonStims/chef_point_boxer_r_no.jpg,audio/pikutomahoretodoki.mp3,,,,,,,,,,,,,,,,,,,,,,,,,,,,,,,,,,,,,,,,,,,,,,,,,,,,,,,,,,,,,,,,,,,,,,,,,,
,,,,,,,,,R_sKVlsNZLMGzhiOR,2022-07-08_02h23.23.676,jpn_C02,2022.1.2,Win32,60.32090723,,,space,6.0791,0,2,2,24,1,ピク　パツ　シド　ムク,,,CartoonStims/artist_shoot_cowboy_r_no.jpg,audio/pikupatsusidomuku.mp3,,,,,,,,,,,,,,,,,,,,,,,,,,,,,,,,,,,,,,,,,,,,,,,,,,,,,,,,,,,,,,,,,,,,,,,,,,
,,,,,,,,,R_sKVlsNZLMGzhiOR,2022-07-08_02h23.23.676,jpn_C02,2022.1.2,Win32,60.32090723,,,space,3.449,0,3,3,16,1,ピク　トマ　ホレト　ピポ,,,CartoonStims/chef_point_doctor_r_no.jpg,audio/pikutomahoretopipo.mp3,,,,,,,,,,,,,,,,,,,,,,,,,,,,,,,,,,,,,,,,,,,,,,,,,,,,,,,,,,,,,,,,,,,,,,,,,,
,,,,,,,,,R_sKVlsNZLMGzhiOR,2022-07-08_02h23.23.676,jpn_C02,2022.1.2,Win32,60.32090723,,,space,6.784,0,4,4,6,1,ピク　セル　ムク　ピポ,,,CartoonStims/cowboy_kick_doctor_r_no.jpg,audio/pikuserumukupipo.mp3,,,,,,,,,,,,,,,,,,,,,,,,,,,,,,,,,,,,,,,,,,,,,,,,,,,,,,,,,,,,,,,,,,,,,,,,,,
,,,,,,,,,R_sKVlsNZLMGzhiOR,2022-07-08_02h23.23.676,jpn_C02,2022.1.2,Win32,60.32090723,,,space,3.5154,0,5,5,33,1,ピク　パツ　ピポ　ホレト,,,CartoonStims/doctor_shoot_chef_r_no.jpg,audio/pikupatsupipohoreto.mp3,,,,,,,,,,,,,,,,,,,,,,,,,,,,,,,,,,,,,,,,,,,,,,,,,,,,,,,,,,,,,,,,,,,,,,,,,,
,,,,,,,,,R_sKVlsNZLMGzhiOR,2022-07-08_02h23.23.676,jpn_C02,2022.1.2,Win32,60.32090723,,,space,2.799,0,6,6,26,1,ピク　パツ　ルピン　ピポ,,,CartoonStims/burglar_shoot_doctor_r_no.jpg,audio/pikupatsulupinpipo.mp3,,,,,,,,,,,,,,,,,,,,,,,,,,,,,,,,,,,,,,,,,,,,,,,,,,,,,,,,,,,,,,,,,,,,,,,,,,
,,,,,,,,,R_sKVlsNZLMGzhiOR,2022-07-08_02h23.23.676,jpn_C02,2022.1.2,Win32,60.32090723,,,space,2.5517,0,7,7,47,1,ピク　プミ　ドキ　ピポ,,,CartoonStims/boxer_punch_doctor_r_no.jpg,audio/pikupumidokipipo.mp3,,,,,,,,,,,,,,,,,,,,,,,,,,,,,,,,,,,,,,,,,,,,,,,,,,,,,,,,,,,,,,,,,,,,,,,,,,
,,,,,,,,,R_sKVlsNZLMGzhiOR,2022-07-08_02h23.23.676,jpn_C02,2022.1.2,Win32,60.32090723,,,space,7.7867,0,8,8,29,1,パツ　ピク　ホレト　シド,,,CartoonStims/chef_shoot_artist_r_no.jpg,audio/patsupikuhoretosido.mp3,,,,,,,,,,,,,,,,,,,,,,,,,,,,,,,,,,,,,,,,,,,,,,,,,,,,,,,,,,,,,,,,,,,,,,,,,,
,,,,,,,,,R_sKVlsNZLMGzhiOR,2022-07-08_02h23.23.676,jpn_C02,2022.1.2,Win32,60.32090723,,,space,3.4332,0,9,9,31,1,ピク　パツ　ムク　ルピン,,,CartoonStims/cowboy_shoot_burglar_r_no.jpg,audio/pikupatsumukulupin.mp3,,,,,,,,,,,,,,,,,,,,,,,,,,,,,,,,,,,,,,,,,,,,,,,,,,,,,,,,,,,,,,,,,,,,,,,,,,
,,,,,,,,,R_sKVlsNZLMGzhiOR,2022-07-08_02h23.23.676,jpn_C02,2022.1.2,Win32,60.32090723,,,space,3.9422,0,10,10,23,1,トマ　ピク　ドキ　ホレト,,,CartoonStims/boxer_point_chef_r_no.jpg,audio/tomapikudokihoreto.mp3,,,,,,,,,,,,,,,,,,,,,,,,,,,,,,,,,,,,,,,,,,,,,,,,,,,,,,,,,,,,,,,,,,,,,,,,,,
,,,,,,,,,R_sKVlsNZLMGzhiOR,2022-07-08_02h23.23.676,jpn_C02,2022.1.2,Win32,60.32090723,,,space,4.3433,0,11,11,2,1,ピク　セル　ルピン　ホレト,,,CartoonStims/burglar_kick_chef_r_no.jpg,audio/pikuserulupinhoreto.mp3,,,,,,,,,,,,,,,,,,,,,,,,,,,,,,,,,,,,,,,,,,,,,,,,,,,,,,,,,,,,,,,,,,,,,,,,,,
,,,,,,,,,R_sKVlsNZLMGzhiOR,2022-07-08_02h23.23.676,jpn_C02,2022.1.2,Win32,60.32090723,,,space,2.1463,0,12,12,22,1,ピク　トマ　ドキ　ルピン,,,CartoonStims/boxer_point_burglar_r_no.jpg,audio/pikutomadokilupin.mp3,,,,,,,,,,,,,,,,,,,,,,,,,,,,,,,,,,,,,,,,,,,,,,,,,,,,,,,,,,,,,,,,,,,,,,,,,,
,,,,,,,,,R_sKVlsNZLMGzhiOR,2022-07-08_02h23.23.676,jpn_C02,2022.1.2,Win32,60.32090723,,,space,2.0193,0,13,13,9,1,ピク　セル　ピポ　シド,,,CartoonStims/doctor_kick_artist_r_no.jpg,audio/pikuserupiposido.mp3,,,,,,,,,,,,,,,,,,,,,,,,,,,,,,,,,,,,,,,,,,,,,,,,,,,,,,,,,,,,,,,,,,,,,,,,,,
,,,,,,,,,R_sKVlsNZLMGzhiOR,2022-07-08_02h23.23.676,jpn_C02,2022.1.2,Win32,60.32090723,,,space,2.5301,0,14,14,0,1,セル　ピク　シド　ルピン,,,CartoonStims/artist_kick_burglar_r_no.jpg,audio/serupikusidolupin.mp3,,,,,,,,,,,,,,,,,,,,,,,,,,,,,,,,,,,,,,,,,,,,,,,,,,,,,,,,,,,,,,,,,,,,,,,,,,
,,,,,,,,,R_sKVlsNZLMGzhiOR,2022-07-08_02h23.23.676,jpn_C02,2022.1.2,Win32,60.32090723,,,space,1.9524,0,15,15,36,1,ピク　プミ　シド　ピポ,,,CartoonStims/artist_punch_doctor_r_no.jpg,audio/pikupumisidopipo.mp3,,,,,,,,,,,,,,,,,,,,,,,,,,,,,,,,,,,,,,,,,,,,,,,,,,,,,,,,,,,,,,,,,,,,,,,,,,
,,,,,,,,,R_sKVlsNZLMGzhiOR,2022-07-08_02h23.23.676,jpn_C02,2022.1.2,Win32,60.32090723,,,space,1.9928,0,16,16,40,1,ピク　プミ　ホレト　シド,,,CartoonStims/chef_punch_artist_r_no.jpg,audio/pikupumihoretosido.mp3,,,,,,,,,,,,,,,,,,,,,,,,,,,,,,,,,,,,,,,,,,,,,,,,,,,,,,,,,,,,,,,,,,,,,,,,,,
,,,,,,,,,R_sKVlsNZLMGzhiOR,2022-07-08_02h23.23.676,jpn_C02,2022.1.2,Win32,60.32090723,,,space,2.8506,0,17,17,5,1,ピク　セル　ホレト　ピポ,,,CartoonStims/chef_kick_doctor_r_no.jpg,audio/pikuseruhoretopipo.mp3,,,,,,,,,,,,,,,,,,,,,,,,,,,,,,,,,,,,,,,,,,,,,,,,,,,,,,,,,,,,,,,,,,,,,,,,,,
,,,,,,,,,R_sKVlsNZLMGzhiOR,2022-07-08_02h23.23.676,jpn_C02,2022.1.2,Win32,60.32090723,,,space,2.1443,0,18,18,32,1,ピク　パツ　ピポ　ルピン,,,CartoonStims/doctor_shoot_burglar_r_no.jpg,audio/pikupatsupipolupin.mp3,,,,,,,,,,,,,,,,,,,,,,,,,,,,,,,,,,,,,,,,,,,,,,,,,,,,,,,,,,,,,,,,,,,,,,,,,,
,,,,,,,,,R_sKVlsNZLMGzhiOR,2022-07-08_02h23.23.676,jpn_C02,2022.1.2,Win32,60.32090723,,,space,2.4277,0,19,19,43,1,ピク　プミ　ムク　ホレト,,,CartoonStims/cowboy_punch_chef_r_no.jpg,audio/pikupumimukuhoreto.mp3,,,,,,,,,,,,,,,,,,,,,,,,,,,,,,,,,,,,,,,,,,,,,,,,,,,,,,,,,,,,,,,,,,,,,,,,,,
,,,,,,,,,R_sKVlsNZLMGzhiOR,2022-07-08_02h23.23.676,jpn_C02,2022.1.2,Win32,60.32090723,,,space,2.6696,0,20,20,38,1,ピク　プミ　ルピン　ドキ,,,CartoonStims/burglar_punch_boxer_r_no.jpg,audio/pikupumilupindoki.mp3,,,,,,,,,,,,,,,,,,,,,,,,,,,,,,,,,,,,,,,,,,,,,,,,,,,,,,,,,,,,,,,,,,,,,,,,,,
,,,,,,,,,R_sKVlsNZLMGzhiOR,2022-07-08_02h23.23.676,jpn_C02,2022.1.2,Win32,60.32090723,,,space,2.3578,0,21,21,35,1,ピク　パツ　ドキ　ムク,,,CartoonStims/boxer_shoot_cowboy_r_no.jpg,audio/pikupatsudokimuku.mp3,,,,,,,,,,,,,,,,,,,,,,,,,,,,,,,,,,,,,,,,,,,,,,,,,,,,,,,,,,,,,,,,,,,,,,,,,,
,,,,,,,,,R_sKVlsNZLMGzhiOR,2022-07-08_02h23.23.676,jpn_C02,2022.1.2,Win32,60.32090723,,,space,2.4076,0,22,22,3,1,ピク　セル　ルピン　ムク,,,CartoonStims/burglar_kick_cowboy_r_no.jpg,audio/pikuserulupinmuku.mp3,,,,,,,,,,,,,,,,,,,,,,,,,,,,,,,,,,,,,,,,,,,,,,,,,,,,,,,,,,,,,,,,,,,,,,,,,,
,,,,,,,,,R_sKVlsNZLMGzhiOR,2022-07-08_02h23.23.676,jpn_C02,2022.1.2,Win32,60.32090723,,,space,2.8106,0,23,23,34,1,ピク　パツ　ドキ　ホレト,,,CartoonStims/boxer_shoot_chef_r_no.jpg,audio/pikupatsudokihoreto.mp3,,,,,,,,,,,,,,,,,,,,,,,,,,,,,,,,,,,,,,,,,,,,,,,,,,,,,,,,,,,,,,,,,,,,,,,,,,
,,,,,,,,,R_sKVlsNZLMGzhiOR,2022-07-08_02h23.23.676,jpn_C02,2022.1.2,Win32,60.32090723,,,space,2.7266,0,24,24,13,1,ピク　トマ　シド　ムク,,,CartoonStims/artist_point_cowboy_r_no.jpg,audio/pikutomasidomuku.mp3,,,,,,,,,,,,,,,,,,,,,,,,,,,,,,,,,,,,,,,,,,,,,,,,,,,,,,,,,,,,,,,,,,,,,,,,,,
,,,,,,,,,R_sKVlsNZLMGzhiOR,2022-07-08_02h23.23.676,jpn_C02,2022.1.2,Win32,60.32090723,,,space,2.2364,0,25,25,12,1,ピク　トマ　シド　ホレト,,,CartoonStims/artist_point_chef_r_no.jpg,audio/pikutomasidohoreto.mp3,,,,,,,,,,,,,,,,,,,,,,,,,,,,,,,,,,,,,,,,,,,,,,,,,,,,,,,,,,,,,,,,,,,,,,,,,,
,,,,,,,,,R_sKVlsNZLMGzhiOR,2022-07-08_02h23.23.676,jpn_C02,2022.1.2,Win32,60.32090723,,,space,6.0199,0,26,26,27,1,パツ　ピク　ルピン　ドキ,,,CartoonStims/burglar_shoot_boxer_r_no.jpg,audio/patsupikulupindoki.mp3,,,,,,,,,,,,,,,,,,,,,,,,,,,,,,,,,,,,,,,,,,,,,,,,,,,,,,,,,,,,,,,,,,,,,,,,,,
,,,,,,,,,R_sKVlsNZLMGzhiOR,2022-07-08_02h23.23.676,jpn_C02,2022.1.2,Win32,60.32090723,,,space,1.4698,0,27,27,1,1,ピク　セル　シド　ホレト,,,CartoonStims/artist_kick_chef_r_no.jpg,audio/pikuserusidohoreto.mp3,,,,,,,,,,,,,,,,,,,,,,,,,,,,,,,,,,,,,,,,,,,,,,,,,,,,,,,,,,,,,,,,,,,,,,,,,,
,,,,,,,,,R_sKVlsNZLMGzhiOR,2022-07-08_02h23.23.676,jpn_C02,2022.1.2,Win32,60.32090723,,,space,2.8102,0,28,28,39,1,ピク　プミ　ルピン　シド,,,CartoonStims/burglar_punch_artist_r_no.jpg,audio/pikupumilupinsido.mp3,,,,,,,,,,,,,,,,,,,,,,,,,,,,,,,,,,,,,,,,,,,,,,,,,,,,,,,,,,,,,,,,,,,,,,,,,,
,,,,,,,,,R_sKVlsNZLMGzhiOR,2022-07-08_02h23.23.676,jpn_C02,2022.1.2,Win32,60.32090723,,,space,2.0816,0,29,29,7,1,ピク　セル　ムク　ドキ,,,CartoonStims/cowboy_kick_boxer_r_no.jpg,audio/pikuserumukudoki.mp3,,,,,,,,,,,,,,,,,,,,,,,,,,,,,,,,,,,,,,,,,,,,,,,,,,,,,,,,,,,,,,,,,,,,,,,,,,
,,,,,,,,,R_sKVlsNZLMGzhiOR,2022-07-08_02h23.23.676,jpn_C02,2022.1.2,Win32,60.32090723,,,space,6.8015,0,30,30,8,1,セル　ピク　ピポ　ドキ,,,CartoonStims/doctor_kick_boxer_r_no.jpg,audio/serupikupipodoki.mp3,,,,,,,,,,,,,,,,,,,,,,,,,,,,,,,,,,,,,,,,,,,,,,,,,,,,,,,,,,,,,,,,,,,,,,,,,,
,,,,,,,,,R_sKVlsNZLMGzhiOR,2022-07-08_02h23.23.676,jpn_C02,2022.1.2,Win32,60.32090723,,,space,3.5104,0,31,31,19,1,トマ　ピク　ムク　シド,,,CartoonStims/cowboy_point_artist_r_no.jpg,audio/tomapikumukusido.mp3,,,,,,,,,,,,,,,,,,,,,,,,,,,,,,,,,,,,,,,,,,,,,,,,,,,,,,,,,,,,,,,,,,,,,,,,,,
,,,,,,,,,R_sKVlsNZLMGzhiOR,2022-07-08_02h23.23.676,jpn_C02,2022.1.2,Win32,60.32090723,,,space,2.5736,0,32,32,21,1,ピク　トマ　ピポ　ルピン,,,CartoonStims/doctor_point_burglar_r_no.jpg,audio/pikutomapipolupin.mp3,,,,,,,,,,,,,,,,,,,,,,,,,,,,,,,,,,,,,,,,,,,,,,,,,,,,,,,,,,,,,,,,,,,,,,,,,,
,,,,,,,,,R_sKVlsNZLMGzhiOR,2022-07-08_02h23.23.676,jpn_C02,2022.1.2,Win32,60.32090723,,,space,2.3564,0,33,33,37,1,ピク　プミ　シド　ドキ,,,CartoonStims/artist_punch_boxer_r_no.jpg,audio/pikupumisidodoki.mp3,,,,,,,,,,,,,,,,,,,,,,,,,,,,,,,,,,,,,,,,,,,,,,,,,,,,,,,,,,,,,,,,,,,,,,,,,,
,,,,,,,,,R_sKVlsNZLMGzhiOR,2022-07-08_02h23.23.676,jpn_C02,2022.1.2,Win32,60.32090723,,,space,2.2363,0,34,34,14,1,ピク　トマ　ルピン　ムク,,,CartoonStims/burglar_point_cowboy_r_no.jpg,audio/pikutomalupinmuku.mp3,,,,,,,,,,,,,,,,,,,,,,,,,,,,,,,,,,,,,,,,,,,,,,,,,,,,,,,,,,,,,,,,,,,,,,,,,,
,,,,,,,,,R_sKVlsNZLMGzhiOR,2022-07-08_02h23.23.676,jpn_C02,2022.1.2,Win32,60.32090723,,,space,2.3376,0,35,35,10,1,ピク　セル　ドキ　シド,,,CartoonStims/boxer_kick_artist_r_no.jpg,audio/pikuserudokisido.mp3,,,,,,,,,,,,,,,,,,,,,,,,,,,,,,,,,,,,,,,,,,,,,,,,,,,,,,,,,,,,,,,,,,,,,,,,,,
,,,,,,,,,R_sKVlsNZLMGzhiOR,2022-07-08_02h23.23.676,jpn_C02,2022.1.2,Win32,60.32090723,,,space,2.1989,0,36,36,20,1,ピク　トマ　ピポ　シド,,,CartoonStims/doctor_point_artist_r_no.jpg,audio/pikutomapiposido.mp3,,,,,,,,,,,,,,,,,,,,,,,,,,,,,,,,,,,,,,,,,,,,,,,,,,,,,,,,,,,,,,,,,,,,,,,,,,
,,,,,,,,,R_sKVlsNZLMGzhiOR,2022-07-08_02h23.23.676,jpn_C02,2022.1.2,Win32,60.32090723,,,space,3.2317,0,37,37,45,1,ピク　プミ　ピポ　ムク,,,CartoonStims/doctor_punch_cowboy_r_no.jpg,audio/pikupumipipomuku.mp3,,,,,,,,,,,,,,,,,,,,,,,,,,,,,,,,,,,,,,,,,,,,,,,,,,,,,,,,,,,,,,,,,,,,,,,,,,
,,,,,,,,,R_sKVlsNZLMGzhiOR,2022-07-08_02h23.23.676,jpn_C02,2022.1.2,Win32,60.32090723,,,space,3.7183,0,38,38,42,1,プミ　ピク　ムク　ルピン,,,CartoonStims/cowboy_punch_burglar_r_no.jpg,audio/pumipikumukulupin.mp3,,,,,,,,,,,,,,,,,,,,,,,,,,,,,,,,,,,,,,,,,,,,,,,,,,,,,,,,,,,,,,,,,,,,,,,,,,
,,,,,,,,,R_sKVlsNZLMGzhiOR,2022-07-08_02h23.23.676,jpn_C02,2022.1.2,Win32,60.32090723,,,space,2.5599,0,39,39,30,1,ピク　パツ　ムク　シド,,,CartoonStims/cowboy_shoot_artist_r_no.jpg,audio/pikupatsumukusido.mp3,,,,,,,,,,,,,,,,,,,,,,,,,,,,,,,,,,,,,,,,,,,,,,,,,,,,,,,,,,,,,,,,,,,,,,,,,,
,,,,,,,,,R_sKVlsNZLMGzhiOR,2022-07-08_02h23.23.676,jpn_C02,2022.1.2,Win32,60.32090723,,,space,2.1741,0,40,40,11,1,ピク　セル　ドキ　ルピン,,,CartoonStims/boxer_kick_burglar_r_no.jpg,audio/pikuserudokilupin.mp3,,,,,,,,,,,,,,,,,,,,,,,,,,,,,,,,,,,,,,,,,,,,,,,,,,,,,,,,,,,,,,,,,,,,,,,,,,
,,,,,,,,,R_sKVlsNZLMGzhiOR,2022-07-08_02h23.23.676,jpn_C02,2022.1.2,Win32,60.32090723,,,space,3.4545,0,41,41,18,1,ピク　トマ　ムク　ドキ,,,CartoonStims/cowboy_point_boxer_r_no.jpg,audio/pikutomamukudoki.mp3,,,,,,,,,,,,,,,,,,,,,,,,,,,,,,,,,,,,,,,,,,,,,,,,,,,,,,,,,,,,,,,,,,,,,,,,,,
,,,,,,,,,R_sKVlsNZLMGzhiOR,2022-07-08_02h23.23.676,jpn_C02,2022.1.2,Win32,60.32090723,,,space,3.1874,0,42,42,46,1,プミ　ピク　ドキ　ムク,,,CartoonStims/boxer_punch_cowboy_r_no.jpg,audio/pumipikudokimuku.mp3,,,,,,,,,,,,,,,,,,,,,,,,,,,,,,,,,,,,,,,,,,,,,,,,,,,,,,,,,,,,,,,,,,,,,,,,,,
,,,,,,,,,R_sKVlsNZLMGzhiOR,2022-07-08_02h23.23.676,jpn_C02,2022.1.2,Win32,60.32090723,,,space,5.1169,0,43,43,44,1,プミ　ピク　ピポ　ホレト,,,CartoonStims/doctor_punch_chef_r_no.jpg,audio/pumipikupipohoreto.mp3,,,,,,,,,,,,,,,,,,,,,,,,,,,,,,,,,,,,,,,,,,,,,,,,,,,,,,,,,,,,,,,,,,,,,,,,,,
,,,,,,,,,R_sKVlsNZLMGzhiOR,2022-07-08_02h23.23.676,jpn_C02,2022.1.2,Win32,60.32090723,,,space,3.5219,0,44,44,15,1,トマ　ピク　ルピン　ピポ,,,CartoonStims/burglar_point_doctor_r_no.jpg,audio/tomapikulupinpipo.mp3,,,,,,,,,,,,,,,,,,,,,,,,,,,,,,,,,,,,,,,,,,,,,,,,,,,,,,,,,,,,,,,,,,,,,,,,,,
,,,,,,,,,R_sKVlsNZLMGzhiOR,2022-07-08_02h23.23.676,jpn_C02,2022.1.2,Win32,60.32090723,,,space,3.1707,0,45,45,4,1,セル　ピク　ホレト　ムク,,,CartoonStims/chef_kick_cowboy_r_no.jpg,audio/serupikuhoretomuku.mp3,,,,,,,,,,,,,,,,,,,,,,,,,,,,,,,,,,,,,,,,,,,,,,,,,,,,,,,,,,,,,,,,,,,,,,,,,,
,,,,,,,,,R_sKVlsNZLMGzhiOR,2022-07-08_02h23.23.676,jpn_C02,2022.1.2,Win32,60.32090723,,,space,3.8223,0,46,46,25,1,パツ　ピク　シド　ピポ,,,CartoonStims/artist_shoot_doctor_r_no.jpg,audio/patsupikusidopipo.mp3,,,,,,,,,,,,,,,,,,,,,,,,,,,,,,,,,,,,,,,,,,,,,,,,,,,,,,,,,,,,,,,,,,,,,,,,,,
,,,,,,,,,R_sKVlsNZLMGzhiOR,2022-07-08_02h23.23.676,jpn_C02,2022.1.2,Win32,60.32090723,,,space,2.9642,0,47,47,28,1,ピク　パツ　ホレト　ドキ,,,CartoonStims/chef_shoot_boxer_r_no.jpg,audio/pikupatsuhoretodoki.mp3,,,,,,,,,,,,,,,,,,,,,,,,,,,,,,,,,,,,,,,,,,,,,,,,,,,,,,,,,,,,,,,,,,,,,,,,,,
,,,,,,,,,R_sKVlsNZLMGzhiOR,2022-07-08_02h23.23.676,jpn_C02,2022.1.2,Win32,60.32090723,,,,,,,,,,,,,,,space,0.4953,right,0,2.8417,,,,,,,,,,,,,,,,,,0,0,0,0,1,,,,,,,,,,,,,,,,,,,,,,,,,,,,,,,,,,,,,,,,,,,,,,,
,,,,,,,,,R_sKVlsNZLMGzhiOR,2022-07-08_02h23.23.676,jpn_C02,2022.1.2,Win32,60.32090723,,,,,,,,,,,,,,,,,,,,,,,,,0,0,0,2,1,CartoonStims/doctor_point_boxer_r.jpg,ピク　プミ　ピポ　ドキ,CartoonStims/doctor_punch_boxer_r.jpg,left,CartoonStims/doctor_point_boxer_r.jpg,audio/pikupumipipodoki.mp3,"残念！ こちらが正しい画像です。

否定文は起きていないことを示しているのを思い出してください。",,,,,,,,,,,,,,,,,,,,,,,,,,,,,,,,,,,,,,,,,,,,,,,,,,,,
,,,,,,,,,R_sKVlsNZLMGzhiOR,2022-07-08_02h23.23.676,jpn_C02,2022.1.2,Win32,60.32090723,,,,,,,,,,,,,,,,,right,1,3.0203,0,0,0,0,1,,,,,,,,,,,,,,,,,,,,,,,,,,,,,,,,,,,,,,,,,,,,,,,,,,,,,,,,,,,,,,,,
,,,,,,,,,R_sKVlsNZLMGzhiOR,2022-07-08_02h23.23.676,jpn_C02,2022.1.2,Win32,60.32090723,,,,,,,,,,,,,,,,,,,,,,,,,0,1,1,1,1,CartoonStims/chef_punch_cowboy_r.jpg,ピク　プミ　ホレト　ムク,CartoonStims/chef_kick_cowboy_r.jpg,right,CartoonStims/chef_kick_cowboy_r.jpg,audio/pikupumihoretomuku.mp3,"残念！ こちらが正しい画像です。

否定文は起きていないことを示しているのを思い出してください。",,,,,,,,,,,,,,,,,,,,,,,,,,,,,,,,,,,,,,,,,,,,,,,,,,,,
,,,,,,,,,R_sKVlsNZLMGzhiOR,2022-07-08_02h23.23.676,jpn_C02,2022.1.2,Win32,60.32090723,,,,,,,,,,,,,,,,,left,1,3.2825,,,,,,,,,,,,,,,,,,,,,,,0,0,0,0,1,,,,,,,,,,,,,,,,,,,,,,,,,,,,,,,,,,,,,,,,,,
,,,,,,,,,R_sKVlsNZLMGzhiOR,2022-07-08_02h23.23.676,jpn_C02,2022.1.2,Win32,60.32090723,,,,,,,,,,,,,,,,,,,,,,,,,0,2,2,0,1,CartoonStims/artist_shoot_burglar_r.jpg,プミ　ピク　シド　ルピン,CartoonStims/artist_punch_burglar_r.jpg,left,CartoonStims/artist_shoot_burglar_r.jpg,audio/pumipikusidolupin.mp3,"残念！ こちらが正しい画像です。

否定文は起きていないことを示しているのを思い出してください。",,,,,,,,,,,,,,,,,,,,,,,,,,,,,,,,,,,,,,,,,,,,,,,,,,,,
,,,,,,,,,R_sKVlsNZLMGzhiOR,2022-07-08_02h23.23.676,jpn_C02,2022.1.2,Win32,60.32090723,,,,,,,,,,,,,,,,,right,1,3.6168,0,0,0,0,1,,,,,,,,,,,,,,,,,,,,,,,,,,,,,,,,,,,,,,,,,,,,,,,,,,,,,,,,,,,,,,,,
,,,,,,,,,R_sKVlsNZLMGzhiOR,2022-07-08_02h23.23.676,jpn_C02,2022.1.2,Win32,60.32090723,,,,,,,,,,,,,,,,,,,,,,,,,0,3,3,7,1,CartoonStims/cowboy_point_chef_r.jpg,トマ　ピク　ムク　ホレト,CartoonStims/cowboy_kick_chef_r.jpg,right,CartoonStims/cowboy_kick_chef_r.jpg,audio/tomapikumukuhoreto.mp3,"残念！ こちらが正しい画像です。

否定文は起きていないことを示しているのを思い出してください。",,,,,,,,,,,,,,,,,,,,,,,,,,,,,,,,,,,,,,,,,,,,,,,,,,,,
,,,,,,,,,R_sKVlsNZLMGzhiOR,2022-07-08_02h23.23.676,jpn_C02,2022.1.2,Win32,60.32090723,,,,,,,,,,,,,,,,,right,1,1.531,0,0,0,0,1,,,,,,,,,,,,,,,,,,,,,,,,,,,,,,,,,,,,,,,,,,,,,,,,,,,,,,,,,,,,,,,,
,,,,,,,,,R_sKVlsNZLMGzhiOR,2022-07-08_02h23.23.676,jpn_C02,2022.1.2,Win32,60.32090723,,,,,,,,,,,,,,,,,,,,,,,,,0,4,4,11,1,CartoonStims/chef_shoot_burglar_r.jpg,ピク　パツ　ホレト　ルピン,CartoonStims/chef_kick_burglar_r.jpg,right,CartoonStims/chef_kick_burglar_r.jpg,audio/pikupatsuhoretolupin.mp3,"残念！ こちらが正しい画像です。

否定文は起きていないことを示しているのを思い出してください。",,,,,,,,,,,,,,,,,,,,,,,,,,,,,,,,,,,,,,,,,,,,,,,,,,,,
,,,,,,,,,R_sKVlsNZLMGzhiOR,2022-07-08_02h23.23.676,jpn_C02,2022.1.2,Win32,60.32090723,,,,,,,,,,,,,,,,,right,1,1.9826,0,0,0,0,1,,,,,,,,,,,,,,,,,,,,,,,,,,,,,,,,,,,,,,,,,,,,,,,,,,,,,,,,,,,,,,,,
,,,,,,,,,R_sKVlsNZLMGzhiOR,2022-07-08_02h23.23.676,jpn_C02,2022.1.2,Win32,60.32090723,,,,,,,,,,,,,,,,,,,,,,,,,0,5,5,3,1,CartoonStims/chef_kick_artist_r.jpg,セル　ピク　ホレト　シド,CartoonStims/chef_point_artist_r.jpg,right,CartoonStims/chef_point_artist_r.jpg,audio/serupikuhoretosido.mp3,"残念！ こちらが正しい画像です。

否定文は起きていないことを示しているのを思い出してください。",,,,,,,,,,,,,,,,,,,,,,,,,,,,,,,,,,,,,,,,,,,,,,,,,,,,
,,,,,,,,,R_sKVlsNZLMGzhiOR,2022-07-08_02h23.23.676,jpn_C02,2022.1.2,Win32,60.32090723,,,,,,,,,,,,,,,,,right,1,2.7931,0,0,0,0,1,,,,,,,,,,,,,,,,,,,,,,,,,,,,,,,,,,,,,,,,,,,,,,,,,,,,,,,,,,,,,,,,
,,,,,,,,,R_sKVlsNZLMGzhiOR,2022-07-08_02h23.23.676,jpn_C02,2022.1.2,Win32,60.32090723,,,,,,,,,,,,,,,,,,,,,,,,,0,6,6,5,1,CartoonStims/boxer_kick_cowboy_r.jpg,ピク　セル　ドキ　ムク,CartoonStims/boxer_punch_cowboy_r.jpg,right,CartoonStims/boxer_punch_cowboy_r.jpg,audio/pikuserudokimuku.mp3,"残念！ こちらが正しい画像です。

否定文は起きていないことを示しているのを思い出してください。",,,,,,,,,,,,,,,,,,,,,,,,,,,,,,,,,,,,,,,,,,,,,,,,,,,,
,,,,,,,,,R_sKVlsNZLMGzhiOR,2022-07-08_02h23.23.676,jpn_C02,2022.1.2,Win32,60.32090723,,,,,,,,,,,,,,,,,left,1,2.4427,,,,,,,,,,,,,,,,,,,,,,,0,0,0,0,1,,,,,,,,,,,,,,,,,,,,,,,,,,,,,,,,,,,,,,,,,,
,,,,,,,,,R_sKVlsNZLMGzhiOR,2022-07-08_02h23.23.676,jpn_C02,2022.1.2,Win32,60.32090723,,,,,,,,,,,,,,,,,,,,,,,,,0,7,7,10,1,CartoonStims/doctor_punch_cowboy_r.jpg,パツ　ピク　ピポ　ムク,CartoonStims/doctor_shoot_cowboy_r.jpg,left,CartoonStims/doctor_punch_cowboy_r.jpg,audio/patsupikupipomuku.mp3,"残念！ こちらが正しい画像です。

否定文は起きていないことを示しているのを思い出してください。",,,,,,,,,,,,,,,,,,,,,,,,,,,,,,,,,,,,,,,,,,,,,,,,,,,,
,,,,,,,,,R_sKVlsNZLMGzhiOR,2022-07-08_02h23.23.676,jpn_C02,2022.1.2,Win32,60.32090723,,,,,,,,,,,,,,,,,left,1,0.8945,,,,,,,,,,,,,,,,,,,,,,,0,0,0,0,1,,,,,,,,,,,,,,,,,,,,,,,,,,,,,,,,,,,,,,,,,,
,,,,,,,,,R_sKVlsNZLMGzhiOR,2022-07-08_02h23.23.676,jpn_C02,2022.1.2,Win32,60.32090723,,,,,,,,,,,,,,,,,,,,,,,,,0,8,8,6,1,CartoonStims/artist_shoot_boxer_r.jpg,ピク　トマ　シド　ドキ,CartoonStims/artist_point_boxer_r.jpg,left,CartoonStims/artist_shoot_boxer_r.jpg,audio/pikutomasidodoki.mp3,"残念！ こちらが正しい画像です。

否定文は起きていないことを示しているのを思い出してください。",,,,,,,,,,,,,,,,,,,,,,,,,,,,,,,,,,,,,,,,,,,,,,,,,,,,
,,,,,,,,,R_sKVlsNZLMGzhiOR,2022-07-08_02h23.23.676,jpn_C02,2022.1.2,Win32,60.32090723,,,,,,,,,,,,,,,,,right,1,0.8608,0,0,0,0,1,,,,,,,,,,,,,,,,,,,,,,,,,,,,,,,,,,,,,,,,,,,,,,,,,,,,,,,,,,,,,,,,
,,,,,,,,,R_sKVlsNZLMGzhiOR,2022-07-08_02h23.23.676,jpn_C02,2022.1.2,Win32,60.32090723,,,,,,,,,,,,,,,,,,,,,,,,,0,9,9,9,1,CartoonStims/boxer_shoot_doctor_r.jpg,ピク　パツ　ドキ　ピポ,CartoonStims/boxer_point_doctor_r.jpg,right,CartoonStims/boxer_point_doctor_r.jpg,audio/pikupatsudokipipo.mp3,"残念！ こちらが正しい画像です。

否定文は起きていないことを示しているのを思い出してください。",,,,,,,,,,,,,,,,,,,,,,,,,,,,,,,,,,,,,,,,,,,,,,,,,,,,
,,,,,,,,,R_sKVlsNZLMGzhiOR,2022-07-08_02h23.23.676,jpn_C02,2022.1.2,Win32,60.32090723,,,,,,,,,,,,,,,,,left,1,1.736,,,,,,,,,,,,,,,,,,,,,,,0,0,0,0,1,,,,,,,,,,,,,,,,,,,,,,,,,,,,,,,,,,,,,,,,,,
,,,,,,,,,R_sKVlsNZLMGzhiOR,2022-07-08_02h23.23.676,jpn_C02,2022.1.2,Win32,60.32090723,,,,,,,,,,,,,,,,,,,,,,,,,0,10,10,4,1,CartoonStims/burglar_shoot_doctor_r.jpg,ピク　セル　ルピン　ピポ,CartoonStims/burglar_kick_doctor_r.jpg,left,CartoonStims/burglar_shoot_doctor_r.jpg,audio/pikuserulupinpipo.mp3,"残念！ こちらが正しい画像です。

否定文は起きていないことを示しているのを思い出してください。",,,,,,,,,,,,,,,,,,,,,,,,,,,,,,,,,,,,,,,,,,,,,,,,,,,,
,,,,,,,,,R_sKVlsNZLMGzhiOR,2022-07-08_02h23.23.676,jpn_C02,2022.1.2,Win32,60.32090723,,,,,,,,,,,,,,,,,left,1,1.9302,,,,,,,,,,,,,,,,,,,,,,,0,0,0,0,1,,,,,,,,,,,,,,,,,,,,,,,,,,,,,,,,,,,,,,,,,,
,,,,,,,,,R_sKVlsNZLMGzhiOR,2022-07-08_02h23.23.676,jpn_C02,2022.1.2,Win32,60.32090723,,,,,,,,,,,,,,,,,,,,,,,,,0,11,11,8,1,CartoonStims/burglar_punch_artist_r.jpg,ピク　トマ　ルピン　シド,CartoonStims/burglar_point_artist_r.jpg,left,CartoonStims/burglar_punch_artist_r.jpg,audio/pikutomalupinsido.mp3,"残念！ こちらが正しい画像です。

否定文は起きていないことを示しているのを思い出してください。",,,,,,,,,,,,,,,,,,,,,,,,,,,,,,,,,,,,,,,,,,,,,,,,,,,,
,,,,,,,,,R_sKVlsNZLMGzhiOR,2022-07-08_02h23.23.676,jpn_C02,2022.1.2,Win32,60.32090723,,,,,,,,,,,,,CartoonStims/chef_punch_boxer_r_no.jpg,,,,,,,,,,,,,,,,,,,,,,,,,,,,,,,,,,,,,,,space,5.6162,ピク　プミ　ホレト　ドキ,right,18.3346,,,,,,0,0,0,20,1,,,,,,,,,,,,,,,,,,,,ピク　プミ　ホレト　ドキ,プミ　ピク　ホレト　ドキ,1
,,,,,,,,,R_sKVlsNZLMGzhiOR,2022-07-08_02h23.23.676,jpn_C02,2022.1.2,Win32,60.32090723,,,,,,,,,,,,,CartoonStims/doctor_kick_cowboy_r_no.jpg,,,,,,,,,,,,,,,,,,,,,,,,,,,,,,,,,,,,,,,,,ピク　セル　シド　ムク,right,15.6331,,,,,,0,1,1,4,1,,,,,,,,,,,,,,,,,,,,ピク　セル　ピポ　ムク,セル　ピク　ピポ　ムク,1
,,,,,,,,,R_sKVlsNZLMGzhiOR,2022-07-08_02h23.23.676,jpn_C02,2022.1.2,Win32,60.32090723,,,,,,,,,,,,,CartoonStims/boxer_kick_cowboy_r.jpg,,,,,,,,,,,,,,,,,,,,,,,,,,,,,,,,,,,,,,,,,セル　ドキ　ムク,right,9.5742,,,,,,0,2,2,26,1,,,,,,,,,,,,,,,,,,,,セル　ドキ　ムク,セル　ドキ　ムク,0
,,,,,,,,,R_sKVlsNZLMGzhiOR,2022-07-08_02h23.23.676,jpn_C02,2022.1.2,Win32,60.32090723,,,,,,,,,,,,,CartoonStims/doctor_punch_burglar_r_no.jpg,,,,,,,,,,,,,,,,,,,,,,,,,,,,,,,,,,,,,,,,,ピク　プミ　シド　ルピン,right,9.884,,,,,,0,3,3,22,1,,,,,,,,,,,,,,,,,,,,ピク　プミ　ピポ　ルピン,プミ　ピク　ピポ　ルピン,1
,,,,,,,,,R_sKVlsNZLMGzhiOR,2022-07-08_02h23.23.676,jpn_C02,2022.1.2,Win32,60.32090723,,,,,,,,,,,,,CartoonStims/artist_point_burglar_r_no.jpg,,,,,,,,,,,,,,,,,,,,,,,,,,,,,,,,,,,,,,,,,ピク　トム　ポム　ルピン,right,25.9227,,,,,,0,4,4,6,1,,,,,,,,,,,,,,,,,,,,ピク　トマ　シド　ルピン,トマ　ピク　シド　ルピン,1
,,,,,,,,,R_sKVlsNZLMGzhiOR,2022-07-08_02h23.23.676,jpn_C02,2022.1.2,Win32,60.32090723,,,,,,,,,,,,,CartoonStims/boxer_punch_chef_r_no.jpg,,,,,,,,,,,,,,,,,,,,,,,,,,,,,,,,,,,,,,,,,ピク　プミ　ドキ　ホレト,right,15.3551,,,,,,0,5,5,23,1,,,,,,,,,,,,,,,,,,,,ピク　プミ　ドキ　ホレト,プミ　ピク　ドキ　ホレト,1
,,,,,,,,,R_sKVlsNZLMGzhiOR,2022-07-08_02h23.23.676,jpn_C02,2022.1.2,Win32,60.32090723,,,,,,,,,,,,,CartoonStims/chef_point_cowboy_r_no.jpg,,,,,,,,,,,,,,,,,,,,,,,,,,,,,,,,,,,,,,,,,ピク　トム　ホレト　ムク,right,20.427,,,,,,0,6,6,8,1,,,,,,,,,,,,,,,,,,,,ピク　トマ　ホレト　ムク,トマ　ピク　ホレト　ムク,1
,,,,,,,,,R_sKVlsNZLMGzhiOR,2022-07-08_02h23.23.676,jpn_C02,2022.1.2,Win32,60.32090723,,,,,,,,,,,,,CartoonStims/chef_kick_burglar_r_no.jpg,,,,,,,,,,,,,,,,,,,,,,,,,,,,,,,,,,,,,,,,,ピク　セル　ホレト　ルピン,right,16.7439,,,,,,0,7,7,2,1,,,,,,,,,,,,,,,,,,,,ピク　セル　ホレト　ルピン,セル　ピク　ホレト　ルピン,1
,,,,,,,,,R_sKVlsNZLMGzhiOR,2022-07-08_02h23.23.676,jpn_C02,2022.1.2,Win32,60.32090723,,,,,,,,,,,,,CartoonStims/burglar_kick_artist_r_no.jpg,,,,,,,,,,,,,,,,,,,,,,,,,,,,,,,,,,,,,,,,,,right,0.1339,,,,,,0,8,8,1,1,,,,,,,,,,,,,,,,,,,,ピク　セル　ルピン　シド,セル　ピク　ルピン　シド,1
,,,,,,,,,R_sKVlsNZLMGzhiOR,2022-07-08_02h23.23.676,jpn_C02,2022.1.2,Win32,60.32090723,,,,,,,,,,,,,CartoonStims/chef_point_burglar_r.jpg,,,,,,,,,,,,,,,,,,,,,,,,,,,,,,,,,,,,,,,,,トム　ホレト　ルピン,right,9.0265,,,,,,0,9,9,29,1,,,,,,,,,,,,,,,,,,,,トマ　ホレト　ルピン,トマ　ホレト　ルピン,0
,,,,,,,,,R_sKVlsNZLMGzhiOR,2022-07-08_02h23.23.676,jpn_C02,2022.1.2,Win32,60.32090723,,,,,,,,,,,,,CartoonStims/artist_point_boxer_r.jpg,,,,,,,,,,,,,,,,,,,,,,,,,,,,,,,,,,,,,,,,,トム　ムク　ドキ,right,18.0812,,,,,,0,10,10,27,1,,,,,,,,,,,,,,,,,,,,トマ　シド　ドキ,トマ　シド　ドキ,0
,,,,,,,,,R_sKVlsNZLMGzhiOR,2022-07-08_02h23.23.676,jpn_C02,2022.1.2,Win32,60.32090723,,,,,,,,,,,,,CartoonStims/burglar_point_chef_r_no.jpg,,,,,,,,,,,,,,,,,,,,,,,,,,,,,,,,,,,,,,,,,ピク　トム　ルピン　ホレト,right,10.2551,,,,,,0,11,11,7,1,,,,,,,,,,,,,,,,,,,,ピク　トマ　ルピン　ホレト,トマ　ピク　ルピン　ホレト,1
,,,,,,,,,R_sKVlsNZLMGzhiOR,2022-07-08_02h23.23.676,jpn_C02,2022.1.2,Win32,60.32090723,,,,,,,,,,,,,CartoonStims/boxer_shoot_burglar_r_no.jpg,,,,,,,,,,,,,,,,,,,,,,,,,,,,,,,,,,,,,,,,,ピク　パツ　ドキ　ルピン,right,16.4611,,,,,,0,12,12,17,1,,,,,,,,,,,,,,,,,,,,ピク　パツ　ドキ　ルピン,パツ　ピク　ドキ　ルピン,1
,,,,,,,,,R_sKVlsNZLMGzhiOR,2022-07-08_02h23.23.676,jpn_C02,2022.1.2,Win32,60.32090723,,,,,,,,,,,,,CartoonStims/artist_shoot_chef_r_no.jpg,,,,,,,,,,,,,,,,,,,,,,,,,,,,,,,,,,,,,,,,,ピク　パツ　シド　ホレト,right,15.5003,,,,,,0,13,13,12,1,,,,,,,,,,,,,,,,,,,,ピク　パツ　シド　ホレト,パツ　ピク　シド　ホレト,1
,,,,,,,,,R_sKVlsNZLMGzhiOR,2022-07-08_02h23.23.676,jpn_C02,2022.1.2,Win32,60.32090723,,,,,,,,,,,,,CartoonStims/chef_shoot_cowboy_r.jpg,,,,,,,,,,,,,,,,,,,,,,,,,,,,,,,,,,,,,,,,,パツ　ホレト　ムク,right,14.8539,,,,,,0,14,14,31,1,,,,,,,,,,,,,,,,,,,,パツ　ホレト　ムク,パツ　ホレト　ムク,0
,,,,,,,,,R_sKVlsNZLMGzhiOR,2022-07-08_02h23.23.676,jpn_C02,2022.1.2,Win32,60.32090723,,,,,,,,,,,,,CartoonStims/cowboy_point_doctor_r_no.jpg,,,,,,,,,,,,,,,,,,,,,,,,,,,,,,,,,,,,,,,,,ピク　トム　ムク　シド,right,9.1259,,,,,,0,15,15,9,1,,,,,,,,,,,,,,,,,,,,ピク　トマ　ムク　ピポ,トマ　ピク　ムク　ピポ,1
,,,,,,,,,R_sKVlsNZLMGzhiOR,2022-07-08_02h23.23.676,jpn_C02,2022.1.2,Win32,60.32090723,,,,,,,,,,,,,CartoonStims/doctor_point_boxer_r_no.jpg,,,,,,,,,,,,,,,,,,,,,,,,,,,,,,,,,,,,,,,,,ピク　トム　シド　ドキ,right,10.3051,,,,,,0,16,16,10,1,,,,,,,,,,,,,,,,,,,,ピク　トマ　ピポ　ドキ,トマ　ピク　ピポ　ドキ,1
,,,,,,,,,R_sKVlsNZLMGzhiOR,2022-07-08_02h23.23.676,jpn_C02,2022.1.2,Win32,60.32090723,,,,,,,,,,,,,CartoonStims/boxer_point_artist_r_no.jpg,,,,,,,,,,,,,,,,,,,,,,,,,,,,,,,,,,,,,,,,,ピク　トム　ドキ　ムク,right,9.3739,,,,,,0,17,17,11,1,,,,,,,,,,,,,,,,,,,,ピク　トマ　ドキ　シド,トマ　ピク　ドキ　シド,1
,,,,,,,,,R_sKVlsNZLMGzhiOR,2022-07-08_02h23.23.676,jpn_C02,2022.1.2,Win32,60.32090723,,,,,,,,,,,,,CartoonStims/burglar_shoot_chef_r.jpg,,,,,,,,,,,,,,,,,,,,,,,,,,,,,,,,,,,,,,,,,パツ　ルピン　ホレト,right,9.5127,,,,,,0,18,18,30,1,,,,,,,,,,,,,,,,,,,,パツ　ルピン　ホレト,パツ　ルピン　ホレト,0
,,,,,,,,,R_sKVlsNZLMGzhiOR,2022-07-08_02h23.23.676,jpn_C02,2022.1.2,Win32,60.32090723,,,,,,,,,,,,,CartoonStims/burglar_shoot_cowboy_r_no.jpg,,,,,,,,,,,,,,,,,,,,,,,,,,,,,,,,,,,,,,,,,ピク　パツ　ルピン　ムク,right,9.2547,,,,,,0,19,19,13,1,,,,,,,,,,,,,,,,,,,,ピク　パツ　ルピン　ムク,パツ　ピク　ルピン　ムク,1
,,,,,,,,,R_sKVlsNZLMGzhiOR,2022-07-08_02h23.23.676,jpn_C02,2022.1.2,Win32,60.32090723,,,,,,,,,,,,,CartoonStims/artist_kick_boxer_r_no.jpg,,,,,,,,,,,,,,,,,,,,,,,,,,,,,,,,,,,,,,,,,ピク　セル　ムク　ドキ,right,13.8087,,,,,,0,20,20,0,1,,,,,,,,,,,,,,,,,,,,ピク　セル　シド　ドキ,セル　ピク　シド　ドキ,1
,,,,,,,,,R_sKVlsNZLMGzhiOR,2022-07-08_02h23.23.676,jpn_C02,2022.1.2,Win32,60.32090723,,,,,,,,,,,,,CartoonStims/cowboy_shoot_boxer_r_no.jpg,,,,,,,,,,,,,,,,,,,,,,,,,,,,,,,,,,,,,,,,,ピク　パツ　ムク　ドキ,right,12.6682,,,,,,0,21,21,15,1,,,,,,,,,,,,,,,,,,,,ピク　パツ　ムク　ドキ,パツ　ピク　ムク　ドキ,1
,,,,,,,,,R_sKVlsNZLMGzhiOR,2022-07-08_02h23.23.676,jpn_C02,2022.1.2,Win32,60.32090723,,,,,,,,,,,,,CartoonStims/burglar_punch_doctor_r_no.jpg,,,,,,,,,,,,,,,,,,,,,,,,,,,,,,,,,,,,,,,,,ピク　ポム　ルピン　シド,right,13.6288,,,,,,0,22,22,19,1,,,,,,,,,,,,,,,,,,,,ピク　プミ　ルピン　ピポ,プミ　ピク　ルピン　ピポ,1
,,,,,,,,,R_sKVlsNZLMGzhiOR,2022-07-08_02h23.23.676,jpn_C02,2022.1.2,Win32,60.32090723,,,,,,,,,,,,,CartoonStims/burglar_point_artist_r.jpg,,,,,,,,,,,,,,,,,,,,,,,,,,,,,,,,,,,,,,,,,トム　ルピン　ムク,right,11.2896,,,,,,0,23,23,28,1,,,,,,,,,,,,,,,,,,,,トマ　ルピン　シド,トマ　ルピン　シド,0
,,,,,,,,,R_sKVlsNZLMGzhiOR,2022-07-08_02h23.23.676,jpn_C02,2022.1.2,Win32,60.32090723,,,,,,,,,,,,,CartoonStims/cowboy_shoot_doctor_r.jpg,,,,,,,,,,,,,,,,,,,,,,,,,,,,,,,,,,,,,,,,,パツ　ムク　シド,right,8.9837,,,,,,0,24,24,32,1,,,,,,,,,,,,,,,,,,,,パツ　ムク　ピポ,パツ　ムク　ピポ,0
,,,,,,,,,R_sKVlsNZLMGzhiOR,2022-07-08_02h23.23.676,jpn_C02,2022.1.2,Win32,60.32090723,,,,,,,,,,,,,CartoonStims/artist_punch_burglar_r.jpg,,,,,,,,,,,,,,,,,,,,,,,,,,,,,,,,,,,,,,,,,ポム　ムク　ルピン,right,9.1886,,,,,,0,25,25,33,1,,,,,,,,,,,,,,,,,,,,プミ　シド　ルピン,プミ　シド　ルピン,0
,,,,,,,,,R_sKVlsNZLMGzhiOR,2022-07-08_02h23.23.676,jpn_C02,2022.1.2,Win32,60.32090723,,,,,,,,,,,,,CartoonStims/cowboy_kick_burglar_r.jpg,,,,,,,,,,,,,,,,,,,,,,,,,,,,,,,,,,,,,,,,,セル　ムク　ルピン,right,7.5708,,,,,,0,26,26,24,1,,,,,,,,,,,,,,,,,,,,セル　ムク　ルピン,セル　ムク　ルピン,0
,,,,,,,,,R_sKVlsNZLMGzhiOR,2022-07-08_02h23.23.676,jpn_C02,2022.1.2,Win32,60.32090723,,,,,,,,,,,,,CartoonStims/boxer_kick_doctor_r_no.jpg,,,,,,,,,,,,,,,,,,,,,,,,,,,,,,,,,,,,,,,,,ピク　セル　ドキ　シド,right,14.87,,,,,,0,27,27,5,1,,,,,,,,,,,,,,,,,,,,ピク　セル　ドキ　ピポ,セル　ピク　ドキ　ピポ,1
,,,,,,,,,R_sKVlsNZLMGzhiOR,2022-07-08_02h23.23.676,jpn_C02,2022.1.2,Win32,60.32090723,,,,,,,,,,,,,CartoonStims/doctor_kick_chef_r.jpg,,,,,,,,,,,,,,,,,,,,,,,,,,,,,,,,,,,,,,,,,セル　シド　ホレト,right,8.335,,,,,,0,28,28,25,1,,,,,,,,,,,,,,,,,,,,セル　ピポ　ホレト,セル　ピポ　ホレト,0
,,,,,,,,,R_sKVlsNZLMGzhiOR,2022-07-08_02h23.23.676,jpn_C02,2022.1.2,Win32,60.32090723,,,,,,,,,,,,,CartoonStims/cowboy_punch_artist_r_no.jpg,,,,,,,,,,,,,,,,,,,,,,,,,,,,,,,,,,,,,,,,,ピク　ポム　ムク　トム,right,12.2063,,,,,,0,29,29,21,1,,,,,,,,,,,,,,,,,,,,ピク　プミ　ムク　シド,プミ　ピク　ムク　シド,1
,,,,,,,,,R_sKVlsNZLMGzhiOR,2022-07-08_02h23.23.676,jpn_C02,2022.1.2,Win32,60.32090723,,,,,,,,,,,,,CartoonStims/cowboy_kick_chef_r_no.jpg,,,,,,,,,,,,,,,,,,,,,,,,,,,,,,,,,,,,,,,,,ピク　セル　ムク　ホレト,right,14.8079,,,,,,0,30,30,3,1,,,,,,,,,,,,,,,,,,,,ピク　セル　ムク　ホレト,セル　ピク　ムク　ホレト,1
,,,,,,,,,R_sKVlsNZLMGzhiOR,2022-07-08_02h23.23.676,jpn_C02,2022.1.2,Win32,60.32090723,,,,,,,,,,,,,CartoonStims/chef_shoot_doctor_r_no.jpg,,,,,,,,,,,,,,,,,,,,,,,,,,,,,,,,,,,,,,,,,ピク　パツ　ホレト　シド,right,11.9269,,,,,,0,31,31,14,1,,,,,,,,,,,,,,,,,,,,ピク　パツ　ホレト　ピポ,パツ　ピク　ホレト　ピポ,1
,,,,,,,,,R_sKVlsNZLMGzhiOR,2022-07-08_02h23.23.676,jpn_C02,2022.1.2,Win32,60.32090723,,,,,,,,,,,,,CartoonStims/boxer_punch_artist_r.jpg,,,,,,,,,,,,,,,,,,,,,,,,,,,,,,,,,,,,,,,,,ポム　ドキ　ムク,right,6.9512,,,,,,0,32,32,35,1,,,,,,,,,,,,,,,,,,,,プミ　ドキ　シド,プミ　ドキ　シド,0
,,,,,,,,,R_sKVlsNZLMGzhiOR,2022-07-08_02h23.23.676,jpn_C02,2022.1.2,Win32,60.32090723,,,,,,,,,,,,,CartoonStims/artist_punch_cowboy_r_no.jpg,,,,,,,,,,,,,,,,,,,,,,,,,,,,,,,,,,,,,,,,,ピク　ポム　トム　ムク,right,26.9589,,,,,,0,33,33,18,1,,,,,,,,,,,,,,,,,,,,ピク　プミ　シド　ムク,プミ　ピク　シド　ムク,1
,,,,,,,,,R_sKVlsNZLMGzhiOR,2022-07-08_02h23.23.676,jpn_C02,2022.1.2,Win32,60.32090723,,,,,,,,,,,,,CartoonStims/doctor_shoot_artist_r_no.jpg,,,,,,,,,,,,,,,,,,,,,,,,,,,,,,,,,,,,,,,,,ピク　パツ　シド　トム,right,12.9243,,,,,,0,34,34,16,1,,,,,,,,,,,,,,,,,,,,ピク　パツ　ピポ　シド,パツ　ピク　ピポ　シド,1
,,,,,,,,,R_sKVlsNZLMGzhiOR,2022-07-08_02h23.23.676,jpn_C02,2022.1.2,Win32,60.32090723,,,,,,,,,,,,,CartoonStims/doctor_punch_boxer_r.jpg,,,,,,,,,,,,,,,,,,,,,,,,,,,,,,,,,,,,,,,,,,right,0.116,,,,,,0,35,35,34,1,,,,,,,,,,,,,,,,,,,,プミ　ピポ　ドキ,プミ　ピポ　ドキ,0
,,,,,,,,,R_sKVlsNZLMGzhiOR,2022-07-08_02h23.23.676,jpn_C02,2022.1.2,Win32,60.32090723,,,,,,,,,,,,,,,,,,,,,,,,,,,,,,,,,,,,,,,,,,,,,,,,,,,,,,,,,,,,,,,,,,,,,space,2.5328,0,2,2,2,1,NegVCondition.xlsx,"ここではこの言語における否定の文を学習していただきます。引き続き注意して、 聞こえた音を復唱してください。

スペースキーを押してください。",1,NegVFCT.xlsx,ここからクイズが始まります。 スクリーンに表示されるテキストに合うイメージを選んでください。,NegTest.xlsx,1,最後にここまで学んだことをアウトプットしていただきます。 テキストボックスにあるイメージを描写するテキストを入力してください。 このタスクでは、 答え合わせは行いません。,0,これですべての実験が終わりました。 お疲れさまです。 この後はアンケートに答えていただきます。,,,