key_resp_instr_a.keys,key_resp_instr_a.rt,key_resp_instr_b.keys,key_resp_instr_b.rt,dummy.thisRepN,dummy.thisTrialN,dummy.thisN,dummy.thisIndex,dummy.ran,participant,date,expName,psychopyVersion,OS,frameRate,key_resp_instr1.keys,key_resp_instr1.rt,key_resp.keys,key_resp.rt,exp_loop.thisRepN,exp_loop.thisTrialN,exp_loop.thisN,exp_loop.thisIndex,exp_loop.ran,Word,English,Flip,Path,Audio,key_resp_instr2.keys,key_resp_instr2.rt,key_resp_fct.keys,key_resp_fct.corr,key_resp_fct.rt,trials_2.thisRepN,trials_2.thisTrialN,trials_2.thisN,trials_2.thisIndex,trials_2.ran,fct_loop.thisRepN,fct_loop.thisTrialN,fct_loop.thisN,fct_loop.thisIndex,fct_loop.ran,left_img,word,right_img,correctans,correct_img,audio,incorrect_feedback,trials.thisRepN,trials.thisTrialN,trials.thisN,trials.thisIndex,trials.ran,trials_3.thisRepN,trials_3.thisTrialN,trials_3.thisN,trials_3.thisIndex,trials_3.ran,key_resp_instr3.keys,key_resp_instr3.rt,textbox.text,key_resp_2.keys,key_resp_2.rt,fb_yn.thisRepN,fb_yn.thisTrialN,fb_yn.thisN,fb_yn.thisIndex,fb_yn.ran,gather_loop.thisRepN,gather_loop.thisTrialN,gather_loop.thisN,gather_loop.thisIndex,gather_loop.ran,Text,Wordbank,key_resp_instr4.keys,key_resp_instr4.rt,master_loop.thisRepN,master_loop.thisTrialN,master_loop.thisN,master_loop.thisIndex,master_loop.ran,exposure_file,instr_1,exp_reps,fct_file,instr_2,gather_file,gather_reps,instr_3,fReps,instr_4,NegVSentence,VNegSentence,NegTF
space,3.835,space,8.805,0,0,0,0,1,R_1rHyfMTU4R3Ng8o,2022-06-25_00h12.39.144,jpn_C01,2022.1.2,Linux x86_64,59.88023952,,,,,,,,,,,,,,,,,,,,,,,,,,,,,,,,,,,,,,,,,,,,,,,,,,,,,,,,,,,,,,,,,,,,,,,,,,,,,,,,,,,
,,,,,,,,,R_1rHyfMTU4R3Ng8o,2022-06-25_00h12.39.144,jpn_C01,2022.1.2,Linux x86_64,59.88023952,space,8.004,space,2.902,0,0,0,3,1,ムク,cowboy,,CartoonStims/cowboy_r.jpg,audio/muku.mp3,,,,,,,,,,,,,,,,,,,,,,,,,,,,,,,,,,,,,,,,,,,,,,,,,,,,,,,,,,,,,,,,,,,,,
,,,,,,,,,R_1rHyfMTU4R3Ng8o,2022-06-25_00h12.39.144,jpn_C01,2022.1.2,Linux x86_64,59.88023952,,,space,2.118,0,1,1,0,1,シド,artist,,CartoonStims/artist_r.jpg,audio/sido.mp3,,,,,,,,,,,,,,,,,,,,,,,,,,,,,,,,,,,,,,,,,,,,,,,,,,,,,,,,,,,,,,,,,,,,,
,,,,,,,,,R_1rHyfMTU4R3Ng8o,2022-06-25_00h12.39.144,jpn_C01,2022.1.2,Linux x86_64,59.88023952,,,space,1.926,0,2,2,4,1,ピポ,doctor,,CartoonStims/doctor_r.jpg,audio/pipo.mp3,,,,,,,,,,,,,,,,,,,,,,,,,,,,,,,,,,,,,,,,,,,,,,,,,,,,,,,,,,,,,,,,,,,,,
,,,,,,,,,R_1rHyfMTU4R3Ng8o,2022-06-25_00h12.39.144,jpn_C01,2022.1.2,Linux x86_64,59.88023952,,,space,1.701,0,3,3,2,1,ホレト,chef,,CartoonStims/chef_r.jpg,audio/horeto.mp3,,,,,,,,,,,,,,,,,,,,,,,,,,,,,,,,,,,,,,,,,,,,,,,,,,,,,,,,,,,,,,,,,,,,,
,,,,,,,,,R_1rHyfMTU4R3Ng8o,2022-06-25_00h12.39.144,jpn_C01,2022.1.2,Linux x86_64,59.88023952,,,space,2.764,0,4,4,1,1,ルピン,burglar,,CartoonStims/burglar_r.jpg,audio/lupin.mp3,,,,,,,,,,,,,,,,,,,,,,,,,,,,,,,,,,,,,,,,,,,,,,,,,,,,,,,,,,,,,,,,,,,,,
,,,,,,,,,R_1rHyfMTU4R3Ng8o,2022-06-25_00h12.39.144,jpn_C01,2022.1.2,Linux x86_64,59.88023952,,,space,2.568,0,5,5,5,1,ドキ,boxer,,CartoonStims/boxer_r.jpg,audio/doki.mp3,,,,,,,,,,,,,,,,,,,,,,,,,,,,,,,,,,,,,,,,,,,,,,,,,,,,,,,,,,,,,,,,,,,,,
,,,,,,,,,R_1rHyfMTU4R3Ng8o,2022-06-25_00h12.39.144,jpn_C01,2022.1.2,Linux x86_64,59.88023952,,,space,2.393,1,0,6,2,1,ホレト,chef,,CartoonStims/chef_r.jpg,audio/horeto.mp3,,,,,,,,,,,,,,,,,,,,,,,,,,,,,,,,,,,,,,,,,,,,,,,,,,,,,,,,,,,,,,,,,,,,,
,,,,,,,,,R_1rHyfMTU4R3Ng8o,2022-06-25_00h12.39.144,jpn_C01,2022.1.2,Linux x86_64,59.88023952,,,space,4.253,1,1,7,4,1,ピポ,doctor,,CartoonStims/doctor_r.jpg,audio/pipo.mp3,,,,,,,,,,,,,,,,,,,,,,,,,,,,,,,,,,,,,,,,,,,,,,,,,,,,,,,,,,,,,,,,,,,,,
,,,,,,,,,R_1rHyfMTU4R3Ng8o,2022-06-25_00h12.39.144,jpn_C01,2022.1.2,Linux x86_64,59.88023952,,,space,1.165,1,2,8,5,1,ドキ,boxer,,CartoonStims/boxer_r.jpg,audio/doki.mp3,,,,,,,,,,,,,,,,,,,,,,,,,,,,,,,,,,,,,,,,,,,,,,,,,,,,,,,,,,,,,,,,,,,,,
,,,,,,,,,R_1rHyfMTU4R3Ng8o,2022-06-25_00h12.39.144,jpn_C01,2022.1.2,Linux x86_64,59.88023952,,,space,0.969,1,3,9,3,1,ムク,cowboy,,CartoonStims/cowboy_r.jpg,audio/muku.mp3,,,,,,,,,,,,,,,,,,,,,,,,,,,,,,,,,,,,,,,,,,,,,,,,,,,,,,,,,,,,,,,,,,,,,
,,,,,,,,,R_1rHyfMTU4R3Ng8o,2022-06-25_00h12.39.144,jpn_C01,2022.1.2,Linux x86_64,59.88023952,,,space,1.466,1,4,10,0,1,シド,artist,,CartoonStims/artist_r.jpg,audio/sido.mp3,,,,,,,,,,,,,,,,,,,,,,,,,,,,,,,,,,,,,,,,,,,,,,,,,,,,,,,,,,,,,,,,,,,,,
,,,,,,,,,R_1rHyfMTU4R3Ng8o,2022-06-25_00h12.39.144,jpn_C01,2022.1.2,Linux x86_64,59.88023952,,,space,1.106,1,5,11,1,1,ルピン,burglar,,CartoonStims/burglar_r.jpg,audio/lupin.mp3,,,,,,,,,,,,,,,,,,,,,,,,,,,,,,,,,,,,,,,,,,,,,,,,,,,,,,,,,,,,,,,,,,,,,
,,,,,,,,,R_1rHyfMTU4R3Ng8o,2022-06-25_00h12.39.144,jpn_C01,2022.1.2,Linux x86_64,59.88023952,,,space,1.602,2,0,12,2,1,ホレト,chef,,CartoonStims/chef_r.jpg,audio/horeto.mp3,,,,,,,,,,,,,,,,,,,,,,,,,,,,,,,,,,,,,,,,,,,,,,,,,,,,,,,,,,,,,,,,,,,,,
,,,,,,,,,R_1rHyfMTU4R3Ng8o,2022-06-25_00h12.39.144,jpn_C01,2022.1.2,Linux x86_64,59.88023952,,,space,0.916,2,1,13,0,1,シド,artist,,CartoonStims/artist_r.jpg,audio/sido.mp3,,,,,,,,,,,,,,,,,,,,,,,,,,,,,,,,,,,,,,,,,,,,,,,,,,,,,,,,,,,,,,,,,,,,,
,,,,,,,,,R_1rHyfMTU4R3Ng8o,2022-06-25_00h12.39.144,jpn_C01,2022.1.2,Linux x86_64,59.88023952,,,space,0.797,2,2,14,3,1,ムク,cowboy,,CartoonStims/cowboy_r.jpg,audio/muku.mp3,,,,,,,,,,,,,,,,,,,,,,,,,,,,,,,,,,,,,,,,,,,,,,,,,,,,,,,,,,,,,,,,,,,,,
,,,,,,,,,R_1rHyfMTU4R3Ng8o,2022-06-25_00h12.39.144,jpn_C01,2022.1.2,Linux x86_64,59.88023952,,,space,0.604,2,3,15,4,1,ピポ,doctor,,CartoonStims/doctor_r.jpg,audio/pipo.mp3,,,,,,,,,,,,,,,,,,,,,,,,,,,,,,,,,,,,,,,,,,,,,,,,,,,,,,,,,,,,,,,,,,,,,
,,,,,,,,,R_1rHyfMTU4R3Ng8o,2022-06-25_00h12.39.144,jpn_C01,2022.1.2,Linux x86_64,59.88023952,,,space,0.37,2,4,16,1,1,ルピン,burglar,,CartoonStims/burglar_r.jpg,audio/lupin.mp3,,,,,,,,,,,,,,,,,,,,,,,,,,,,,,,,,,,,,,,,,,,,,,,,,,,,,,,,,,,,,,,,,,,,,
,,,,,,,,,R_1rHyfMTU4R3Ng8o,2022-06-25_00h12.39.144,jpn_C01,2022.1.2,Linux x86_64,59.88023952,,,space,0.445,2,5,17,5,1,ドキ,boxer,,CartoonStims/boxer_r.jpg,audio/doki.mp3,,,,,,,,,,,,,,,,,,,,,,,,,,,,,,,,,,,,,,,,,,,,,,,,,,,,,,,,,,,,,,,,,,,,,
,,,,,,,,,R_1rHyfMTU4R3Ng8o,2022-06-25_00h12.39.144,jpn_C01,2022.1.2,Linux x86_64,59.88023952,,,,,,,,,,,,,,,space,0.515,right,1,4.01,0,0,0,0,1,,,,,,,,,,,,,,,,,,,,,,,,,,,,,,,,,,,,,,,,,,,,,,,,,,,,,,,,,,,
,,,,,,,,,R_1rHyfMTU4R3Ng8o,2022-06-25_00h12.39.144,jpn_C01,2022.1.2,Linux x86_64,59.88023952,,,,,,,,,,,,,,,,,,,,,,,,,0,0,0,11,1,CartoonStims/burglar_r.jpg,ドキ,CartoonStims/boxer_r.jpg,right,CartoonStims/boxer_r.jpg,audio/doki.mp3,残念！ こちらが正しい画像です。,,,,,,,,,,,,,,,,,,,,,,,,,,,,,,,,,,,,,,,,,,,,,,,
,,,,,,,,,R_1rHyfMTU4R3Ng8o,2022-06-25_00h12.39.144,jpn_C01,2022.1.2,Linux x86_64,59.88023952,,,,,,,,,,,,,,,,,left,1,0.487,,,,,,,,,,,,,,,,,,0,0,0,0,1,,,,,,,,,,,,,,,,,,,,,,,,,,,,,,,,,,,,,,,,,,
,,,,,,,,,R_1rHyfMTU4R3Ng8o,2022-06-25_00h12.39.144,jpn_C01,2022.1.2,Linux x86_64,59.88023952,,,,,,,,,,,,,,,,,,,,,,,,,0,1,1,1,1,CartoonStims/burglar_r.jpg,ルピン,CartoonStims/chef_r.jpg,left,CartoonStims/burglar_r.jpg,audio/lupin.mp3,残念！ こちらが正しい画像です。,,,,,,,,,,,,,,,,,,,,,,,,,,,,,,,,,,,,,,,,,,,,,,,
,,,,,,,,,R_1rHyfMTU4R3Ng8o,2022-06-25_00h12.39.144,jpn_C01,2022.1.2,Linux x86_64,59.88023952,,,,,,,,,,,,,,,,,right,1,1.652,0,0,0,0,1,,,,,,,,,,,,,,,,,,,,,,,,,,,,,,,,,,,,,,,,,,,,,,,,,,,,,,,,,,,
,,,,,,,,,R_1rHyfMTU4R3Ng8o,2022-06-25_00h12.39.144,jpn_C01,2022.1.2,Linux x86_64,59.88023952,,,,,,,,,,,,,,,,,,,,,,,,,0,2,2,6,1,CartoonStims/chef_r.jpg,シド,CartoonStims/artist_r.jpg,right,CartoonStims/artist_r.jpg,audio/sido.mp3,残念！ こちらが正しい画像です。,,,,,,,,,,,,,,,,,,,,,,,,,,,,,,,,,,,,,,,,,,,,,,,
,,,,,,,,,R_1rHyfMTU4R3Ng8o,2022-06-25_00h12.39.144,jpn_C01,2022.1.2,Linux x86_64,59.88023952,,,,,,,,,,,,,,,,,right,0,1.064,,,,,,,,,,,,,,,,,,,,,,,0,0,0,0,1,,,,,,,,,,,,,,,,,,,,,,,,,,,,,,,,,,,,,
,,,,,,,,,R_1rHyfMTU4R3Ng8o,2022-06-25_00h12.39.144,jpn_C01,2022.1.2,Linux x86_64,59.88023952,,,,,,,,,,,,,,,,,,,,,,,,,0,3,3,2,1,CartoonStims/chef_r.jpg,ホレト,CartoonStims/cowboy_r.jpg,left,CartoonStims/chef_r.jpg,audio/horeto.mp3,残念！ こちらが正しい画像です。,,,,,,,,,,,,,,,,,,,,,,,,,,,,,,,,,,,,,,,,,,,,,,,
,,,,,,,,,R_1rHyfMTU4R3Ng8o,2022-06-25_00h12.39.144,jpn_C01,2022.1.2,Linux x86_64,59.88023952,,,,,,,,,,,,,,,,,right,1,1.634,0,0,0,0,1,,,,,,,,,,,,,,,,,,,,,,,,,,,,,,,,,,,,,,,,,,,,,,,,,,,,,,,,,,,
,,,,,,,,,R_1rHyfMTU4R3Ng8o,2022-06-25_00h12.39.144,jpn_C01,2022.1.2,Linux x86_64,59.88023952,,,,,,,,,,,,,,,,,,,,,,,,,0,4,4,8,1,CartoonStims/doctor_r.jpg,ホレト,CartoonStims/chef_r.jpg,right,CartoonStims/chef_r.jpg,audio/horeto.mp3,残念！ こちらが正しい画像です。,,,,,,,,,,,,,,,,,,,,,,,,,,,,,,,,,,,,,,,,,,,,,,,
,,,,,,,,,R_1rHyfMTU4R3Ng8o,2022-06-25_00h12.39.144,jpn_C01,2022.1.2,Linux x86_64,59.88023952,,,,,,,,,,,,,,,,,right,1,0.623,0,0,0,0,1,,,,,,,,,,,,,,,,,,,,,,,,,,,,,,,,,,,,,,,,,,,,,,,,,,,,,,,,,,,
,,,,,,,,,R_1rHyfMTU4R3Ng8o,2022-06-25_00h12.39.144,jpn_C01,2022.1.2,Linux x86_64,59.88023952,,,,,,,,,,,,,,,,,,,,,,,,,0,5,5,7,1,CartoonStims/cowboy_r.jpg,ルピン,CartoonStims/burglar_r.jpg,right,CartoonStims/burglar_r.jpg,audio/lupin.mp3,残念！ こちらが正しい画像です。,,,,,,,,,,,,,,,,,,,,,,,,,,,,,,,,,,,,,,,,,,,,,,,
,,,,,,,,,R_1rHyfMTU4R3Ng8o,2022-06-25_00h12.39.144,jpn_C01,2022.1.2,Linux x86_64,59.88023952,,,,,,,,,,,,,,,,,left,1,1.003,,,,,,,,,,,,,,,,,,0,0,0,0,1,,,,,,,,,,,,,,,,,,,,,,,,,,,,,,,,,,,,,,,,,,
,,,,,,,,,R_1rHyfMTU4R3Ng8o,2022-06-25_00h12.39.144,jpn_C01,2022.1.2,Linux x86_64,59.88023952,,,,,,,,,,,,,,,,,,,,,,,,,0,6,6,4,1,CartoonStims/doctor_r.jpg,ピポ,CartoonStims/boxer_r.jpg,left,CartoonStims/doctor_r.jpg,audio/pipo.mp3,残念！ こちらが正しい画像です。,,,,,,,,,,,,,,,,,,,,,,,,,,,,,,,,,,,,,,,,,,,,,,,
,,,,,,,,,R_1rHyfMTU4R3Ng8o,2022-06-25_00h12.39.144,jpn_C01,2022.1.2,Linux x86_64,59.88023952,,,,,,,,,,,,,,,,,left,1,1.086,,,,,,,,,,,,,,,,,,0,0,0,0,1,,,,,,,,,,,,,,,,,,,,,,,,,,,,,,,,,,,,,,,,,,
,,,,,,,,,R_1rHyfMTU4R3Ng8o,2022-06-25_00h12.39.144,jpn_C01,2022.1.2,Linux x86_64,59.88023952,,,,,,,,,,,,,,,,,,,,,,,,,0,7,7,5,1,CartoonStims/boxer_r.jpg,ドキ,CartoonStims/artist_r.jpg,left,CartoonStims/boxer_r.jpg,audio/doki.mp3,残念！ こちらが正しい画像です。,,,,,,,,,,,,,,,,,,,,,,,,,,,,,,,,,,,,,,,,,,,,,,,
,,,,,,,,,R_1rHyfMTU4R3Ng8o,2022-06-25_00h12.39.144,jpn_C01,2022.1.2,Linux x86_64,59.88023952,,,,,,,,,,,,,,,,,left,1,2.71,,,,,,,,,,,,,,,,,,0,0,0,0,1,,,,,,,,,,,,,,,,,,,,,,,,,,,,,,,,,,,,,,,,,,
,,,,,,,,,R_1rHyfMTU4R3Ng8o,2022-06-25_00h12.39.144,jpn_C01,2022.1.2,Linux x86_64,59.88023952,,,,,,,,,,,,,,,,,,,,,,,,,0,8,8,3,1,CartoonStims/cowboy_r.jpg,ムク,CartoonStims/doctor_r.jpg,left,CartoonStims/cowboy_r.jpg,audio/muku.mp3,残念！ こちらが正しい画像です。,,,,,,,,,,,,,,,,,,,,,,,,,,,,,,,,,,,,,,,,,,,,,,,
,,,,,,,,,R_1rHyfMTU4R3Ng8o,2022-06-25_00h12.39.144,jpn_C01,2022.1.2,Linux x86_64,59.88023952,,,,,,,,,,,,,,,,,left,1,1.079,,,,,,,,,,,,,,,,,,0,0,0,0,1,,,,,,,,,,,,,,,,,,,,,,,,,,,,,,,,,,,,,,,,,,
,,,,,,,,,R_1rHyfMTU4R3Ng8o,2022-06-25_00h12.39.144,jpn_C01,2022.1.2,Linux x86_64,59.88023952,,,,,,,,,,,,,,,,,,,,,,,,,0,9,9,0,1,CartoonStims/artist_r.jpg,シド,CartoonStims/burglar_r.jpg,left,CartoonStims/artist_r.jpg,audio/sido.mp3,残念！ こちらが正しい画像です。,,,,,,,,,,,,,,,,,,,,,,,,,,,,,,,,,,,,,,,,,,,,,,,
,,,,,,,,,R_1rHyfMTU4R3Ng8o,2022-06-25_00h12.39.144,jpn_C01,2022.1.2,Linux x86_64,59.88023952,,,,,,,,,,,,,,,,,right,1,0.826,0,0,0,0,1,,,,,,,,,,,,,,,,,,,,,,,,,,,,,,,,,,,,,,,,,,,,,,,,,,,,,,,,,,,
,,,,,,,,,R_1rHyfMTU4R3Ng8o,2022-06-25_00h12.39.144,jpn_C01,2022.1.2,Linux x86_64,59.88023952,,,,,,,,,,,,,,,,,,,,,,,,,0,10,10,9,1,CartoonStims/boxer_r.jpg,ムク,CartoonStims/cowboy_r.jpg,right,CartoonStims/cowboy_r.jpg,audio/muku.mp3,残念！ こちらが正しい画像です。,,,,,,,,,,,,,,,,,,,,,,,,,,,,,,,,,,,,,,,,,,,,,,,
,,,,,,,,,R_1rHyfMTU4R3Ng8o,2022-06-25_00h12.39.144,jpn_C01,2022.1.2,Linux x86_64,59.88023952,,,,,,,,,,,,,,,,,right,1,2.319,0,0,0,0,1,,,,,,,,,,,,,,,,,,,,,,,,,,,,,,,,,,,,,,,,,,,,,,,,,,,,,,,,,,,
,,,,,,,,,R_1rHyfMTU4R3Ng8o,2022-06-25_00h12.39.144,jpn_C01,2022.1.2,Linux x86_64,59.88023952,,,,,,,,,,,,,,,,,,,,,,,,,0,11,11,10,1,CartoonStims/artist_r.jpg,ピポ,CartoonStims/doctor_r.jpg,right,CartoonStims/doctor_r.jpg,audio/pipo.mp3,残念！ こちらが正しい画像です。,,,,,,,,,,,,,,,,,,,,,,,,,,,,,,,,,,,,,,,,,,,,,,,
,,,,,,,,,R_1rHyfMTU4R3Ng8o,2022-06-25_00h12.39.144,jpn_C01,2022.1.2,Linux x86_64,59.88023952,,,,,,,,,,,,,,,,,,,,,,,,,,,,,,,,,,,,,,,,,,,,,,,space,7.903,ピポ,right,4.589,0,0,0,0,1,,,,,,,,,,,,,,,,,,,,,,,,,,,
,,,,,,,,,R_1rHyfMTU4R3Ng8o,2022-06-25_00h12.39.144,jpn_C01,2022.1.2,Linux x86_64,59.88023952,,,,,,,,,,,,,CartoonStims/doctor_r.jpg,audio/pipo.mp3,,,,,,,,,,,,,,,,,,,,,,,,,,,,,,,,,,,,,,,,,,,0,0,0,4,1,ピポ,,,,,,,,,,,,,,,,,,,,,
,,,,,,,,,R_1rHyfMTU4R3Ng8o,2022-06-25_00h12.39.144,jpn_C01,2022.1.2,Linux x86_64,59.88023952,,,,,,,,,,,,,,,,,,,,,,,,,,,,,,,,,,,,,,,,,,,,,,,,,,right,13.627,0,0,0,0,1,,,,,,,,,,,,,,,,,,,,,,,,,,,
,,,,,,,,,R_1rHyfMTU4R3Ng8o,2022-06-25_00h12.39.144,jpn_C01,2022.1.2,Linux x86_64,59.88023952,,,,,,,,,,,,,CartoonStims/artist_r.jpg,audio/sido.mp3,,,,,,,,,,,,,,,,,,,,,,,,,,,,,,,,,,,,,,,,,,,0,1,1,0,1,シド,,,,,,,,,,,,,,,,,,,,,
,,,,,,,,,R_1rHyfMTU4R3Ng8o,2022-06-25_00h12.39.144,jpn_C01,2022.1.2,Linux x86_64,59.88023952,,,,,,,,,,,,,,,,,,,,,,,,,,,,,,,,,,,,,,,,,,,,,,,,,,right,8.219,0,0,0,0,1,,,,,,,,,,,,,,,,,,,,,,,,,,,
,,,,,,,,,R_1rHyfMTU4R3Ng8o,2022-06-25_00h12.39.144,jpn_C01,2022.1.2,Linux x86_64,59.88023952,,,,,,,,,,,,,CartoonStims/chef_r.jpg,audio/horeto.mp3,,,,,,,,,,,,,,,,,,,,,,,,,,,,,,,,,,,,,,,,,,,0,2,2,2,1,ホレト,,,,,,,,,,,,,,,,,,,,,
,,,,,,,,,R_1rHyfMTU4R3Ng8o,2022-06-25_00h12.39.144,jpn_C01,2022.1.2,Linux x86_64,59.88023952,,,,,,,,,,,,,,,,,,,,,,,,,,,,,,,,,,,,,,,,,,,,,,,,,ルピン,right,6.898,0,0,0,0,1,,,,,,,,,,,,,,,,,,,,,,,,,,,
,,,,,,,,,R_1rHyfMTU4R3Ng8o,2022-06-25_00h12.39.144,jpn_C01,2022.1.2,Linux x86_64,59.88023952,,,,,,,,,,,,,CartoonStims/burglar_r.jpg,audio/lupin.mp3,,,,,,,,,,,,,,,,,,,,,,,,,,,,,,,,,,,,,,,,,,,0,3,3,1,1,ルピン,,,,,,,,,,,,,,,,,,,,,
,,,,,,,,,R_1rHyfMTU4R3Ng8o,2022-06-25_00h12.39.144,jpn_C01,2022.1.2,Linux x86_64,59.88023952,,,,,,,,,,,,,,,,,,,,,,,,,,,,,,,,,,,,,,,,,,,,,,,,,シド,right,2.44,0,0,0,0,1,,,,,,,,,,,,,,,,,,,,,,,,,,,
,,,,,,,,,R_1rHyfMTU4R3Ng8o,2022-06-25_00h12.39.144,jpn_C01,2022.1.2,Linux x86_64,59.88023952,,,,,,,,,,,,,CartoonStims/cowboy_r.jpg,audio/muku.mp3,,,,,,,,,,,,,,,,,,,,,,,,,,,,,,,,,,,,,,,,,,,0,4,4,3,1,ムク,,,,,,,,,,,,,,,,,,,,,
,,,,,,,,,R_1rHyfMTU4R3Ng8o,2022-06-25_00h12.39.144,jpn_C01,2022.1.2,Linux x86_64,59.88023952,,,,,,,,,,,,,,,,,,,,,,,,,,,,,,,,,,,,,,,,,,,,,,,,,シド,right,7.891,0,0,0,0,1,,,,,,,,,,,,,,,,,,,,,,,,,,,
,,,,,,,,,R_1rHyfMTU4R3Ng8o,2022-06-25_00h12.39.144,jpn_C01,2022.1.2,Linux x86_64,59.88023952,,,,,,,,,,,,,CartoonStims/boxer_r.jpg,audio/doki.mp3,,,,,,,,,,,,,,,,,,,,,,,,,,,,,,,,,,,,,,,,,,,0,5,5,5,1,ドキ,,,,,,,,,,,,,,,,,,,,,
,,,,,,,,,R_1rHyfMTU4R3Ng8o,2022-06-25_00h12.39.144,jpn_C01,2022.1.2,Linux x86_64,59.88023952,,,,,,,,,,,,,,,,,,,,,,,,,,,,,,,,,,,,,,,,,,,,,,,,,シド,right,2.097,0,0,0,0,1,,,,,,,,,,,,,,,,,,,,,,,,,,,
,,,,,,,,,R_1rHyfMTU4R3Ng8o,2022-06-25_00h12.39.144,jpn_C01,2022.1.2,Linux x86_64,59.88023952,,,,,,,,,,,,,CartoonStims/cowboy_r.jpg,audio/muku.mp3,,,,,,,,,,,,,,,,,,,,,,,,,,,,,,,,,,,,,,,,,,,1,0,6,3,1,ムク,,,,,,,,,,,,,,,,,,,,,
,,,,,,,,,R_1rHyfMTU4R3Ng8o,2022-06-25_00h12.39.144,jpn_C01,2022.1.2,Linux x86_64,59.88023952,,,,,,,,,,,,,,,,,,,,,,,,,,,,,,,,,,,,,,,,,,,,,,,,,シド,right,3.378,0,0,0,0,1,,,,,,,,,,,,,,,,,,,,,,,,,,,
,,,,,,,,,R_1rHyfMTU4R3Ng8o,2022-06-25_00h12.39.144,jpn_C01,2022.1.2,Linux x86_64,59.88023952,,,,,,,,,,,,,CartoonStims/chef_r.jpg,audio/horeto.mp3,,,,,,,,,,,,,,,,,,,,,,,,,,,,,,,,,,,,,,,,,,,1,1,7,2,1,ホレト,,,,,,,,,,,,,,,,,,,,,
,,,,,,,,,R_1rHyfMTU4R3Ng8o,2022-06-25_00h12.39.144,jpn_C01,2022.1.2,Linux x86_64,59.88023952,,,,,,,,,,,,,,,,,,,,,,,,,,,,,,,,,,,,,,,,,,,,,,,,,ルピン,right,10.808,0,0,0,0,1,,,,,,,,,,,,,,,,,,,,,,,,,,,
,,,,,,,,,R_1rHyfMTU4R3Ng8o,2022-06-25_00h12.39.144,jpn_C01,2022.1.2,Linux x86_64,59.88023952,,,,,,,,,,,,,CartoonStims/burglar_r.jpg,audio/lupin.mp3,,,,,,,,,,,,,,,,,,,,,,,,,,,,,,,,,,,,,,,,,,,1,2,8,1,1,ルピン,,,,,,,,,,,,,,,,,,,,,
,,,,,,,,,R_1rHyfMTU4R3Ng8o,2022-06-25_00h12.39.144,jpn_C01,2022.1.2,Linux x86_64,59.88023952,,,,,,,,,,,,,,,,,,,,,,,,,,,,,,,,,,,,,,,,,,,,,,,,,ピポ,right,2.899,0,0,0,0,1,,,,,,,,,,,,,,,,,,,,,,,,,,,
,,,,,,,,,R_1rHyfMTU4R3Ng8o,2022-06-25_00h12.39.144,jpn_C01,2022.1.2,Linux x86_64,59.88023952,,,,,,,,,,,,,CartoonStims/doctor_r.jpg,audio/pipo.mp3,,,,,,,,,,,,,,,,,,,,,,,,,,,,,,,,,,,,,,,,,,,1,3,9,4,1,ピポ,,,,,,,,,,,,,,,,,,,,,
,,,,,,,,,R_1rHyfMTU4R3Ng8o,2022-06-25_00h12.39.144,jpn_C01,2022.1.2,Linux x86_64,59.88023952,,,,,,,,,,,,,,,,,,,,,,,,,,,,,,,,,,,,,,,,,,,,,,,,,,right,10.131,0,0,0,0,1,,,,,,,,,,,,,,,,,,,,,,,,,,,
,,,,,,,,,R_1rHyfMTU4R3Ng8o,2022-06-25_00h12.39.144,jpn_C01,2022.1.2,Linux x86_64,59.88023952,,,,,,,,,,,,,CartoonStims/boxer_r.jpg,audio/doki.mp3,,,,,,,,,,,,,,,,,,,,,,,,,,,,,,,,,,,,,,,,,,,1,4,10,5,1,ドキ,,,,,,,,,,,,,,,,,,,,,
,,,,,,,,,R_1rHyfMTU4R3Ng8o,2022-06-25_00h12.39.144,jpn_C01,2022.1.2,Linux x86_64,59.88023952,,,,,,,,,,,,,,,,,,,,,,,,,,,,,,,,,,,,,,,,,,,,,,,,,ホレト,right,7.454,0,0,0,0,1,,,,,,,,,,,,,,,,,,,,,,,,,,,
,,,,,,,,,R_1rHyfMTU4R3Ng8o,2022-06-25_00h12.39.144,jpn_C01,2022.1.2,Linux x86_64,59.88023952,,,,,,,,,,,,,CartoonStims/artist_r.jpg,audio/sido.mp3,,,,,,,,,,,,,,,,,,,,,,,,,,,,,,,,,,,,,,,,,,,1,5,11,0,1,シド,,,,,,,,,,,,,,,,,,,,,
,,,,,,,,,R_1rHyfMTU4R3Ng8o,2022-06-25_00h12.39.144,jpn_C01,2022.1.2,Linux x86_64,59.88023952,,,,,,,,,,,,,,,,,,,,,,,,,,,,,,,,,,,,,,,,,,,,,,,,,,,,,,,,,,,,,,,,space,1.042,0,0,0,0,1,NounExposure.xlsx,"最初のトライアルでは、 画像が表示され、 その画像の下に単語が出てきます。 またこの単語の音も聞くことができます。 この音を大きな声で復唱してください。 そしてこの画像がどのような単語を示しているのか, 考えてみてください。 その後、 続きのボタンを押すと次の単語の学習が始まります。

スペースキーを押して、学習を始めましょう。",3,NounFCT.xlsx,ここから語彙のクイズが始まります。スクリーンに表示される単語に合う画像をキーボードの右と左の矢印キーを使って選択してください。,NounTest.xlsx,2,次に、これまで学習してきたことをアウトプットしていただきます。 表示される画像を描写していると思う単語を、テキストボックスにタイプしてください。,1,"ここまでが最初のトライアルです。ここで休憩をとっても構いません。

休憩が済みましたら、スペースキーを押して続きを始めましょう。",,,
,,,,,,,,,R_1rHyfMTU4R3Ng8o,2022-06-25_00h12.39.144,jpn_C01,2022.1.2,Linux x86_64,59.88023952,space,3.233,space,10.837,0,0,0,9,1,セル　ピポ　シド,,,CartoonStims/doctor_kick_artist_r.jpg,audio/serupiposido.mp3,,,,,,,,,,,,,,,,,,,,,,,,,,,,,,,,,,,,,,,,,,,,,,,,,,,,,,,,,,,,,,,,,,,,,
,,,,,,,,,R_1rHyfMTU4R3Ng8o,2022-06-25_00h12.39.144,jpn_C01,2022.1.2,Linux x86_64,59.88023952,,,space,7.984,0,1,1,29,1,パツ　ホレト　シド,,,CartoonStims/chef_shoot_artist_r.jpg,audio/patsuhoretosido.mp3,,,,,,,,,,,,,,,,,,,,,,,,,,,,,,,,,,,,,,,,,,,,,,,,,,,,,,,,,,,,,,,,,,,,,
,,,,,,,,,R_1rHyfMTU4R3Ng8o,2022-06-25_00h12.39.144,jpn_C01,2022.1.2,Linux x86_64,59.88023952,,,space,3.57,0,2,2,44,1,プミ　ピポ　ホレト,,,CartoonStims/doctor_punch_chef_r.jpg,audio/pumipipohoreto.mp3,,,,,,,,,,,,,,,,,,,,,,,,,,,,,,,,,,,,,,,,,,,,,,,,,,,,,,,,,,,,,,,,,,,,,
,,,,,,,,,R_1rHyfMTU4R3Ng8o,2022-06-25_00h12.39.144,jpn_C01,2022.1.2,Linux x86_64,59.88023952,,,space,1.971,0,3,3,24,1,パツ　シド　ムク,,,CartoonStims/artist_shoot_cowboy_r.jpg,audio/patsusidomuku.mp3,,,,,,,,,,,,,,,,,,,,,,,,,,,,,,,,,,,,,,,,,,,,,,,,,,,,,,,,,,,,,,,,,,,,,
,,,,,,,,,R_1rHyfMTU4R3Ng8o,2022-06-25_00h12.39.144,jpn_C01,2022.1.2,Linux x86_64,59.88023952,,,space,2.001,0,4,4,0,1,セル　シド　ルピン,,,CartoonStims/artist_kick_burglar_r.jpg,audio/serusidolupin.mp3,,,,,,,,,,,,,,,,,,,,,,,,,,,,,,,,,,,,,,,,,,,,,,,,,,,,,,,,,,,,,,,,,,,,,
,,,,,,,,,R_1rHyfMTU4R3Ng8o,2022-06-25_00h12.39.144,jpn_C01,2022.1.2,Linux x86_64,59.88023952,,,space,5.015,0,5,5,15,1,トマ　ルピン　ピポ,,,CartoonStims/burglar_point_doctor_r.jpg,audio/tomalupinpipo.mp3,,,,,,,,,,,,,,,,,,,,,,,,,,,,,,,,,,,,,,,,,,,,,,,,,,,,,,,,,,,,,,,,,,,,,
,,,,,,,,,R_1rHyfMTU4R3Ng8o,2022-06-25_00h12.39.144,jpn_C01,2022.1.2,Linux x86_64,59.88023952,,,space,2.235,0,6,6,36,1,プミ　シド　ピポ,,,CartoonStims/artist_punch_doctor_r.jpg,audio/pumisidopipo.mp3,,,,,,,,,,,,,,,,,,,,,,,,,,,,,,,,,,,,,,,,,,,,,,,,,,,,,,,,,,,,,,,,,,,,,
,,,,,,,,,R_1rHyfMTU4R3Ng8o,2022-06-25_00h12.39.144,jpn_C01,2022.1.2,Linux x86_64,59.88023952,,,space,3.606,0,7,7,39,1,プミ　ルピン　シド,,,CartoonStims/burglar_punch_artist_r.jpg,audio/pumilupinsido.mp3,,,,,,,,,,,,,,,,,,,,,,,,,,,,,,,,,,,,,,,,,,,,,,,,,,,,,,,,,,,,,,,,,,,,,
,,,,,,,,,R_1rHyfMTU4R3Ng8o,2022-06-25_00h12.39.144,jpn_C01,2022.1.2,Linux x86_64,59.88023952,,,space,1.717,0,8,8,27,1,パツ　ルピン　ドキ,,,CartoonStims/burglar_shoot_boxer_r.jpg,audio/patsulupindoki.mp3,,,,,,,,,,,,,,,,,,,,,,,,,,,,,,,,,,,,,,,,,,,,,,,,,,,,,,,,,,,,,,,,,,,,,
,,,,,,,,,R_1rHyfMTU4R3Ng8o,2022-06-25_00h12.39.144,jpn_C01,2022.1.2,Linux x86_64,59.88023952,,,space,2.067,0,9,9,13,1,トマ　シド　ムク,,,CartoonStims/artist_point_cowboy_r.jpg,audio/tomasidomuku.mp3,,,,,,,,,,,,,,,,,,,,,,,,,,,,,,,,,,,,,,,,,,,,,,,,,,,,,,,,,,,,,,,,,,,,,
,,,,,,,,,R_1rHyfMTU4R3Ng8o,2022-06-25_00h12.39.144,jpn_C01,2022.1.2,Linux x86_64,59.88023952,,,space,1.968,0,10,10,2,1,セル 　ルピン 　ホレト,,,CartoonStims/burglar_kick_chef_r.jpg,audio/serulupinhoreto.mp3,,,,,,,,,,,,,,,,,,,,,,,,,,,,,,,,,,,,,,,,,,,,,,,,,,,,,,,,,,,,,,,,,,,,,
,,,,,,,,,R_1rHyfMTU4R3Ng8o,2022-06-25_00h12.39.144,jpn_C01,2022.1.2,Linux x86_64,59.88023952,,,space,1.75,0,11,11,20,1,トマ　ピポ　シド,,,CartoonStims/doctor_point_artist_r.jpg,audio/tomapiposido.mp3,,,,,,,,,,,,,,,,,,,,,,,,,,,,,,,,,,,,,,,,,,,,,,,,,,,,,,,,,,,,,,,,,,,,,
,,,,,,,,,R_1rHyfMTU4R3Ng8o,2022-06-25_00h12.39.144,jpn_C01,2022.1.2,Linux x86_64,59.88023952,,,space,1.323,0,12,12,19,1,トマ　ムク　シド,,,CartoonStims/cowboy_point_artist_r.jpg,audio/tomamukusido.mp3,,,,,,,,,,,,,,,,,,,,,,,,,,,,,,,,,,,,,,,,,,,,,,,,,,,,,,,,,,,,,,,,,,,,,
,,,,,,,,,R_1rHyfMTU4R3Ng8o,2022-06-25_00h12.39.144,jpn_C01,2022.1.2,Linux x86_64,59.88023952,,,space,3.088,0,13,13,5,1,セル　ホレト　ピポ,,,CartoonStims/chef_kick_doctor_r.jpg,audio/seruhoretopipo.mp3,,,,,,,,,,,,,,,,,,,,,,,,,,,,,,,,,,,,,,,,,,,,,,,,,,,,,,,,,,,,,,,,,,,,,
,,,,,,,,,R_1rHyfMTU4R3Ng8o,2022-06-25_00h12.39.144,jpn_C01,2022.1.2,Linux x86_64,59.88023952,,,space,2.101,0,14,14,37,1,プミ　シド　ドキ,,,CartoonStims/artist_punch_boxer_r.jpg,audio/pumisidodoki.mp3,,,,,,,,,,,,,,,,,,,,,,,,,,,,,,,,,,,,,,,,,,,,,,,,,,,,,,,,,,,,,,,,,,,,,
,,,,,,,,,R_1rHyfMTU4R3Ng8o,2022-06-25_00h12.39.144,jpn_C01,2022.1.2,Linux x86_64,59.88023952,,,space,3.86,0,15,15,4,1,セル　ホレト　ムク,,,CartoonStims/chef_kick_cowboy_r.jpg,audio/seruhoretomuku.mp3,,,,,,,,,,,,,,,,,,,,,,,,,,,,,,,,,,,,,,,,,,,,,,,,,,,,,,,,,,,,,,,,,,,,,
,,,,,,,,,R_1rHyfMTU4R3Ng8o,2022-06-25_00h12.39.144,jpn_C01,2022.1.2,Linux x86_64,59.88023952,,,space,2.334,0,16,16,14,1,トマ　ルピン　ムク,,,CartoonStims/burglar_point_cowboy_r.jpg,audio/tomalupinmuku.mp3,,,,,,,,,,,,,,,,,,,,,,,,,,,,,,,,,,,,,,,,,,,,,,,,,,,,,,,,,,,,,,,,,,,,,
,,,,,,,,,R_1rHyfMTU4R3Ng8o,2022-06-25_00h12.39.144,jpn_C01,2022.1.2,Linux x86_64,59.88023952,,,space,2.374,0,17,17,47,1,プミ　ドキ　ピポ,,,CartoonStims/boxer_punch_doctor_r.jpg,audio/pumidokipipo.mp3,,,,,,,,,,,,,,,,,,,,,,,,,,,,,,,,,,,,,,,,,,,,,,,,,,,,,,,,,,,,,,,,,,,,,
,,,,,,,,,R_1rHyfMTU4R3Ng8o,2022-06-25_00h12.39.144,jpn_C01,2022.1.2,Linux x86_64,59.88023952,,,space,1.394,0,18,18,34,1,パツ　ドキ　ホレト,,,CartoonStims/boxer_shoot_chef_r.jpg,audio/patsudokihoreto.mp3,,,,,,,,,,,,,,,,,,,,,,,,,,,,,,,,,,,,,,,,,,,,,,,,,,,,,,,,,,,,,,,,,,,,,
,,,,,,,,,R_1rHyfMTU4R3Ng8o,2022-06-25_00h12.39.144,jpn_C01,2022.1.2,Linux x86_64,59.88023952,,,space,0.755,0,19,19,30,1,パツ　ムク　シド,,,CartoonStims/cowboy_shoot_artist_r.jpg,audio/patsumukusido.mp3,,,,,,,,,,,,,,,,,,,,,,,,,,,,,,,,,,,,,,,,,,,,,,,,,,,,,,,,,,,,,,,,,,,,,
,,,,,,,,,R_1rHyfMTU4R3Ng8o,2022-06-25_00h12.39.144,jpn_C01,2022.1.2,Linux x86_64,59.88023952,,,space,1.382,0,20,20,22,1,トマ　ドキ　ルピン,,,CartoonStims/boxer_point_burglar_r.jpg,audio/tomadokilupin.mp3,,,,,,,,,,,,,,,,,,,,,,,,,,,,,,,,,,,,,,,,,,,,,,,,,,,,,,,,,,,,,,,,,,,,,
,,,,,,,,,R_1rHyfMTU4R3Ng8o,2022-06-25_00h12.39.144,jpn_C01,2022.1.2,Linux x86_64,59.88023952,,,space,2.134,0,21,21,12,1,トマ　シド　ホレト,,,CartoonStims/artist_point_chef_r.jpg,audio/tomasidohoreto.mp3,,,,,,,,,,,,,,,,,,,,,,,,,,,,,,,,,,,,,,,,,,,,,,,,,,,,,,,,,,,,,,,,,,,,,
,,,,,,,,,R_1rHyfMTU4R3Ng8o,2022-06-25_00h12.39.144,jpn_C01,2022.1.2,Linux x86_64,59.88023952,,,space,1.606,0,22,22,32,1,パツ　ピポ　ルピン,,,CartoonStims/doctor_shoot_burglar_r.jpg,audio/patsupipolupin.mp3,,,,,,,,,,,,,,,,,,,,,,,,,,,,,,,,,,,,,,,,,,,,,,,,,,,,,,,,,,,,,,,,,,,,,
,,,,,,,,,R_1rHyfMTU4R3Ng8o,2022-06-25_00h12.39.144,jpn_C01,2022.1.2,Linux x86_64,59.88023952,,,space,1.747,0,23,23,46,1,プミ　ドキ　ムク,,,CartoonStims/boxer_punch_cowboy_r.jpg,audio/pumidokimuku.mp3,,,,,,,,,,,,,,,,,,,,,,,,,,,,,,,,,,,,,,,,,,,,,,,,,,,,,,,,,,,,,,,,,,,,,
,,,,,,,,,R_1rHyfMTU4R3Ng8o,2022-06-25_00h12.39.144,jpn_C01,2022.1.2,Linux x86_64,59.88023952,,,space,1.991,0,24,24,38,1,プミ　ルピン　ドキ,,,CartoonStims/burglar_punch_boxer_r.jpg,audio/pumilupindoki.mp3,,,,,,,,,,,,,,,,,,,,,,,,,,,,,,,,,,,,,,,,,,,,,,,,,,,,,,,,,,,,,,,,,,,,,
,,,,,,,,,R_1rHyfMTU4R3Ng8o,2022-06-25_00h12.39.144,jpn_C01,2022.1.2,Linux x86_64,59.88023952,,,space,1.701,0,25,25,10,1,セル　ドキ　シド,,,CartoonStims/boxer_kick_artist_r.jpg,audio/serudokisido.mp3,,,,,,,,,,,,,,,,,,,,,,,,,,,,,,,,,,,,,,,,,,,,,,,,,,,,,,,,,,,,,,,,,,,,,
,,,,,,,,,R_1rHyfMTU4R3Ng8o,2022-06-25_00h12.39.144,jpn_C01,2022.1.2,Linux x86_64,59.88023952,,,space,2.154,0,26,26,18,1,トマ　ムク　ドキ,,,CartoonStims/cowboy_point_boxer_r.jpg,audio/tomamukudoki.mp3,,,,,,,,,,,,,,,,,,,,,,,,,,,,,,,,,,,,,,,,,,,,,,,,,,,,,,,,,,,,,,,,,,,,,
,,,,,,,,,R_1rHyfMTU4R3Ng8o,2022-06-25_00h12.39.144,jpn_C01,2022.1.2,Linux x86_64,59.88023952,,,space,1.567,0,27,27,7,1,セル　ムク　ドキ,,,CartoonStims/cowboy_kick_boxer_r.jpg,audio/serumukudoki.mp3,,,,,,,,,,,,,,,,,,,,,,,,,,,,,,,,,,,,,,,,,,,,,,,,,,,,,,,,,,,,,,,,,,,,,
,,,,,,,,,R_1rHyfMTU4R3Ng8o,2022-06-25_00h12.39.144,jpn_C01,2022.1.2,Linux x86_64,59.88023952,,,space,1.915,0,28,28,43,1,プミ　ムク　ホレト,,,CartoonStims/cowboy_punch_chef_r.jpg,audio/pumimukuhoreto.mp3,,,,,,,,,,,,,,,,,,,,,,,,,,,,,,,,,,,,,,,,,,,,,,,,,,,,,,,,,,,,,,,,,,,,,
,,,,,,,,,R_1rHyfMTU4R3Ng8o,2022-06-25_00h12.39.144,jpn_C01,2022.1.2,Linux x86_64,59.88023952,,,space,2.127,0,29,29,23,1,トマ　ドキ　ホレト,,,CartoonStims/boxer_point_chef_r.jpg,audio/tomadokihoreto.mp3,,,,,,,,,,,,,,,,,,,,,,,,,,,,,,,,,,,,,,,,,,,,,,,,,,,,,,,,,,,,,,,,,,,,,
,,,,,,,,,R_1rHyfMTU4R3Ng8o,2022-06-25_00h12.39.144,jpn_C01,2022.1.2,Linux x86_64,59.88023952,,,space,0.817,0,30,30,17,1,トマ　ホレト　ドキ,,,CartoonStims/chef_point_boxer_r.jpg,audio/tomahoretodoki.mp3,,,,,,,,,,,,,,,,,,,,,,,,,,,,,,,,,,,,,,,,,,,,,,,,,,,,,,,,,,,,,,,,,,,,,
,,,,,,,,,R_1rHyfMTU4R3Ng8o,2022-06-25_00h12.39.144,jpn_C01,2022.1.2,Linux x86_64,59.88023952,,,space,1.45,0,31,31,41,1,プミ　ホレト　ルピン,,,CartoonStims/chef_punch_burglar_r.jpg,audio/pumihoretolupin.mp3,,,,,,,,,,,,,,,,,,,,,,,,,,,,,,,,,,,,,,,,,,,,,,,,,,,,,,,,,,,,,,,,,,,,,
,,,,,,,,,R_1rHyfMTU4R3Ng8o,2022-06-25_00h12.39.144,jpn_C01,2022.1.2,Linux x86_64,59.88023952,,,space,2.335,0,32,32,45,1,プミ　ピポ　ムク,,,CartoonStims/doctor_punch_cowboy_r.jpg,audio/pumipipomuku.mp3,,,,,,,,,,,,,,,,,,,,,,,,,,,,,,,,,,,,,,,,,,,,,,,,,,,,,,,,,,,,,,,,,,,,,
,,,,,,,,,R_1rHyfMTU4R3Ng8o,2022-06-25_00h12.39.144,jpn_C01,2022.1.2,Linux x86_64,59.88023952,,,space,1.943,0,33,33,1,1,セル 　シド 　ホレト,,,CartoonStims/artist_kick_chef_r.jpg,audio/serusidohoreto.mp3,,,,,,,,,,,,,,,,,,,,,,,,,,,,,,,,,,,,,,,,,,,,,,,,,,,,,,,,,,,,,,,,,,,,,
,,,,,,,,,R_1rHyfMTU4R3Ng8o,2022-06-25_00h12.39.144,jpn_C01,2022.1.2,Linux x86_64,59.88023952,,,space,1.213,0,34,34,31,1,パツ　ムク　ルピン,,,CartoonStims/cowboy_shoot_burglar_r.jpg,audio/patsumukulupin.mp3,,,,,,,,,,,,,,,,,,,,,,,,,,,,,,,,,,,,,,,,,,,,,,,,,,,,,,,,,,,,,,,,,,,,,
,,,,,,,,,R_1rHyfMTU4R3Ng8o,2022-06-25_00h12.39.144,jpn_C01,2022.1.2,Linux x86_64,59.88023952,,,space,2.232,0,35,35,26,1,パツ　ルピン　ピポ,,,CartoonStims/burglar_shoot_doctor_r.jpg,audio/patsulupinpipo.mp3,,,,,,,,,,,,,,,,,,,,,,,,,,,,,,,,,,,,,,,,,,,,,,,,,,,,,,,,,,,,,,,,,,,,,
,,,,,,,,,R_1rHyfMTU4R3Ng8o,2022-06-25_00h12.39.144,jpn_C01,2022.1.2,Linux x86_64,59.88023952,,,space,2.227,0,36,36,25,1,パツ　シド　ピポ,,,CartoonStims/artist_shoot_doctor_r.jpg,audio/patsusidopipo.mp3,,,,,,,,,,,,,,,,,,,,,,,,,,,,,,,,,,,,,,,,,,,,,,,,,,,,,,,,,,,,,,,,,,,,,
,,,,,,,,,R_1rHyfMTU4R3Ng8o,2022-06-25_00h12.39.144,jpn_C01,2022.1.2,Linux x86_64,59.88023952,,,space,1.869,0,37,37,16,1,トマ　ホレト　ピポ,,,CartoonStims/chef_point_doctor_r.jpg,audio/tomahoretopipo.mp3,,,,,,,,,,,,,,,,,,,,,,,,,,,,,,,,,,,,,,,,,,,,,,,,,,,,,,,,,,,,,,,,,,,,,
,,,,,,,,,R_1rHyfMTU4R3Ng8o,2022-06-25_00h12.39.144,jpn_C01,2022.1.2,Linux x86_64,59.88023952,,,space,1.199,0,38,38,21,1,トマ　ピポ　ルピン,,,CartoonStims/doctor_point_burglar_r.jpg,audio/tomapipolupin.mp3,,,,,,,,,,,,,,,,,,,,,,,,,,,,,,,,,,,,,,,,,,,,,,,,,,,,,,,,,,,,,,,,,,,,,
,,,,,,,,,R_1rHyfMTU4R3Ng8o,2022-06-25_00h12.39.144,jpn_C01,2022.1.2,Linux x86_64,59.88023952,,,space,1.756,0,39,39,11,1,セル　ドキ　ルピン,,,CartoonStims/boxer_kick_burglar_r.jpg,audio/serudokilupin.mp3,,,,,,,,,,,,,,,,,,,,,,,,,,,,,,,,,,,,,,,,,,,,,,,,,,,,,,,,,,,,,,,,,,,,,
,,,,,,,,,R_1rHyfMTU4R3Ng8o,2022-06-25_00h12.39.144,jpn_C01,2022.1.2,Linux x86_64,59.88023952,,,space,2.002,0,40,40,28,1,パツ　ホレト　ドキ,,,CartoonStims/chef_shoot_boxer_r.jpg,audio/patsuhoretodoki.mp3,,,,,,,,,,,,,,,,,,,,,,,,,,,,,,,,,,,,,,,,,,,,,,,,,,,,,,,,,,,,,,,,,,,,,
,,,,,,,,,R_1rHyfMTU4R3Ng8o,2022-06-25_00h12.39.144,jpn_C01,2022.1.2,Linux x86_64,59.88023952,,,space,1.884,0,41,41,3,1,セル　ルピン　ムク,,,CartoonStims/burglar_kick_cowboy_r.jpg,audio/serulupinmuku.mp3,,,,,,,,,,,,,,,,,,,,,,,,,,,,,,,,,,,,,,,,,,,,,,,,,,,,,,,,,,,,,,,,,,,,,
,,,,,,,,,R_1rHyfMTU4R3Ng8o,2022-06-25_00h12.39.144,jpn_C01,2022.1.2,Linux x86_64,59.88023952,,,space,1.834,0,42,42,42,1,プミ　ムク　ルピン,,,CartoonStims/cowboy_punch_burglar_r.jpg,audio/pumimukulupin.mp3,,,,,,,,,,,,,,,,,,,,,,,,,,,,,,,,,,,,,,,,,,,,,,,,,,,,,,,,,,,,,,,,,,,,,
,,,,,,,,,R_1rHyfMTU4R3Ng8o,2022-06-25_00h12.39.144,jpn_C01,2022.1.2,Linux x86_64,59.88023952,,,space,1.702,0,43,43,6,1,セル　ムク　ピポ,,,CartoonStims/cowboy_kick_doctor_r.jpg,audio/serumukupipo.mp3,,,,,,,,,,,,,,,,,,,,,,,,,,,,,,,,,,,,,,,,,,,,,,,,,,,,,,,,,,,,,,,,,,,,,
,,,,,,,,,R_1rHyfMTU4R3Ng8o,2022-06-25_00h12.39.144,jpn_C01,2022.1.2,Linux x86_64,59.88023952,,,space,1.923,0,44,44,33,1,パツ　ピポ　ホレト,,,CartoonStims/doctor_shoot_chef_r.jpg,audio/patsupipohoreto.mp3,,,,,,,,,,,,,,,,,,,,,,,,,,,,,,,,,,,,,,,,,,,,,,,,,,,,,,,,,,,,,,,,,,,,,
,,,,,,,,,R_1rHyfMTU4R3Ng8o,2022-06-25_00h12.39.144,jpn_C01,2022.1.2,Linux x86_64,59.88023952,,,space,1.863,0,45,45,40,1,プミ　ホレト　シド,,,CartoonStims/chef_punch_artist_r.jpg,audio/pumihoretosido.mp3,,,,,,,,,,,,,,,,,,,,,,,,,,,,,,,,,,,,,,,,,,,,,,,,,,,,,,,,,,,,,,,,,,,,,
,,,,,,,,,R_1rHyfMTU4R3Ng8o,2022-06-25_00h12.39.144,jpn_C01,2022.1.2,Linux x86_64,59.88023952,,,space,2.184,0,46,46,8,1,セル　ピポ　ドキ,,,CartoonStims/doctor_kick_boxer_r.jpg,audio/serupipodoki.mp3,,,,,,,,,,,,,,,,,,,,,,,,,,,,,,,,,,,,,,,,,,,,,,,,,,,,,,,,,,,,,,,,,,,,,
,,,,,,,,,R_1rHyfMTU4R3Ng8o,2022-06-25_00h12.39.144,jpn_C01,2022.1.2,Linux x86_64,59.88023952,,,space,4.449,0,47,47,35,1,パツ　ドキ　ムク,,,CartoonStims/boxer_shoot_cowboy_r.jpg,audio/patsudokimuku.mp3,,,,,,,,,,,,,,,,,,,,,,,,,,,,,,,,,,,,,,,,,,,,,,,,,,,,,,,,,,,,,,,,,,,,,
,,,,,,,,,R_1rHyfMTU4R3Ng8o,2022-06-25_00h12.39.144,jpn_C01,2022.1.2,Linux x86_64,59.88023952,,,,,,,,,,,,,,,space,0.184,left,1,2.551,,,,,,,,,,,,,,,,,,0,0,0,0,1,,,,,,,,,,,,,,,,,,,,,,,,,,,,,,,,,,,,,,,,,,
,,,,,,,,,R_1rHyfMTU4R3Ng8o,2022-06-25_00h12.39.144,jpn_C01,2022.1.2,Linux x86_64,59.88023952,,,,,,,,,,,,,,,,,,,,,,,,,0,0,0,4,1,CartoonStims/burglar_point_boxer_r.jpg,トマ　ルピン　ドキ,CartoonStims/burglar_kick_boxer_r.jpg,left,CartoonStims/burglar_point_boxer_r.jpg,audio/tomalupindoki.mp3,残念！ こちらが正しい画像です。,,,,,,,,,,,,,,,,,,,,,,,,,,,,,,,,,,,,,,,,,,,,,,,
,,,,,,,,,R_1rHyfMTU4R3Ng8o,2022-06-25_00h12.39.144,jpn_C01,2022.1.2,Linux x86_64,59.88023952,,,,,,,,,,,,,,,,,left,1,2.399,,,,,,,,,,,,,,,,,,0,0,0,0,1,,,,,,,,,,,,,,,,,,,,,,,,,,,,,,,,,,,,,,,,,,
,,,,,,,,,R_1rHyfMTU4R3Ng8o,2022-06-25_00h12.39.144,jpn_C01,2022.1.2,Linux x86_64,59.88023952,,,,,,,,,,,,,,,,,,,,,,,,,0,1,1,6,1,CartoonStims/doctor_punch_boxer_r.jpg,プミ　ピポ　ドキ,CartoonStims/doctor_shoot_boxer_r.jpg,left,CartoonStims/doctor_punch_boxer_r.jpg,audio/pumipipodoki.mp3,残念！ こちらが正しい画像です。,,,,,,,,,,,,,,,,,,,,,,,,,,,,,,,,,,,,,,,,,,,,,,,
,,,,,,,,,R_1rHyfMTU4R3Ng8o,2022-06-25_00h12.39.144,jpn_C01,2022.1.2,Linux x86_64,59.88023952,,,,,,,,,,,,,,,,,left,1,4.535,,,,,,,,,,,,,,,,,,0,0,0,0,1,,,,,,,,,,,,,,,,,,,,,,,,,,,,,,,,,,,,,,,,,,
,,,,,,,,,R_1rHyfMTU4R3Ng8o,2022-06-25_00h12.39.144,jpn_C01,2022.1.2,Linux x86_64,59.88023952,,,,,,,,,,,,,,,,,,,,,,,,,0,2,2,2,1,CartoonStims/boxer_shoot_doctor_r.jpg,パツ　ドキ　ピポ,CartoonStims/boxer_shoot_artist_r.jpg,left,CartoonStims/boxer_shoot_doctor_r.jpg,audio/patsudokipipo.mp3,残念！ こちらが正しい画像です。,,,,,,,,,,,,,,,,,,,,,,,,,,,,,,,,,,,,,,,,,,,,,,,
,,,,,,,,,R_1rHyfMTU4R3Ng8o,2022-06-25_00h12.39.144,jpn_C01,2022.1.2,Linux x86_64,59.88023952,,,,,,,,,,,,,,,,,left,1,5.151,,,,,,,,,,,,,,,,,,0,0,0,0,1,,,,,,,,,,,,,,,,,,,,,,,,,,,,,,,,,,,,,,,,,,
,,,,,,,,,R_1rHyfMTU4R3Ng8o,2022-06-25_00h12.39.144,jpn_C01,2022.1.2,Linux x86_64,59.88023952,,,,,,,,,,,,,,,,,,,,,,,,,0,3,3,10,1,CartoonStims/artist_shoot_burglar_r.jpg,パツ　シド　ルピン,CartoonStims/chef_shoot_burglar_r.jpg,left,CartoonStims/artist_shoot_burglar_r.jpg,audio/patsusidolupin.mp3,残念！ こちらが正しい画像です。,,,,,,,,,,,,,,,,,,,,,,,,,,,,,,,,,,,,,,,,,,,,,,,
,,,,,,,,,R_1rHyfMTU4R3Ng8o,2022-06-25_00h12.39.144,jpn_C01,2022.1.2,Linux x86_64,59.88023952,,,,,,,,,,,,,,,,,right,1,4.665,0,0,0,0,1,,,,,,,,,,,,,,,,,,,,,,,,,,,,,,,,,,,,,,,,,,,,,,,,,,,,,,,,,,,
,,,,,,,,,R_1rHyfMTU4R3Ng8o,2022-06-25_00h12.39.144,jpn_C01,2022.1.2,Linux x86_64,59.88023952,,,,,,,,,,,,,,,,,,,,,,,,,0,4,4,3,1,CartoonStims/cowboy_punch_doctor_r.jpg,プミ　ムク　ドキ,CartoonStims/cowboy_punch_boxer_r.jpg,right,CartoonStims/cowboy_punch_boxer_r.jpg,audio/pumimukudoki.mp3,残念！ こちらが正しい画像です。,,,,,,,,,,,,,,,,,,,,,,,,,,,,,,,,,,,,,,,,,,,,,,,
,,,,,,,,,R_1rHyfMTU4R3Ng8o,2022-06-25_00h12.39.144,jpn_C01,2022.1.2,Linux x86_64,59.88023952,,,,,,,,,,,,,,,,,left,1,2.765,,,,,,,,,,,,,,,,,,0,0,0,0,1,,,,,,,,,,,,,,,,,,,,,,,,,,,,,,,,,,,,,,,,,,
,,,,,,,,,R_1rHyfMTU4R3Ng8o,2022-06-25_00h12.39.144,jpn_C01,2022.1.2,Linux x86_64,59.88023952,,,,,,,,,,,,,,,,,,,,,,,,,0,5,5,8,1,CartoonStims/doctor_point_cowboy_r.jpg,トマ　ピポ　ムク,CartoonStims/boxer_point_cowboy_r.jpg,left,CartoonStims/doctor_point_cowboy_r.jpg,audio/tomapipomuku.mp3,残念！ こちらが正しい画像です。,,,,,,,,,,,,,,,,,,,,,,,,,,,,,,,,,,,,,,,,,,,,,,,
,,,,,,,,,R_1rHyfMTU4R3Ng8o,2022-06-25_00h12.39.144,jpn_C01,2022.1.2,Linux x86_64,59.88023952,,,,,,,,,,,,,,,,,right,1,3.023,0,0,0,0,1,,,,,,,,,,,,,,,,,,,,,,,,,,,,,,,,,,,,,,,,,,,,,,,,,,,,,,,,,,,
,,,,,,,,,R_1rHyfMTU4R3Ng8o,2022-06-25_00h12.39.144,jpn_C01,2022.1.2,Linux x86_64,59.88023952,,,,,,,,,,,,,,,,,,,,,,,,,0,6,6,1,1,CartoonStims/chef_point_burglar_r.jpg,トマ　ホレト　シド,CartoonStims/chef_point_artist_r.jpg,right,CartoonStims/chef_point_artist_r.jpg,audio/tomahoretosido.mp3,残念！ こちらが正しい画像です。,,,,,,,,,,,,,,,,,,,,,,,,,,,,,,,,,,,,,,,,,,,,,,,
,,,,,,,,,R_1rHyfMTU4R3Ng8o,2022-06-25_00h12.39.144,jpn_C01,2022.1.2,Linux x86_64,59.88023952,,,,,,,,,,,,,,,,,left,1,5.653,,,,,,,,,,,,,,,,,,0,0,0,0,1,,,,,,,,,,,,,,,,,,,,,,,,,,,,,,,,,,,,,,,,,,
,,,,,,,,,R_1rHyfMTU4R3Ng8o,2022-06-25_00h12.39.144,jpn_C01,2022.1.2,Linux x86_64,59.88023952,,,,,,,,,,,,,,,,,,,,,,,,,0,7,7,0,1,CartoonStims/doctor_kick_burglar_r.jpg,セル　ピポ　ルピン,CartoonStims/doctor_kick_chef_r.jpg,left,CartoonStims/doctor_kick_burglar_r.jpg,audio/serupipolupin.mp3,残念！ こちらが正しい画像です。,,,,,,,,,,,,,,,,,,,,,,,,,,,,,,,,,,,,,,,,,,,,,,,
,,,,,,,,,R_1rHyfMTU4R3Ng8o,2022-06-25_00h12.39.144,jpn_C01,2022.1.2,Linux x86_64,59.88023952,,,,,,,,,,,,,,,,,right,1,3.679,0,0,0,0,1,,,,,,,,,,,,,,,,,,,,,,,,,,,,,,,,,,,,,,,,,,,,,,,,,,,,,,,,,,,
,,,,,,,,,R_1rHyfMTU4R3Ng8o,2022-06-25_00h12.39.144,jpn_C01,2022.1.2,Linux x86_64,59.88023952,,,,,,,,,,,,,,,,,,,,,,,,,0,8,8,9,1,CartoonStims/chef_kick_artist_r.jpg,セル　ムク　シド,CartoonStims/cowboy_kick_artist_r.jpg,right,CartoonStims/cowboy_kick_artist_r.jpg,audio/serumukusido.mp3,残念！ こちらが正しい画像です。,,,,,,,,,,,,,,,,,,,,,,,,,,,,,,,,,,,,,,,,,,,,,,,
,,,,,,,,,R_1rHyfMTU4R3Ng8o,2022-06-25_00h12.39.144,jpn_C01,2022.1.2,Linux x86_64,59.88023952,,,,,,,,,,,,,,,,,right,1,1.577,0,0,0,0,1,,,,,,,,,,,,,,,,,,,,,,,,,,,,,,,,,,,,,,,,,,,,,,,,,,,,,,,,,,,
,,,,,,,,,R_1rHyfMTU4R3Ng8o,2022-06-25_00h12.39.144,jpn_C01,2022.1.2,Linux x86_64,59.88023952,,,,,,,,,,,,,,,,,,,,,,,,,0,9,9,5,1,CartoonStims/cowboy_point_chef_r.jpg,パツ　ムク　ホレト,CartoonStims/cowboy_shoot_chef_r.jpg,right,CartoonStims/cowboy_shoot_chef_r.jpg,audio/patsumukuhoreto.mp3,残念！ こちらが正しい画像です。,,,,,,,,,,,,,,,,,,,,,,,,,,,,,,,,,,,,,,,,,,,,,,,
,,,,,,,,,R_1rHyfMTU4R3Ng8o,2022-06-25_00h12.39.144,jpn_C01,2022.1.2,Linux x86_64,59.88023952,,,,,,,,,,,,,,,,,right,1,3.767,0,0,0,0,1,,,,,,,,,,,,,,,,,,,,,,,,,,,,,,,,,,,,,,,,,,,,,,,,,,,,,,,,,,,
,,,,,,,,,R_1rHyfMTU4R3Ng8o,2022-06-25_00h12.39.144,jpn_C01,2022.1.2,Linux x86_64,59.88023952,,,,,,,,,,,,,,,,,,,,,,,,,0,10,10,11,1,CartoonStims/burglar_punch_cowboy_r.jpg,プミ　ホレト　ムク,CartoonStims/chef_punch_cowboy_r.jpg,right,CartoonStims/chef_punch_cowboy_r.jpg,audio/pumihoretomuku.mp3,残念！ こちらが正しい画像です。,,,,,,,,,,,,,,,,,,,,,,,,,,,,,,,,,,,,,,,,,,,,,,,
,,,,,,,,,R_1rHyfMTU4R3Ng8o,2022-06-25_00h12.39.144,jpn_C01,2022.1.2,Linux x86_64,59.88023952,,,,,,,,,,,,,,,,,right,1,1.991,0,0,0,0,1,,,,,,,,,,,,,,,,,,,,,,,,,,,,,,,,,,,,,,,,,,,,,,,,,,,,,,,,,,,
,,,,,,,,,R_1rHyfMTU4R3Ng8o,2022-06-25_00h12.39.144,jpn_C01,2022.1.2,Linux x86_64,59.88023952,,,,,,,,,,,,,,,,,,,,,,,,,0,11,11,7,1,CartoonStims/artist_punch_cowboy_r.jpg,セル　シド　ムク,CartoonStims/artist_kick_cowboy_r.jpg,right,CartoonStims/artist_kick_cowboy_r.jpg,audio/serusidomuku.mp3,残念！ こちらが正しい画像です。,,,,,,,,,,,,,,,,,,,,,,,,,,,,,,,,,,,,,,,,,,,,,,,
,,,,,,,,,R_1rHyfMTU4R3Ng8o,2022-06-25_00h12.39.144,jpn_C01,2022.1.2,Linux x86_64,59.88023952,,,,,,,,,,,,,,,,,,,,,,,,,,,,,,,,,,,,,,,,,,,,,,,space,1.166,パツ　ホレト　ムク,right,14.963,0,0,0,0,1,,,,,,,,,,,,,,,,,,,,,,,,,,,
,,,,,,,,,R_1rHyfMTU4R3Ng8o,2022-06-25_00h12.39.144,jpn_C01,2022.1.2,Linux x86_64,59.88023952,,,,,,,,,,,,,CartoonStims/chef_shoot_cowboy_r.jpg,audio/patsuhoretomuku.mp3,,,,,,,,,,,,,,,,,,,,,,,,,,,,,,,,,,,,,,,,,,,0,0,0,7,1,パツ　ホレト　ムク,,,,,,,,,,,,,,,,,,,,,
,,,,,,,,,R_1rHyfMTU4R3Ng8o,2022-06-25_00h12.39.144,jpn_C01,2022.1.2,Linux x86_64,59.88023952,,,,,,,,,,,,,,,,,,,,,,,,,,,,,,,,,,,,,,,,,,,,,,,,,トマ　シド ,right,26.499,0,0,0,0,1,,,,,,,,,,,,,,,,,,,,,,,,,,,
,,,,,,,,,R_1rHyfMTU4R3Ng8o,2022-06-25_00h12.39.144,jpn_C01,2022.1.2,Linux x86_64,59.88023952,,,,,,,,,,,,,CartoonStims/artist_point_boxer_r.jpg,audio/tomasidodoki.mp3,,,,,,,,,,,,,,,,,,,,,,,,,,,,,,,,,,,,,,,,,,,0,1,1,3,1,トマ　シド　ドキ,,,,,,,,,,,,,,,,,,,,,
,,,,,,,,,R_1rHyfMTU4R3Ng8o,2022-06-25_00h12.39.144,jpn_C01,2022.1.2,Linux x86_64,59.88023952,,,,,,,,,,,,,,,,,,,,,,,,,,,,,,,,,,,,,,,,,,,,,,,,,パツ　ルピン　ホレト,right,12.319,0,0,0,0,1,,,,,,,,,,,,,,,,,,,,,,,,,,,
,,,,,,,,,R_1rHyfMTU4R3Ng8o,2022-06-25_00h12.39.144,jpn_C01,2022.1.2,Linux x86_64,59.88023952,,,,,,,,,,,,,CartoonStims/burglar_shoot_chef_r.jpg,audio/patsulupinhoreto.mp3,,,,,,,,,,,,,,,,,,,,,,,,,,,,,,,,,,,,,,,,,,,0,2,2,6,1,パツ　ルピン　ホレト,,,,,,,,,,,,,,,,,,,,,
,,,,,,,,,R_1rHyfMTU4R3Ng8o,2022-06-25_00h12.39.144,jpn_C01,2022.1.2,Linux x86_64,59.88023952,,,,,,,,,,,,,,,,,,,,,,,,,,,,,,,,,,,,,,,,,,,,,,,,,,right,8.191,0,0,0,0,1,,,,,,,,,,,,,,,,,,,,,,,,,,,
,,,,,,,,,R_1rHyfMTU4R3Ng8o,2022-06-25_00h12.39.144,jpn_C01,2022.1.2,Linux x86_64,59.88023952,,,,,,,,,,,,,CartoonStims/artist_punch_burglar_r.jpg,audio/pumisidolupin.mp3,,,,,,,,,,,,,,,,,,,,,,,,,,,,,,,,,,,,,,,,,,,0,3,3,9,1,プミ　シド　ルピン,,,,,,,,,,,,,,,,,,,,,
,,,,,,,,,R_1rHyfMTU4R3Ng8o,2022-06-25_00h12.39.144,jpn_C01,2022.1.2,Linux x86_64,59.88023952,,,,,,,,,,,,,,,,,,,,,,,,,,,,,,,,,,,,,,,,,,,,,,,,,セル　ドキ　シド,right,17.18,0,0,0,0,1,,,,,,,,,,,,,,,,,,,,,,,,,,,
,,,,,,,,,R_1rHyfMTU4R3Ng8o,2022-06-25_00h12.39.144,jpn_C01,2022.1.2,Linux x86_64,59.88023952,,,,,,,,,,,,,CartoonStims/boxer_kick_cowboy_r.jpg,audio/serudokimuku.mp3,,,,,,,,,,,,,,,,,,,,,,,,,,,,,,,,,,,,,,,,,,,0,4,4,2,1,セル　ドキ　ムク,,,,,,,,,,,,,,,,,,,,,
,,,,,,,,,R_1rHyfMTU4R3Ng8o,2022-06-25_00h12.39.144,jpn_C01,2022.1.2,Linux x86_64,59.88023952,,,,,,,,,,,,,,,,,,,,,,,,,,,,,,,,,,,,,,,,,,,,,,,,,,right,14.411,0,0,0,0,1,,,,,,,,,,,,,,,,,,,,,,,,,,,
,,,,,,,,,R_1rHyfMTU4R3Ng8o,2022-06-25_00h12.39.144,jpn_C01,2022.1.2,Linux x86_64,59.88023952,,,,,,,,,,,,,CartoonStims/boxer_punch_artist_r.jpg,audio/pumidokisido.mp3,,,,,,,,,,,,,,,,,,,,,,,,,,,,,,,,,,,,,,,,,,,0,5,5,11,1,プミ　ドキ　シド,,,,,,,,,,,,,,,,,,,,,
,,,,,,,,,R_1rHyfMTU4R3Ng8o,2022-06-25_00h12.39.144,jpn_C01,2022.1.2,Linux x86_64,59.88023952,,,,,,,,,,,,,,,,,,,,,,,,,,,,,,,,,,,,,,,,,,,,,,,,,トマ　ルピン,right,35.144,0,0,0,0,1,,,,,,,,,,,,,,,,,,,,,,,,,,,
,,,,,,,,,R_1rHyfMTU4R3Ng8o,2022-06-25_00h12.39.144,jpn_C01,2022.1.2,Linux x86_64,59.88023952,,,,,,,,,,,,,CartoonStims/chef_point_burglar_r.jpg,audio/tomahoretolupin.mp3,,,,,,,,,,,,,,,,,,,,,,,,,,,,,,,,,,,,,,,,,,,0,6,6,5,1,トマ　ホレト　ルピン,,,,,,,,,,,,,,,,,,,,,
,,,,,,,,,R_1rHyfMTU4R3Ng8o,2022-06-25_00h12.39.144,jpn_C01,2022.1.2,Linux x86_64,59.88023952,,,,,,,,,,,,,,,,,,,,,,,,,,,,,,,,,,,,,,,,,,,,,,,,,パツ　ムク　ピポ,right,9.155,0,0,0,0,1,,,,,,,,,,,,,,,,,,,,,,,,,,,
,,,,,,,,,R_1rHyfMTU4R3Ng8o,2022-06-25_00h12.39.144,jpn_C01,2022.1.2,Linux x86_64,59.88023952,,,,,,,,,,,,,CartoonStims/cowboy_shoot_doctor_r.jpg,audio/patsumukupipo.mp3,,,,,,,,,,,,,,,,,,,,,,,,,,,,,,,,,,,,,,,,,,,0,7,7,8,1,パツ　ムク　ピポ,,,,,,,,,,,,,,,,,,,,,
,,,,,,,,,R_1rHyfMTU4R3Ng8o,2022-06-25_00h12.39.144,jpn_C01,2022.1.2,Linux x86_64,59.88023952,,,,,,,,,,,,,,,,,,,,,,,,,,,,,,,,,,,,,,,,,,,,,,,,,セル　ムク　ルピン,right,14.484,0,0,0,0,1,,,,,,,,,,,,,,,,,,,,,,,,,,,
,,,,,,,,,R_1rHyfMTU4R3Ng8o,2022-06-25_00h12.39.144,jpn_C01,2022.1.2,Linux x86_64,59.88023952,,,,,,,,,,,,,CartoonStims/cowboy_kick_burglar_r.jpg,audio/serumukulupin.mp3,,,,,,,,,,,,,,,,,,,,,,,,,,,,,,,,,,,,,,,,,,,0,8,8,0,1,セル　ムク　ルピン,,,,,,,,,,,,,,,,,,,,,
,,,,,,,,,R_1rHyfMTU4R3Ng8o,2022-06-25_00h12.39.144,jpn_C01,2022.1.2,Linux x86_64,59.88023952,,,,,,,,,,,,,,,,,,,,,,,,,,,,,,,,,,,,,,,,,,,,,,,,,トマ　ルピン　シド,right,14.679,0,0,0,0,1,,,,,,,,,,,,,,,,,,,,,,,,,,,
,,,,,,,,,R_1rHyfMTU4R3Ng8o,2022-06-25_00h12.39.144,jpn_C01,2022.1.2,Linux x86_64,59.88023952,,,,,,,,,,,,,CartoonStims/burglar_point_artist_r.jpg,audio/tomalupinsido.mp3,,,,,,,,,,,,,,,,,,,,,,,,,,,,,,,,,,,,,,,,,,,0,9,9,4,1,トマ　ルピン　シド,,,,,,,,,,,,,,,,,,,,,
,,,,,,,,,R_1rHyfMTU4R3Ng8o,2022-06-25_00h12.39.144,jpn_C01,2022.1.2,Linux x86_64,59.88023952,,,,,,,,,,,,,,,,,,,,,,,,,,,,,,,,,,,,,,,,,,,,,,,,,パツ　ピポ　ドキ,right,9.574,0,0,0,0,1,,,,,,,,,,,,,,,,,,,,,,,,,,,
,,,,,,,,,R_1rHyfMTU4R3Ng8o,2022-06-25_00h12.39.144,jpn_C01,2022.1.2,Linux x86_64,59.88023952,,,,,,,,,,,,,CartoonStims/doctor_punch_boxer_r.jpg,audio/pumipipodoki.mp3,,,,,,,,,,,,,,,,,,,,,,,,,,,,,,,,,,,,,,,,,,,0,10,10,10,1,プミ　ピポ　ドキ,,,,,,,,,,,,,,,,,,,,,
,,,,,,,,,R_1rHyfMTU4R3Ng8o,2022-06-25_00h12.39.144,jpn_C01,2022.1.2,Linux x86_64,59.88023952,,,,,,,,,,,,,,,,,,,,,,,,,,,,,,,,,,,,,,,,,,,,,,,,,セル　ピポ ,right,25.945,0,0,0,0,1,,,,,,,,,,,,,,,,,,,,,,,,,,,
,,,,,,,,,R_1rHyfMTU4R3Ng8o,2022-06-25_00h12.39.144,jpn_C01,2022.1.2,Linux x86_64,59.88023952,,,,,,,,,,,,,CartoonStims/doctor_kick_chef_r.jpg,audio/serupipohoreto.mp3,,,,,,,,,,,,,,,,,,,,,,,,,,,,,,,,,,,,,,,,,,,0,11,11,1,1,セル　ピポ　ホレト,,,,,,,,,,,,,,,,,,,,,
,,,,,,,,,R_1rHyfMTU4R3Ng8o,2022-06-25_00h12.39.144,jpn_C01,2022.1.2,Linux x86_64,59.88023952,,,,,,,,,,,,,,,,,,,,,,,,,,,,,,,,,,,,,,,,,,,,,,,,,,,,,,,,,,,,,,,,space,0.243,0,1,1,1,1,AffExposure.xlsx,"第二のトライアルの学習では、この言語で書かれた文を見ていただきます。引き続き注意して、 聞こえた音を復唱してください。


スペースキーを押してください。",1,AffFCT.xlsx,ここからクイズが始まります。 スクリーンに表示されるテキストに合う画像を選んでください。,AffTest.xlsx,1,次にここまで学んだことをアウトプットしていただきます。 表示される画像を描写していると思う単語を、テキストボックスにタイプしてください。 答えを提出したあとに正しい正解が少しの間画面に写ります。,1,"これで第二のトライアルが終了しました。 ここで休憩をとっていただいても構いません。

休憩が終わりましたら、 スペースキーを押して続きの学習を行いましょう。",,,
,,,,,,,,,R_1rHyfMTU4R3Ng8o,2022-06-25_00h12.39.144,jpn_C01,2022.1.2,Linux x86_64,59.88023952,space,1.853,space,7.489,0,0,0,18,1,トマ　ピク　ムク　ドキ,,,CartoonStims/cowboy_point_boxer_r_no.jpg,audio/tomapikumukudoki.mp3,,,,,,,,,,,,,,,,,,,,,,,,,,,,,,,,,,,,,,,,,,,,,,,,,,,,,,,,,,,,,,,,,,,,,
,,,,,,,,,R_1rHyfMTU4R3Ng8o,2022-06-25_00h12.39.144,jpn_C01,2022.1.2,Linux x86_64,59.88023952,,,space,15.725,0,1,1,41,1,プミ　ピク　ホレト　ルピン,,,CartoonStims/chef_punch_burglar_r_no.jpg,audio/pumipikuhoretolupin.mp3,,,,,,,,,,,,,,,,,,,,,,,,,,,,,,,,,,,,,,,,,,,,,,,,,,,,,,,,,,,,,,,,,,,,,
,,,,,,,,,R_1rHyfMTU4R3Ng8o,2022-06-25_00h12.39.144,jpn_C01,2022.1.2,Linux x86_64,59.88023952,,,space,10.134,0,2,2,40,1,ピク　プミ　ホレト　シド,,,CartoonStims/chef_punch_artist_r_no.jpg,audio/pikupumihoretosido.mp3,,,,,,,,,,,,,,,,,,,,,,,,,,,,,,,,,,,,,,,,,,,,,,,,,,,,,,,,,,,,,,,,,,,,,
,,,,,,,,,R_1rHyfMTU4R3Ng8o,2022-06-25_00h12.39.144,jpn_C01,2022.1.2,Linux x86_64,59.88023952,,,space,12.651,0,3,3,47,1,プミ　ピク　ドキ　ピポ,,,CartoonStims/boxer_punch_doctor_r_no.jpg,audio/pumipikudokipipo.mp3,,,,,,,,,,,,,,,,,,,,,,,,,,,,,,,,,,,,,,,,,,,,,,,,,,,,,,,,,,,,,,,,,,,,,
,,,,,,,,,R_1rHyfMTU4R3Ng8o,2022-06-25_00h12.39.144,jpn_C01,2022.1.2,Linux x86_64,59.88023952,,,space,5.534,0,4,4,39,1,プミ　ピク　ルピン　シド,,,CartoonStims/burglar_punch_artist_r_no.jpg,audio/pumipikulupinsido.mp3,,,,,,,,,,,,,,,,,,,,,,,,,,,,,,,,,,,,,,,,,,,,,,,,,,,,,,,,,,,,,,,,,,,,,
,,,,,,,,,R_1rHyfMTU4R3Ng8o,2022-06-25_00h12.39.144,jpn_C01,2022.1.2,Linux x86_64,59.88023952,,,space,3.933,0,5,5,24,1,パツ　ピク　シド　ムク,,,CartoonStims/artist_shoot_cowboy_r_no.jpg,audio/patsupikusidomuku.mp3,,,,,,,,,,,,,,,,,,,,,,,,,,,,,,,,,,,,,,,,,,,,,,,,,,,,,,,,,,,,,,,,,,,,,
,,,,,,,,,R_1rHyfMTU4R3Ng8o,2022-06-25_00h12.39.144,jpn_C01,2022.1.2,Linux x86_64,59.88023952,,,space,6.18,0,6,6,5,1,セル　ピク　ホレト　ピポ,,,CartoonStims/chef_kick_doctor_r_no.jpg,audio/serupikuhoretopipo.mp3,,,,,,,,,,,,,,,,,,,,,,,,,,,,,,,,,,,,,,,,,,,,,,,,,,,,,,,,,,,,,,,,,,,,,
,,,,,,,,,R_1rHyfMTU4R3Ng8o,2022-06-25_00h12.39.144,jpn_C01,2022.1.2,Linux x86_64,59.88023952,,,space,8.734,0,7,7,27,1,ピク　パツ　ルピン　ドキ,,,CartoonStims/burglar_shoot_boxer_r_no.jpg,audio/pikupatsulupindoki.mp3,,,,,,,,,,,,,,,,,,,,,,,,,,,,,,,,,,,,,,,,,,,,,,,,,,,,,,,,,,,,,,,,,,,,,
,,,,,,,,,R_1rHyfMTU4R3Ng8o,2022-06-25_00h12.39.144,jpn_C01,2022.1.2,Linux x86_64,59.88023952,,,space,8.049,0,8,8,15,1,ピク　トマ　ルピン　ピポ,,,CartoonStims/burglar_point_doctor_r_no.jpg,audio/pikutomalupinpipo.mp3,,,,,,,,,,,,,,,,,,,,,,,,,,,,,,,,,,,,,,,,,,,,,,,,,,,,,,,,,,,,,,,,,,,,,
,,,,,,,,,R_1rHyfMTU4R3Ng8o,2022-06-25_00h12.39.144,jpn_C01,2022.1.2,Linux x86_64,59.88023952,,,space,10.435,0,9,9,8,1,ピク　セル　ピポ　ドキ,,,CartoonStims/doctor_kick_boxer_r_no.jpg,audio/pikuserupipodoki.mp3,,,,,,,,,,,,,,,,,,,,,,,,,,,,,,,,,,,,,,,,,,,,,,,,,,,,,,,,,,,,,,,,,,,,,
,,,,,,,,,R_1rHyfMTU4R3Ng8o,2022-06-25_00h12.39.144,jpn_C01,2022.1.2,Linux x86_64,59.88023952,,,space,3.729,0,10,10,13,1,ピク　トマ　シド　ムク,,,CartoonStims/artist_point_cowboy_r_no.jpg,audio/pikutomasidomuku.mp3,,,,,,,,,,,,,,,,,,,,,,,,,,,,,,,,,,,,,,,,,,,,,,,,,,,,,,,,,,,,,,,,,,,,,
,,,,,,,,,R_1rHyfMTU4R3Ng8o,2022-06-25_00h12.39.144,jpn_C01,2022.1.2,Linux x86_64,59.88023952,,,space,9.251,0,11,11,0,1,ピク　セル　シド　ルピン,,,CartoonStims/artist_kick_burglar_r_no.jpg,audio/pikuserusidolupin.mp3,,,,,,,,,,,,,,,,,,,,,,,,,,,,,,,,,,,,,,,,,,,,,,,,,,,,,,,,,,,,,,,,,,,,,
,,,,,,,,,R_1rHyfMTU4R3Ng8o,2022-06-25_00h12.39.144,jpn_C01,2022.1.2,Linux x86_64,59.88023952,,,space,4.414,0,12,12,36,1,ピク　プミ　シド　ピポ,,,CartoonStims/artist_punch_doctor_r_no.jpg,audio/pikupumisidopipo.mp3,,,,,,,,,,,,,,,,,,,,,,,,,,,,,,,,,,,,,,,,,,,,,,,,,,,,,,,,,,,,,,,,,,,,,
,,,,,,,,,R_1rHyfMTU4R3Ng8o,2022-06-25_00h12.39.144,jpn_C01,2022.1.2,Linux x86_64,59.88023952,,,space,7.203,0,13,13,34,1,パツ　ピク　ドキ　ホレト,,,CartoonStims/boxer_shoot_chef_r_no.jpg,audio/patsupikudokihoreto.mp3,,,,,,,,,,,,,,,,,,,,,,,,,,,,,,,,,,,,,,,,,,,,,,,,,,,,,,,,,,,,,,,,,,,,,
,,,,,,,,,R_1rHyfMTU4R3Ng8o,2022-06-25_00h12.39.144,jpn_C01,2022.1.2,Linux x86_64,59.88023952,,,space,4.465,0,14,14,6,1,ピク　セル　ムク　ピポ,,,CartoonStims/cowboy_kick_doctor_r_no.jpg,audio/pikuserumukupipo.mp3,,,,,,,,,,,,,,,,,,,,,,,,,,,,,,,,,,,,,,,,,,,,,,,,,,,,,,,,,,,,,,,,,,,,,
,,,,,,,,,R_1rHyfMTU4R3Ng8o,2022-06-25_00h12.39.144,jpn_C01,2022.1.2,Linux x86_64,59.88023952,,,space,2.436,0,15,15,16,1,トマ　ピク　ホレト　ピポ,,,CartoonStims/chef_point_doctor_r_no.jpg,audio/tomapikuhoretopipo.mp3,,,,,,,,,,,,,,,,,,,,,,,,,,,,,,,,,,,,,,,,,,,,,,,,,,,,,,,,,,,,,,,,,,,,,
,,,,,,,,,R_1rHyfMTU4R3Ng8o,2022-06-25_00h12.39.144,jpn_C01,2022.1.2,Linux x86_64,59.88023952,,,space,2.657,0,16,16,28,1,パツ　ピク　ホレト　ドキ,,,CartoonStims/chef_shoot_boxer_r_no.jpg,audio/patsupikuhoretodoki.mp3,,,,,,,,,,,,,,,,,,,,,,,,,,,,,,,,,,,,,,,,,,,,,,,,,,,,,,,,,,,,,,,,,,,,,
,,,,,,,,,R_1rHyfMTU4R3Ng8o,2022-06-25_00h12.39.144,jpn_C01,2022.1.2,Linux x86_64,59.88023952,,,space,4.244,0,17,17,44,1,ピク　プミ　ピポ　ホレト,,,CartoonStims/doctor_punch_chef_r_no.jpg,audio/pikupumipipohoreto.mp3,,,,,,,,,,,,,,,,,,,,,,,,,,,,,,,,,,,,,,,,,,,,,,,,,,,,,,,,,,,,,,,,,,,,,
,,,,,,,,,R_1rHyfMTU4R3Ng8o,2022-06-25_00h12.39.144,jpn_C01,2022.1.2,Linux x86_64,59.88023952,,,space,5.079,0,18,18,32,1,パツ　ピク　ピポ　ルピン,,,CartoonStims/doctor_shoot_burglar_r_no.jpg,audio/patsupikupipolupin.mp3,,,,,,,,,,,,,,,,,,,,,,,,,,,,,,,,,,,,,,,,,,,,,,,,,,,,,,,,,,,,,,,,,,,,,
,,,,,,,,,R_1rHyfMTU4R3Ng8o,2022-06-25_00h12.39.144,jpn_C01,2022.1.2,Linux x86_64,59.88023952,,,space,3.636,0,19,19,10,1,ピク　セル　ドキ　シド,,,CartoonStims/boxer_kick_artist_r_no.jpg,audio/pikuserudokisido.mp3,,,,,,,,,,,,,,,,,,,,,,,,,,,,,,,,,,,,,,,,,,,,,,,,,,,,,,,,,,,,,,,,,,,,,
,,,,,,,,,R_1rHyfMTU4R3Ng8o,2022-06-25_00h12.39.144,jpn_C01,2022.1.2,Linux x86_64,59.88023952,,,space,3.607,0,20,20,33,1,ピク　パツ　ピポ　ホレト,,,CartoonStims/doctor_shoot_chef_r_no.jpg,audio/pikupatsupipohoreto.mp3,,,,,,,,,,,,,,,,,,,,,,,,,,,,,,,,,,,,,,,,,,,,,,,,,,,,,,,,,,,,,,,,,,,,,
,,,,,,,,,R_1rHyfMTU4R3Ng8o,2022-06-25_00h12.39.144,jpn_C01,2022.1.2,Linux x86_64,59.88023952,,,space,4.318,0,21,21,46,1,ピク　プミ　ドキ　ムク,,,CartoonStims/boxer_punch_cowboy_r_no.jpg,audio/pikupumidokimuku.mp3,,,,,,,,,,,,,,,,,,,,,,,,,,,,,,,,,,,,,,,,,,,,,,,,,,,,,,,,,,,,,,,,,,,,,
,,,,,,,,,R_1rHyfMTU4R3Ng8o,2022-06-25_00h12.39.144,jpn_C01,2022.1.2,Linux x86_64,59.88023952,,,space,3.817,0,22,22,22,1,トマ　ピク　ドキ　ルピン,,,CartoonStims/boxer_point_burglar_r_no.jpg,audio/tomapikudokilupin.mp3,,,,,,,,,,,,,,,,,,,,,,,,,,,,,,,,,,,,,,,,,,,,,,,,,,,,,,,,,,,,,,,,,,,,,
,,,,,,,,,R_1rHyfMTU4R3Ng8o,2022-06-25_00h12.39.144,jpn_C01,2022.1.2,Linux x86_64,59.88023952,,,space,2.623,0,23,23,7,1,セル　ピク　ムク　ドキ,,,CartoonStims/cowboy_kick_boxer_r_no.jpg,audio/serupikumukudoki.mp3,,,,,,,,,,,,,,,,,,,,,,,,,,,,,,,,,,,,,,,,,,,,,,,,,,,,,,,,,,,,,,,,,,,,,
,,,,,,,,,R_1rHyfMTU4R3Ng8o,2022-06-25_00h12.39.144,jpn_C01,2022.1.2,Linux x86_64,59.88023952,,,space,3.099,0,24,24,4,1,ピク　セル　ホレト　ムク,,,CartoonStims/chef_kick_cowboy_r_no.jpg,audio/pikuseruhoretomuku.mp3,,,,,,,,,,,,,,,,,,,,,,,,,,,,,,,,,,,,,,,,,,,,,,,,,,,,,,,,,,,,,,,,,,,,,
,,,,,,,,,R_1rHyfMTU4R3Ng8o,2022-06-25_00h12.39.144,jpn_C01,2022.1.2,Linux x86_64,59.88023952,,,space,2.853,0,25,25,23,1,ピク　トマ　ドキ　ホレト,,,CartoonStims/boxer_point_chef_r_no.jpg,audio/pikutomadokihoreto.mp3,,,,,,,,,,,,,,,,,,,,,,,,,,,,,,,,,,,,,,,,,,,,,,,,,,,,,,,,,,,,,,,,,,,,,
,,,,,,,,,R_1rHyfMTU4R3Ng8o,2022-06-25_00h12.39.144,jpn_C01,2022.1.2,Linux x86_64,59.88023952,,,space,4.534,0,26,26,43,1,プミ　ピク　ムク　ホレト,,,CartoonStims/cowboy_punch_chef_r_no.jpg,audio/pumipikumukuhoreto.mp3,,,,,,,,,,,,,,,,,,,,,,,,,,,,,,,,,,,,,,,,,,,,,,,,,,,,,,,,,,,,,,,,,,,,,
,,,,,,,,,R_1rHyfMTU4R3Ng8o,2022-06-25_00h12.39.144,jpn_C01,2022.1.2,Linux x86_64,59.88023952,,,space,2.286,0,27,27,30,1,パツ　ピク　ムク　シド,,,CartoonStims/cowboy_shoot_artist_r_no.jpg,audio/patsupikumukusido.mp3,,,,,,,,,,,,,,,,,,,,,,,,,,,,,,,,,,,,,,,,,,,,,,,,,,,,,,,,,,,,,,,,,,,,,
,,,,,,,,,R_1rHyfMTU4R3Ng8o,2022-06-25_00h12.39.144,jpn_C01,2022.1.2,Linux x86_64,59.88023952,,,space,2.045,0,28,28,11,1,セル　ピク　ドキ　ルピン,,,CartoonStims/boxer_kick_burglar_r_no.jpg,audio/serupikudokilupin.mp3,,,,,,,,,,,,,,,,,,,,,,,,,,,,,,,,,,,,,,,,,,,,,,,,,,,,,,,,,,,,,,,,,,,,,
,,,,,,,,,R_1rHyfMTU4R3Ng8o,2022-06-25_00h12.39.144,jpn_C01,2022.1.2,Linux x86_64,59.88023952,,,space,1.999,0,29,29,25,1,ピク　パツ　シド　ピポ,,,CartoonStims/artist_shoot_doctor_r_no.jpg,audio/pikupatsusidopipo.mp3,,,,,,,,,,,,,,,,,,,,,,,,,,,,,,,,,,,,,,,,,,,,,,,,,,,,,,,,,,,,,,,,,,,,,
,,,,,,,,,R_1rHyfMTU4R3Ng8o,2022-06-25_00h12.39.144,jpn_C01,2022.1.2,Linux x86_64,59.88023952,,,space,37.883,0,30,30,37,1,プミ　ピク　シド　ドキ,,,CartoonStims/artist_punch_boxer_r_no.jpg,audio/pumipikusidodoki.mp3,,,,,,,,,,,,,,,,,,,,,,,,,,,,,,,,,,,,,,,,,,,,,,,,,,,,,,,,,,,,,,,,,,,,,
,,,,,,,,,R_1rHyfMTU4R3Ng8o,2022-06-25_00h12.39.144,jpn_C01,2022.1.2,Linux x86_64,59.88023952,,,space,3.43,0,31,31,12,1,トマ　ピク　シド　ホレト,,,CartoonStims/artist_point_chef_r_no.jpg,audio/tomapikusidohoreto.mp3,,,,,,,,,,,,,,,,,,,,,,,,,,,,,,,,,,,,,,,,,,,,,,,,,,,,,,,,,,,,,,,,,,,,,
,,,,,,,,,R_1rHyfMTU4R3Ng8o,2022-06-25_00h12.39.144,jpn_C01,2022.1.2,Linux x86_64,59.88023952,,,space,2.9,0,32,32,17,1,ピク　トマ　ホレト　ドキ,,,CartoonStims/chef_point_boxer_r_no.jpg,audio/pikutomahoretodoki.mp3,,,,,,,,,,,,,,,,,,,,,,,,,,,,,,,,,,,,,,,,,,,,,,,,,,,,,,,,,,,,,,,,,,,,,
,,,,,,,,,R_1rHyfMTU4R3Ng8o,2022-06-25_00h12.39.144,jpn_C01,2022.1.2,Linux x86_64,59.88023952,,,space,3.224,0,33,33,42,1,ピク　プミ　ムク　ルピン,,,CartoonStims/cowboy_punch_burglar_r_no.jpg,audio/pikupumimukulupin.mp3,,,,,,,,,,,,,,,,,,,,,,,,,,,,,,,,,,,,,,,,,,,,,,,,,,,,,,,,,,,,,,,,,,,,,
,,,,,,,,,R_1rHyfMTU4R3Ng8o,2022-06-25_00h12.39.144,jpn_C01,2022.1.2,Linux x86_64,59.88023952,,,space,2.301,0,34,34,29,1,ピク　パツ　ホレト　シド,,,CartoonStims/chef_shoot_artist_r_no.jpg,audio/pikupatsuhoretosido.mp3,,,,,,,,,,,,,,,,,,,,,,,,,,,,,,,,,,,,,,,,,,,,,,,,,,,,,,,,,,,,,,,,,,,,,
,,,,,,,,,R_1rHyfMTU4R3Ng8o,2022-06-25_00h12.39.144,jpn_C01,2022.1.2,Linux x86_64,59.88023952,,,space,3.223,0,35,35,1,1,セル　ピク　シド　ホレト,,,CartoonStims/artist_kick_chef_r_no.jpg,audio/serupikusidohoreto.mp3,,,,,,,,,,,,,,,,,,,,,,,,,,,,,,,,,,,,,,,,,,,,,,,,,,,,,,,,,,,,,,,,,,,,,
,,,,,,,,,R_1rHyfMTU4R3Ng8o,2022-06-25_00h12.39.144,jpn_C01,2022.1.2,Linux x86_64,59.88023952,,,space,11.001,0,36,36,45,1,プミ　ピク　ピポ　ムク,,,CartoonStims/doctor_punch_cowboy_r_no.jpg,audio/pumipikupipomuku.mp3,,,,,,,,,,,,,,,,,,,,,,,,,,,,,,,,,,,,,,,,,,,,,,,,,,,,,,,,,,,,,,,,,,,,,
,,,,,,,,,R_1rHyfMTU4R3Ng8o,2022-06-25_00h12.39.144,jpn_C01,2022.1.2,Linux x86_64,59.88023952,,,space,2.762,0,37,37,2,1,ピク　セル　ルピン　ホレト,,,CartoonStims/burglar_kick_chef_r_no.jpg,audio/pikuserulupinhoreto.mp3,,,,,,,,,,,,,,,,,,,,,,,,,,,,,,,,,,,,,,,,,,,,,,,,,,,,,,,,,,,,,,,,,,,,,
,,,,,,,,,R_1rHyfMTU4R3Ng8o,2022-06-25_00h12.39.144,jpn_C01,2022.1.2,Linux x86_64,59.88023952,,,space,6.35,0,38,38,21,1,ピク　トマ　ピポ　ルピン,,,CartoonStims/doctor_point_burglar_r_no.jpg,audio/pikutomapipolupin.mp3,,,,,,,,,,,,,,,,,,,,,,,,,,,,,,,,,,,,,,,,,,,,,,,,,,,,,,,,,,,,,,,,,,,,,
,,,,,,,,,R_1rHyfMTU4R3Ng8o,2022-06-25_00h12.39.144,jpn_C01,2022.1.2,Linux x86_64,59.88023952,,,space,12.201,0,39,39,38,1,ピク　プミ　ルピン　ドキ,,,CartoonStims/burglar_punch_boxer_r_no.jpg,audio/pikupumilupindoki.mp3,,,,,,,,,,,,,,,,,,,,,,,,,,,,,,,,,,,,,,,,,,,,,,,,,,,,,,,,,,,,,,,,,,,,,
,,,,,,,,,R_1rHyfMTU4R3Ng8o,2022-06-25_00h12.39.144,jpn_C01,2022.1.2,Linux x86_64,59.88023952,,,space,4.758,0,40,40,19,1,ピク　トマ　ムク　シド,,,CartoonStims/cowboy_point_artist_r_no.jpg,audio/pikutomamukusido.mp3,,,,,,,,,,,,,,,,,,,,,,,,,,,,,,,,,,,,,,,,,,,,,,,,,,,,,,,,,,,,,,,,,,,,,
,,,,,,,,,R_1rHyfMTU4R3Ng8o,2022-06-25_00h12.39.144,jpn_C01,2022.1.2,Linux x86_64,59.88023952,,,space,4.593,0,41,41,14,1,トマ　ピク　ルピン　ムク,,,CartoonStims/burglar_point_cowboy_r_no.jpg,audio/tomapikulupinmuku.mp3,,,,,,,,,,,,,,,,,,,,,,,,,,,,,,,,,,,,,,,,,,,,,,,,,,,,,,,,,,,,,,,,,,,,,
,,,,,,,,,R_1rHyfMTU4R3Ng8o,2022-06-25_00h12.39.144,jpn_C01,2022.1.2,Linux x86_64,59.88023952,,,space,4.644,0,42,42,20,1,トマ　ピク　ピポ　シド,,,CartoonStims/doctor_point_artist_r_no.jpg,audio/tomapikupiposido.mp3,,,,,,,,,,,,,,,,,,,,,,,,,,,,,,,,,,,,,,,,,,,,,,,,,,,,,,,,,,,,,,,,,,,,,
,,,,,,,,,R_1rHyfMTU4R3Ng8o,2022-06-25_00h12.39.144,jpn_C01,2022.1.2,Linux x86_64,59.88023952,,,space,1.667,0,43,43,31,1,ピク　パツ　ムク　ルピン,,,CartoonStims/cowboy_shoot_burglar_r_no.jpg,audio/pikupatsumukulupin.mp3,,,,,,,,,,,,,,,,,,,,,,,,,,,,,,,,,,,,,,,,,,,,,,,,,,,,,,,,,,,,,,,,,,,,,
,,,,,,,,,R_1rHyfMTU4R3Ng8o,2022-06-25_00h12.39.144,jpn_C01,2022.1.2,Linux x86_64,59.88023952,,,space,1.251,0,44,44,35,1,ピク　パツ　ドキ　ムク,,,CartoonStims/boxer_shoot_cowboy_r_no.jpg,audio/pikupatsudokimuku.mp3,,,,,,,,,,,,,,,,,,,,,,,,,,,,,,,,,,,,,,,,,,,,,,,,,,,,,,,,,,,,,,,,,,,,,
,,,,,,,,,R_1rHyfMTU4R3Ng8o,2022-06-25_00h12.39.144,jpn_C01,2022.1.2,Linux x86_64,59.88023952,,,space,0.883,0,45,45,3,1,セル　ピク　ルピン　ムク,,,CartoonStims/burglar_kick_cowboy_r_no.jpg,audio/serupikulupinmuku.mp3,,,,,,,,,,,,,,,,,,,,,,,,,,,,,,,,,,,,,,,,,,,,,,,,,,,,,,,,,,,,,,,,,,,,,
,,,,,,,,,R_1rHyfMTU4R3Ng8o,2022-06-25_00h12.39.144,jpn_C01,2022.1.2,Linux x86_64,59.88023952,,,space,0.9,0,46,46,9,1,セル　ピク　ピポ　シド,,,CartoonStims/doctor_kick_artist_r_no.jpg,audio/serupikupiposido.mp3,,,,,,,,,,,,,,,,,,,,,,,,,,,,,,,,,,,,,,,,,,,,,,,,,,,,,,,,,,,,,,,,,,,,,
,,,,,,,,,R_1rHyfMTU4R3Ng8o,2022-06-25_00h12.39.144,jpn_C01,2022.1.2,Linux x86_64,59.88023952,,,space,0.841,0,47,47,26,1,パツ　ピク　ルピン　ピポ,,,CartoonStims/burglar_shoot_doctor_r_no.jpg,audio/patsupikulupinpipo.mp3,,,,,,,,,,,,,,,,,,,,,,,,,,,,,,,,,,,,,,,,,,,,,,,,,,,,,,,,,,,,,,,,,,,,,
,,,,,,,,,R_1rHyfMTU4R3Ng8o,2022-06-25_00h12.39.144,jpn_C01,2022.1.2,Linux x86_64,59.88023952,,,,,,,,,,,,,,,space,3.85,right,0,7.136,,,,,,,,,,,,,,,,,,,,,,,0,0,0,0,1,,,,,,,,,,,,,,,,,,,,,,,,,,,,,,,,,,,,,
,,,,,,,,,R_1rHyfMTU4R3Ng8o,2022-06-25_00h12.39.144,jpn_C01,2022.1.2,Linux x86_64,59.88023952,,,,,,,,,,,,,,,,,,,,,,,,,0,0,0,4,1,CartoonStims/burglar_shoot_doctor_r.jpg,セル　ピク　ルピン　ピポ,CartoonStims/burglar_kick_doctor_r.jpg,left,CartoonStims/burglar_shoot_doctor_r.jpg,audio/serupikulupinpipo.mp3,"残念！ こちらが正しい画像です。

否定文は起きていないことを示しているのを思い出してください。",,,,,,,,,,,,,,,,,,,,,,,,,,,,,,,,,,,,,,,,,,,,,,,
,,,,,,,,,R_1rHyfMTU4R3Ng8o,2022-06-25_00h12.39.144,jpn_C01,2022.1.2,Linux x86_64,59.88023952,,,,,,,,,,,,,,,,,right,1,10.499,0,0,0,0,1,,,,,,,,,,,,,,,,,,,,,,,,,,,,,,,,,,,,,,,,,,,,,,,,,,,,,,,,,,,
,,,,,,,,,R_1rHyfMTU4R3Ng8o,2022-06-25_00h12.39.144,jpn_C01,2022.1.2,Linux x86_64,59.88023952,,,,,,,,,,,,,,,,,,,,,,,,,0,1,1,1,1,CartoonStims/chef_punch_cowboy_r.jpg,プミ　ピク　ホレト　ムク,CartoonStims/chef_kick_cowboy_r.jpg,right,CartoonStims/chef_kick_cowboy_r.jpg,audio/pumipikuhoretomuku.mp3,"残念！ こちらが正しい画像です。

否定文は起きていないことを示しているのを思い出してください。",,,,,,,,,,,,,,,,,,,,,,,,,,,,,,,,,,,,,,,,,,,,,,,
,,,,,,,,,R_1rHyfMTU4R3Ng8o,2022-06-25_00h12.39.144,jpn_C01,2022.1.2,Linux x86_64,59.88023952,,,,,,,,,,,,,,,,,left,1,19.817,,,,,,,,,,,,,,,,,,0,0,0,0,1,,,,,,,,,,,,,,,,,,,,,,,,,,,,,,,,,,,,,,,,,,
,,,,,,,,,R_1rHyfMTU4R3Ng8o,2022-06-25_00h12.39.144,jpn_C01,2022.1.2,Linux x86_64,59.88023952,,,,,,,,,,,,,,,,,,,,,,,,,0,2,2,10,1,CartoonStims/doctor_punch_cowboy_r.jpg,ピク　パツ　ピポ　ムク,CartoonStims/doctor_shoot_cowboy_r.jpg,left,CartoonStims/doctor_punch_cowboy_r.jpg,audio/pikupatsupipomuku.mp3,"残念！ こちらが正しい画像です。

否定文は起きていないことを示しているのを思い出してください。",,,,,,,,,,,,,,,,,,,,,,,,,,,,,,,,,,,,,,,,,,,,,,,
,,,,,,,,,R_1rHyfMTU4R3Ng8o,2022-06-25_00h12.39.144,jpn_C01,2022.1.2,Linux x86_64,59.88023952,,,,,,,,,,,,,,,,,left,1,2.593,,,,,,,,,,,,,,,,,,0,0,0,0,1,,,,,,,,,,,,,,,,,,,,,,,,,,,,,,,,,,,,,,,,,,
,,,,,,,,,R_1rHyfMTU4R3Ng8o,2022-06-25_00h12.39.144,jpn_C01,2022.1.2,Linux x86_64,59.88023952,,,,,,,,,,,,,,,,,,,,,,,,,0,3,3,8,1,CartoonStims/burglar_punch_artist_r.jpg,トマ　ピク　ルピン　シド,CartoonStims/burglar_point_artist_r.jpg,left,CartoonStims/burglar_punch_artist_r.jpg,audio/tomapikulupinsido.mp3,"残念！ こちらが正しい画像です。

否定文は起きていないことを示しているのを思い出してください。",,,,,,,,,,,,,,,,,,,,,,,,,,,,,,,,,,,,,,,,,,,,,,,
,,,,,,,,,R_1rHyfMTU4R3Ng8o,2022-06-25_00h12.39.144,jpn_C01,2022.1.2,Linux x86_64,59.88023952,,,,,,,,,,,,,,,,,right,1,2.023,0,0,0,0,1,,,,,,,,,,,,,,,,,,,,,,,,,,,,,,,,,,,,,,,,,,,,,,,,,,,,,,,,,,,
,,,,,,,,,R_1rHyfMTU4R3Ng8o,2022-06-25_00h12.39.144,jpn_C01,2022.1.2,Linux x86_64,59.88023952,,,,,,,,,,,,,,,,,,,,,,,,,0,4,4,11,1,CartoonStims/chef_shoot_burglar_r.jpg,パツ　ピク　ホレト　ルピン,CartoonStims/chef_kick_burglar_r.jpg,right,CartoonStims/chef_kick_burglar_r.jpg,audio/patsupikuhoretolupin.mp3,"残念！ こちらが正しい画像です。

否定文は起きていないことを示しているのを思い出してください。",,,,,,,,,,,,,,,,,,,,,,,,,,,,,,,,,,,,,,,,,,,,,,,
,,,,,,,,,R_1rHyfMTU4R3Ng8o,2022-06-25_00h12.39.144,jpn_C01,2022.1.2,Linux x86_64,59.88023952,,,,,,,,,,,,,,,,,right,1,4.225,0,0,0,0,1,,,,,,,,,,,,,,,,,,,,,,,,,,,,,,,,,,,,,,,,,,,,,,,,,,,,,,,,,,,
,,,,,,,,,R_1rHyfMTU4R3Ng8o,2022-06-25_00h12.39.144,jpn_C01,2022.1.2,Linux x86_64,59.88023952,,,,,,,,,,,,,,,,,,,,,,,,,0,5,5,7,1,CartoonStims/cowboy_point_chef_r.jpg,ピク　トマ　ムク　ホレト,CartoonStims/cowboy_kick_chef_r.jpg,right,CartoonStims/cowboy_kick_chef_r.jpg,audio/pikutomamukuhoreto.mp3,"残念！ こちらが正しい画像です。

否定文は起きていないことを示しているのを思い出してください。",,,,,,,,,,,,,,,,,,,,,,,,,,,,,,,,,,,,,,,,,,,,,,,
,,,,,,,,,R_1rHyfMTU4R3Ng8o,2022-06-25_00h12.39.144,jpn_C01,2022.1.2,Linux x86_64,59.88023952,,,,,,,,,,,,,,,,,right,1,4.152,0,0,0,0,1,,,,,,,,,,,,,,,,,,,,,,,,,,,,,,,,,,,,,,,,,,,,,,,,,,,,,,,,,,,
,,,,,,,,,R_1rHyfMTU4R3Ng8o,2022-06-25_00h12.39.144,jpn_C01,2022.1.2,Linux x86_64,59.88023952,,,,,,,,,,,,,,,,,,,,,,,,,0,6,6,3,1,CartoonStims/chef_kick_artist_r.jpg,ピク　セル　ホレト　シド,CartoonStims/chef_point_artist_r.jpg,right,CartoonStims/chef_point_artist_r.jpg,audio/pikuseruhoretosido.mp3,"残念！ こちらが正しい画像です。

否定文は起きていないことを示しているのを思い出してください。",,,,,,,,,,,,,,,,,,,,,,,,,,,,,,,,,,,,,,,,,,,,,,,
,,,,,,,,,R_1rHyfMTU4R3Ng8o,2022-06-25_00h12.39.144,jpn_C01,2022.1.2,Linux x86_64,59.88023952,,,,,,,,,,,,,,,,,left,1,11.3,,,,,,,,,,,,,,,,,,0,0,0,0,1,,,,,,,,,,,,,,,,,,,,,,,,,,,,,,,,,,,,,,,,,,
,,,,,,,,,R_1rHyfMTU4R3Ng8o,2022-06-25_00h12.39.144,jpn_C01,2022.1.2,Linux x86_64,59.88023952,,,,,,,,,,,,,,,,,,,,,,,,,0,7,7,2,1,CartoonStims/doctor_point_boxer_r.jpg,ピク　プミ　ピポ　ドキ,CartoonStims/doctor_punch_boxer_r.jpg,left,CartoonStims/doctor_point_boxer_r.jpg,audio/pikupumipipodoki.mp3,"残念！ こちらが正しい画像です。

否定文は起きていないことを示しているのを思い出してください。",,,,,,,,,,,,,,,,,,,,,,,,,,,,,,,,,,,,,,,,,,,,,,,
,,,,,,,,,R_1rHyfMTU4R3Ng8o,2022-06-25_00h12.39.144,jpn_C01,2022.1.2,Linux x86_64,59.88023952,,,,,,,,,,,,,,,,,left,1,3.367,,,,,,,,,,,,,,,,,,0,0,0,0,1,,,,,,,,,,,,,,,,,,,,,,,,,,,,,,,,,,,,,,,,,,
,,,,,,,,,R_1rHyfMTU4R3Ng8o,2022-06-25_00h12.39.144,jpn_C01,2022.1.2,Linux x86_64,59.88023952,,,,,,,,,,,,,,,,,,,,,,,,,0,8,8,0,1,CartoonStims/artist_shoot_burglar_r.jpg,ピク　プミ　シド　ルピン,CartoonStims/artist_punch_burglar_r.jpg,left,CartoonStims/artist_shoot_burglar_r.jpg,audio/pikupumisidolupin.mp3,"残念！ こちらが正しい画像です。

否定文は起きていないことを示しているのを思い出してください。",,,,,,,,,,,,,,,,,,,,,,,,,,,,,,,,,,,,,,,,,,,,,,,
,,,,,,,,,R_1rHyfMTU4R3Ng8o,2022-06-25_00h12.39.144,jpn_C01,2022.1.2,Linux x86_64,59.88023952,,,,,,,,,,,,,,,,,left,1,3.723,,,,,,,,,,,,,,,,,,0,0,0,0,1,,,,,,,,,,,,,,,,,,,,,,,,,,,,,,,,,,,,,,,,,,
,,,,,,,,,R_1rHyfMTU4R3Ng8o,2022-06-25_00h12.39.144,jpn_C01,2022.1.2,Linux x86_64,59.88023952,,,,,,,,,,,,,,,,,,,,,,,,,0,9,9,6,1,CartoonStims/artist_shoot_boxer_r.jpg,トマ　ピク　シド　ドキ,CartoonStims/artist_point_boxer_r.jpg,left,CartoonStims/artist_shoot_boxer_r.jpg,audio/tomapikusidodoki.mp3,"残念！ こちらが正しい画像です。

否定文は起きていないことを示しているのを思い出してください。",,,,,,,,,,,,,,,,,,,,,,,,,,,,,,,,,,,,,,,,,,,,,,,
,,,,,,,,,R_1rHyfMTU4R3Ng8o,2022-06-25_00h12.39.144,jpn_C01,2022.1.2,Linux x86_64,59.88023952,,,,,,,,,,,,,,,,,right,1,3.34,0,0,0,0,1,,,,,,,,,,,,,,,,,,,,,,,,,,,,,,,,,,,,,,,,,,,,,,,,,,,,,,,,,,,
,,,,,,,,,R_1rHyfMTU4R3Ng8o,2022-06-25_00h12.39.144,jpn_C01,2022.1.2,Linux x86_64,59.88023952,,,,,,,,,,,,,,,,,,,,,,,,,0,10,10,5,1,CartoonStims/boxer_kick_cowboy_r.jpg,ピク　セル　ドキ　ムク,CartoonStims/boxer_punch_cowboy_r.jpg,right,CartoonStims/boxer_punch_cowboy_r.jpg,audio/pikuserudokimuku.mp3,"残念！ こちらが正しい画像です。

否定文は起きていないことを示しているのを思い出してください。",,,,,,,,,,,,,,,,,,,,,,,,,,,,,,,,,,,,,,,,,,,,,,,
,,,,,,,,,R_1rHyfMTU4R3Ng8o,2022-06-25_00h12.39.144,jpn_C01,2022.1.2,Linux x86_64,59.88023952,,,,,,,,,,,,,,,,,right,1,4.976,0,0,0,0,1,,,,,,,,,,,,,,,,,,,,,,,,,,,,,,,,,,,,,,,,,,,,,,,,,,,,,,,,,,,
,,,,,,,,,R_1rHyfMTU4R3Ng8o,2022-06-25_00h12.39.144,jpn_C01,2022.1.2,Linux x86_64,59.88023952,,,,,,,,,,,,,,,,,,,,,,,,,0,11,11,9,1,CartoonStims/boxer_shoot_doctor_r.jpg,パツ　ピク　ドキ　ピポ,CartoonStims/boxer_point_doctor_r.jpg,right,CartoonStims/boxer_point_doctor_r.jpg,audio/patsupikudokipipo.mp3,"残念！ こちらが正しい画像です。

否定文は起きていないことを示しているのを思い出してください。",,,,,,,,,,,,,,,,,,,,,,,,,,,,,,,,,,,,,,,,,,,,,,,
,,,,,,,,,R_1rHyfMTU4R3Ng8o,2022-06-25_00h12.39.144,jpn_C01,2022.1.2,Linux x86_64,59.88023952,,,,,,,,,,,,,CartoonStims/artist_shoot_chef_r_no.jpg,,,,,,,,,,,,,,,,,,,,,,,,,,,,,,,,,,space,7.098,パツ　ピク　ムク　ホレト,right,17.099,,,,,,0,0,0,12,1,,,,,,,,,,,,,,,,,,,,ピク　パツ　シド　ホレト,パツ　ピク　シド　ホレト,1
,,,,,,,,,R_1rHyfMTU4R3Ng8o,2022-06-25_00h12.39.144,jpn_C01,2022.1.2,Linux x86_64,59.88023952,,,,,,,,,,,,,CartoonStims/burglar_point_chef_r_no.jpg,,,,,,,,,,,,,,,,,,,,,,,,,,,,,,,,,,,,トマ　ピク　ホレト,right,29.808,,,,,,0,1,1,7,1,,,,,,,,,,,,,,,,,,,,ピク　トマ　ルピン　ホレト,トマ　ピク　ルピン　ホレト,1
,,,,,,,,,R_1rHyfMTU4R3Ng8o,2022-06-25_00h12.39.144,jpn_C01,2022.1.2,Linux x86_64,59.88023952,,,,,,,,,,,,,CartoonStims/cowboy_shoot_doctor_r.jpg,,,,,,,,,,,,,,,,,,,,,,,,,,,,,,,,,,,,パツ　ムク　ピポ,right,9.141,,,,,,0,2,2,32,1,,,,,,,,,,,,,,,,,,,,パツ　ムク　ピポ,パツ　ムク　ピポ,0
,,,,,,,,,R_1rHyfMTU4R3Ng8o,2022-06-25_00h12.39.144,jpn_C01,2022.1.2,Linux x86_64,59.88023952,,,,,,,,,,,,,CartoonStims/boxer_punch_chef_r_no.jpg,,,,,,,,,,,,,,,,,,,,,,,,,,,,,,,,,,,,パツ　プミ　ドキ　ホレト,right,22.14,,,,,,0,3,3,23,1,,,,,,,,,,,,,,,,,,,,ピク　プミ　ドキ　ホレト,プミ　ピク　ドキ　ホレト,1
,,,,,,,,,R_1rHyfMTU4R3Ng8o,2022-06-25_00h12.39.144,jpn_C01,2022.1.2,Linux x86_64,59.88023952,,,,,,,,,,,,,CartoonStims/artist_point_burglar_r_no.jpg,,,,,,,,,,,,,,,,,,,,,,,,,,,,,,,,,,,,トマ　ピク　ムク,right,26.093,,,,,,0,4,4,6,1,,,,,,,,,,,,,,,,,,,,ピク　トマ　シド　ルピン,トマ　ピク　シド　ルピン,1
,,,,,,,,,R_1rHyfMTU4R3Ng8o,2022-06-25_00h12.39.144,jpn_C01,2022.1.2,Linux x86_64,59.88023952,,,,,,,,,,,,,CartoonStims/artist_punch_burglar_r.jpg,,,,,,,,,,,,,,,,,,,,,,,,,,,,,,,,,,,,,right,23.239,,,,,,0,5,5,33,1,,,,,,,,,,,,,,,,,,,,プミ　シド　ルピン,プミ　シド　ルピン,0
,,,,,,,,,R_1rHyfMTU4R3Ng8o,2022-06-25_00h12.39.144,jpn_C01,2022.1.2,Linux x86_64,59.88023952,,,,,,,,,,,,,CartoonStims/chef_punch_boxer_r_no.jpg,,,,,,,,,,,,,,,,,,,,,,,,,,,,,,,,,,,,,right,9.13,,,,,,0,6,6,20,1,,,,,,,,,,,,,,,,,,,,ピク　プミ　ホレト　ドキ,プミ　ピク　ホレト　ドキ,1
,,,,,,,,,R_1rHyfMTU4R3Ng8o,2022-06-25_00h12.39.144,jpn_C01,2022.1.2,Linux x86_64,59.88023952,,,,,,,,,,,,,CartoonStims/boxer_kick_cowboy_r.jpg,,,,,,,,,,,,,,,,,,,,,,,,,,,,,,,,,,,,セル　ドキ　ムク,right,7.307,,,,,,0,7,7,26,1,,,,,,,,,,,,,,,,,,,,セル　ドキ　ムク,セル　ドキ　ムク,0
,,,,,,,,,R_1rHyfMTU4R3Ng8o,2022-06-25_00h12.39.144,jpn_C01,2022.1.2,Linux x86_64,59.88023952,,,,,,,,,,,,,CartoonStims/boxer_point_artist_r_no.jpg,,,,,,,,,,,,,,,,,,,,,,,,,,,,,,,,,,,,トマ　ピク　ドキ　ムク,right,11.68,,,,,,0,8,8,11,1,,,,,,,,,,,,,,,,,,,,ピク　トマ　ドキ　シド,トマ　ピク　ドキ　シド,1
,,,,,,,,,R_1rHyfMTU4R3Ng8o,2022-06-25_00h12.39.144,jpn_C01,2022.1.2,Linux x86_64,59.88023952,,,,,,,,,,,,,CartoonStims/burglar_point_artist_r.jpg,,,,,,,,,,,,,,,,,,,,,,,,,,,,,,,,,,,,トマ　ムク,right,9.644,,,,,,0,9,9,28,1,,,,,,,,,,,,,,,,,,,,トマ　ルピン　シド,トマ　ルピン　シド,0
,,,,,,,,,R_1rHyfMTU4R3Ng8o,2022-06-25_00h12.39.144,jpn_C01,2022.1.2,Linux x86_64,59.88023952,,,,,,,,,,,,,CartoonStims/chef_shoot_doctor_r_no.jpg,,,,,,,,,,,,,,,,,,,,,,,,,,,,,,,,,,,,パツ　ピク　ホレト　ピポ,right,10.916,,,,,,0,10,10,14,1,,,,,,,,,,,,,,,,,,,,ピク　パツ　ホレト　ピポ,パツ　ピク　ホレト　ピポ,1
,,,,,,,,,R_1rHyfMTU4R3Ng8o,2022-06-25_00h12.39.144,jpn_C01,2022.1.2,Linux x86_64,59.88023952,,,,,,,,,,,,,CartoonStims/artist_punch_cowboy_r_no.jpg,,,,,,,,,,,,,,,,,,,,,,,,,,,,,,,,,,,,,right,2.794,,,,,,0,11,11,18,1,,,,,,,,,,,,,,,,,,,,ピク　プミ　シド　ムク,プミ　ピク　シド　ムク,1
,,,,,,,,,R_1rHyfMTU4R3Ng8o,2022-06-25_00h12.39.144,jpn_C01,2022.1.2,Linux x86_64,59.88023952,,,,,,,,,,,,,CartoonStims/doctor_shoot_artist_r_no.jpg,,,,,,,,,,,,,,,,,,,,,,,,,,,,,,,,,,,,パツ　ピク　ピポ 　ホレト,right,6.478,,,,,,0,12,12,16,1,,,,,,,,,,,,,,,,,,,,ピク　パツ　ピポ　シド,パツ　ピク　ピポ　シド,1
,,,,,,,,,R_1rHyfMTU4R3Ng8o,2022-06-25_00h12.39.144,jpn_C01,2022.1.2,Linux x86_64,59.88023952,,,,,,,,,,,,,CartoonStims/cowboy_shoot_boxer_r_no.jpg,,,,,,,,,,,,,,,,,,,,,,,,,,,,,,,,,,,,パツ　ピク　ムク　ドキ,right,9.393,,,,,,0,13,13,15,1,,,,,,,,,,,,,,,,,,,,ピク　パツ　ムク　ドキ,パツ　ピク　ムク　ドキ,1
,,,,,,,,,R_1rHyfMTU4R3Ng8o,2022-06-25_00h12.39.144,jpn_C01,2022.1.2,Linux x86_64,59.88023952,,,,,,,,,,,,,CartoonStims/burglar_shoot_chef_r.jpg,,,,,,,,,,,,,,,,,,,,,,,,,,,,,,,,,,,,パツ　ホレト,right,7.218,,,,,,0,14,14,30,1,,,,,,,,,,,,,,,,,,,,パツ　ルピン　ホレト,パツ　ルピン　ホレト,0
,,,,,,,,,R_1rHyfMTU4R3Ng8o,2022-06-25_00h12.39.144,jpn_C01,2022.1.2,Linux x86_64,59.88023952,,,,,,,,,,,,,CartoonStims/chef_point_burglar_r.jpg,,,,,,,,,,,,,,,,,,,,,,,,,,,,,,,,,,,,トマ　ホレト ,right,9.357,,,,,,0,15,15,29,1,,,,,,,,,,,,,,,,,,,,トマ　ホレト　ルピン,トマ　ホレト　ルピン,0
,,,,,,,,,R_1rHyfMTU4R3Ng8o,2022-06-25_00h12.39.144,jpn_C01,2022.1.2,Linux x86_64,59.88023952,,,,,,,,,,,,,CartoonStims/burglar_shoot_cowboy_r_no.jpg,,,,,,,,,,,,,,,,,,,,,,,,,,,,,,,,,,,,パツ　ピク　ムク,right,10.379,,,,,,0,16,16,13,1,,,,,,,,,,,,,,,,,,,,ピク　パツ　ルピン　ムク,パツ　ピク　ルピン　ムク,1
,,,,,,,,,R_1rHyfMTU4R3Ng8o,2022-06-25_00h12.39.144,jpn_C01,2022.1.2,Linux x86_64,59.88023952,,,,,,,,,,,,,CartoonStims/artist_kick_boxer_r_no.jpg,,,,,,,,,,,,,,,,,,,,,,,,,,,,,,,,,,,,セル　ピク　ムク　ドキ,right,9.334,,,,,,0,17,17,0,1,,,,,,,,,,,,,,,,,,,,ピク　セル　シド　ドキ,セル　ピク　シド　ドキ,1
,,,,,,,,,R_1rHyfMTU4R3Ng8o,2022-06-25_00h12.39.144,jpn_C01,2022.1.2,Linux x86_64,59.88023952,,,,,,,,,,,,,CartoonStims/burglar_punch_doctor_r_no.jpg,,,,,,,,,,,,,,,,,,,,,,,,,,,,,,,,,,,,　,right,2.032,,,,,,0,18,18,19,1,,,,,,,,,,,,,,,,,,,,ピク　プミ　ルピン　ピポ,プミ　ピク　ルピン　ピポ,1
,,,,,,,,,R_1rHyfMTU4R3Ng8o,2022-06-25_00h12.39.144,jpn_C01,2022.1.2,Linux x86_64,59.88023952,,,,,,,,,,,,,CartoonStims/chef_shoot_cowboy_r.jpg,,,,,,,,,,,,,,,,,,,,,,,,,,,,,,,,,,,,パツ　ホレト　ムク,right,11.395,,,,,,0,19,19,31,1,,,,,,,,,,,,,,,,,,,,パツ　ホレト　ムク,パツ　ホレト　ムク,0
,,,,,,,,,R_1rHyfMTU4R3Ng8o,2022-06-25_00h12.39.144,jpn_C01,2022.1.2,Linux x86_64,59.88023952,,,,,,,,,,,,,CartoonStims/doctor_punch_boxer_r.jpg,,,,,,,,,,,,,,,,,,,,,,,,,,,,,,,,,,,,,right,2.359,,,,,,0,20,20,34,1,,,,,,,,,,,,,,,,,,,,プミ　ピポ　ドキ,プミ　ピポ　ドキ,0
,,,,,,,,,R_1rHyfMTU4R3Ng8o,2022-06-25_00h12.39.144,jpn_C01,2022.1.2,Linux x86_64,59.88023952,,,,,,,,,,,,,CartoonStims/doctor_punch_burglar_r_no.jpg,,,,,,,,,,,,,,,,,,,,,,,,,,,,,,,,,,,,,right,0.924,,,,,,0,21,21,22,1,,,,,,,,,,,,,,,,,,,,ピク　プミ　ピポ　ルピン,プミ　ピク　ピポ　ルピン,1
,,,,,,,,,R_1rHyfMTU4R3Ng8o,2022-06-25_00h12.39.144,jpn_C01,2022.1.2,Linux x86_64,59.88023952,,,,,,,,,,,,,CartoonStims/cowboy_kick_chef_r_no.jpg,,,,,,,,,,,,,,,,,,,,,,,,,,,,,,,,,,,,セル　ピク　ムク　ホレト,right,16.201,,,,,,0,22,22,3,1,,,,,,,,,,,,,,,,,,,,ピク　セル　ムク　ホレト,セル　ピク　ムク　ホレト,1
,,,,,,,,,R_1rHyfMTU4R3Ng8o,2022-06-25_00h12.39.144,jpn_C01,2022.1.2,Linux x86_64,59.88023952,,,,,,,,,,,,,CartoonStims/chef_kick_burglar_r_no.jpg,,,,,,,,,,,,,,,,,,,,,,,,,,,,,,,,,,,,セル　ピク　ホレト ,right,9.428,,,,,,0,23,23,2,1,,,,,,,,,,,,,,,,,,,,ピク　セル　ホレト　ルピン,セル　ピク　ホレト　ルピン,1
,,,,,,,,,R_1rHyfMTU4R3Ng8o,2022-06-25_00h12.39.144,jpn_C01,2022.1.2,Linux x86_64,59.88023952,,,,,,,,,,,,,CartoonStims/doctor_kick_chef_r.jpg,,,,,,,,,,,,,,,,,,,,,,,,,,,,,,,,,,,,セル　ピポ 　ホレト,right,5.431,,,,,,0,24,24,25,1,,,,,,,,,,,,,,,,,,,,セル　ピポ　ホレト,セル　ピポ　ホレト,0
,,,,,,,,,R_1rHyfMTU4R3Ng8o,2022-06-25_00h12.39.144,jpn_C01,2022.1.2,Linux x86_64,59.88023952,,,,,,,,,,,,,CartoonStims/doctor_point_boxer_r_no.jpg,,,,,,,,,,,,,,,,,,,,,,,,,,,,,,,,,,,,トマ　ピク　ピポ　ドキ,right,10.102,,,,,,0,25,25,10,1,,,,,,,,,,,,,,,,,,,,ピク　トマ　ピポ　ドキ,トマ　ピク　ピポ　ドキ,1
,,,,,,,,,R_1rHyfMTU4R3Ng8o,2022-06-25_00h12.39.144,jpn_C01,2022.1.2,Linux x86_64,59.88023952,,,,,,,,,,,,,CartoonStims/artist_point_boxer_r.jpg,,,,,,,,,,,,,,,,,,,,,,,,,,,,,,,,,,,,トマ　ムク　ドキ,right,8.706,,,,,,0,26,26,27,1,,,,,,,,,,,,,,,,,,,,トマ　シド　ドキ,トマ　シド　ドキ,0
,,,,,,,,,R_1rHyfMTU4R3Ng8o,2022-06-25_00h12.39.144,jpn_C01,2022.1.2,Linux x86_64,59.88023952,,,,,,,,,,,,,CartoonStims/chef_point_cowboy_r_no.jpg,,,,,,,,,,,,,,,,,,,,,,,,,,,,,,,,,,,,トマ　ピポ　ホレト　ムク,right,7.988,,,,,,0,27,27,8,1,,,,,,,,,,,,,,,,,,,,ピク　トマ　ホレト　ムク,トマ　ピク　ホレト　ムク,1
,,,,,,,,,R_1rHyfMTU4R3Ng8o,2022-06-25_00h12.39.144,jpn_C01,2022.1.2,Linux x86_64,59.88023952,,,,,,,,,,,,,CartoonStims/cowboy_kick_burglar_r.jpg,,,,,,,,,,,,,,,,,,,,,,,,,,,,,,,,,,,,セル　ムク　,right,4.668,,,,,,0,28,28,24,1,,,,,,,,,,,,,,,,,,,,セル　ムク　ルピン,セル　ムク　ルピン,0
,,,,,,,,,R_1rHyfMTU4R3Ng8o,2022-06-25_00h12.39.144,jpn_C01,2022.1.2,Linux x86_64,59.88023952,,,,,,,,,,,,,CartoonStims/doctor_kick_cowboy_r_no.jpg,,,,,,,,,,,,,,,,,,,,,,,,,,,,,,,,,,,,セル　ピポ　ピポ　ムク,right,9.119,,,,,,0,29,29,4,1,,,,,,,,,,,,,,,,,,,,ピク　セル　ピポ　ムク,セル　ピク　ピポ　ムク,1
,,,,,,,,,R_1rHyfMTU4R3Ng8o,2022-06-25_00h12.39.144,jpn_C01,2022.1.2,Linux x86_64,59.88023952,,,,,,,,,,,,,CartoonStims/boxer_punch_artist_r.jpg,,,,,,,,,,,,,,,,,,,,,,,,,,,,,,,,,,,,,right,1.342,,,,,,0,30,30,35,1,,,,,,,,,,,,,,,,,,,,プミ　ドキ　シド,プミ　ドキ　シド,0
,,,,,,,,,R_1rHyfMTU4R3Ng8o,2022-06-25_00h12.39.144,jpn_C01,2022.1.2,Linux x86_64,59.88023952,,,,,,,,,,,,,CartoonStims/boxer_shoot_burglar_r_no.jpg,,,,,,,,,,,,,,,,,,,,,,,,,,,,,,,,,,,,パツ　ピポ　ドキ　,right,8.266,,,,,,0,31,31,17,1,,,,,,,,,,,,,,,,,,,,ピク　パツ　ドキ　ルピン,パツ　ピク　ドキ　ルピン,1
,,,,,,,,,R_1rHyfMTU4R3Ng8o,2022-06-25_00h12.39.144,jpn_C01,2022.1.2,Linux x86_64,59.88023952,,,,,,,,,,,,,CartoonStims/boxer_kick_doctor_r_no.jpg,,,,,,,,,,,,,,,,,,,,,,,,,,,,,,,,,,,,セル　ピク　ドキ　ピポ,right,13.904,,,,,,0,32,32,5,1,,,,,,,,,,,,,,,,,,,,ピク　セル　ドキ　ピポ,セル　ピク　ドキ　ピポ,1
,,,,,,,,,R_1rHyfMTU4R3Ng8o,2022-06-25_00h12.39.144,jpn_C01,2022.1.2,Linux x86_64,59.88023952,,,,,,,,,,,,,CartoonStims/burglar_kick_artist_r_no.jpg,,,,,,,,,,,,,,,,,,,,,,,,,,,,,,,,,,,,セル　ピク　ムク,right,7.38,,,,,,0,33,33,1,1,,,,,,,,,,,,,,,,,,,,ピク　セル　ルピン　シド,セル　ピク　ルピン　シド,1
,,,,,,,,,R_1rHyfMTU4R3Ng8o,2022-06-25_00h12.39.144,jpn_C01,2022.1.2,Linux x86_64,59.88023952,,,,,,,,,,,,,CartoonStims/cowboy_point_doctor_r_no.jpg,,,,,,,,,,,,,,,,,,,,,,,,,,,,,,,,,,,,トマ　ピク　ムク　ピポ,right,6.458,,,,,,0,34,34,9,1,,,,,,,,,,,,,,,,,,,,ピク　トマ　ムク　ピポ,トマ　ピク　ムク　ピポ,1
,,,,,,,,,R_1rHyfMTU4R3Ng8o,2022-06-25_00h12.39.144,jpn_C01,2022.1.2,Linux x86_64,59.88023952,,,,,,,,,,,,,CartoonStims/cowboy_punch_artist_r_no.jpg,,,,,,,,,,,,,,,,,,,,,,,,,,,,,,,,,,,,,right,1.524,,,,,,0,35,35,21,1,,,,,,,,,,,,,,,,,,,,ピク　プミ　ムク　シド,プミ　ピク　ムク　シド,1
,,,,,,,,,R_1rHyfMTU4R3Ng8o,2022-06-25_00h12.39.144,jpn_C01,2022.1.2,Linux x86_64,59.88023952,,,,,,,,,,,,,,,,,,,,,,,,,,,,,,,,,,,,,,,,,,,,,,,,,,,,,,,,,,,,,,,,space,0.991,0,2,2,2,1,EquiprobableCondition.xlsx,"ここではこの言語における否定の文を学習していただきます。引き続き注意して、 聞こえた音を復唱してください。

スペースキーを押してください。",1,EquiFCT.xlsx,ここからクイズが始まります。 スクリーンに表示されるテキストに合うイメージを選んでください。,NegTest.xlsx,1,最後にここまで学んだことをアウトプットしていただきます。 テキストボックスにあるイメージを描写するテキストを入力してください。 このタスクでは、 答え合わせは行いません。,0,これですべての実験が終わりました。 お疲れさまです。 この後はアンケートに答えていただきます。,,,