key_resp_instr_a.keys,key_resp_instr_a.rt,key_resp_instr_b.keys,key_resp_instr_b.rt,dummy.thisRepN,dummy.thisTrialN,dummy.thisN,dummy.thisIndex,dummy.ran,participant,date,expName,psychopyVersion,OS,frameRate,key_resp_instr1.keys,key_resp_instr1.rt,key_resp.keys,key_resp.rt,exp_loop.thisRepN,exp_loop.thisTrialN,exp_loop.thisN,exp_loop.thisIndex,exp_loop.ran,Word,English,Flip,Path,Audio,key_resp_instr2.keys,key_resp_instr2.rt,key_resp_fct.keys,key_resp_fct.corr,key_resp_fct.rt,trials_2.thisRepN,trials_2.thisTrialN,trials_2.thisN,trials_2.thisIndex,trials_2.ran,fct_loop.thisRepN,fct_loop.thisTrialN,fct_loop.thisN,fct_loop.thisIndex,fct_loop.ran,left_img,word,right_img,correctans,correct_img,audio,incorrect_feedback,trials.thisRepN,trials.thisTrialN,trials.thisN,trials.thisIndex,trials.ran,key_resp_instr3.keys,key_resp_instr3.rt,textbox.text,key_resp_2.keys,key_resp_2.rt,fb_yn.thisRepN,fb_yn.thisTrialN,fb_yn.thisN,fb_yn.thisIndex,fb_yn.ran,gather_loop.thisRepN,gather_loop.thisTrialN,gather_loop.thisN,gather_loop.thisIndex,gather_loop.ran,Text,Wordbank,key_resp_instr4.keys,key_resp_instr4.rt,master_loop.thisRepN,master_loop.thisTrialN,master_loop.thisN,master_loop.thisIndex,master_loop.ran,exposure_file,instr_1,exp_reps,fct_file,instr_2,gather_file,gather_reps,instr_3,fReps,instr_4,trials_4.thisRepN,trials_4.thisTrialN,trials_4.thisN,trials_4.thisIndex,trials_4.ran,NegVSentence,VNegSentence,NegTF
space,2.9182,space,12.2904,0,0,0,0,1,R_2D0PReFDr5tGyEB,2022-08-05_18h50.38.435,jpn_C02,2022.1.2,MacIntel,60.0024001,,,,,,,,,,,,,,,,,,,,,,,,,,,,,,,,,,,,,,,,,,,,,,,,,,,,,,,,,,,,,,,,,,,,,,,,,,,,,,,,,,,
,,,,,,,,,R_2D0PReFDr5tGyEB,2022-08-05_18h50.38.435,jpn_C02,2022.1.2,MacIntel,60.0024001,space,14.8871,space,7.6197,0,0,0,1,1,ルピン,burglar,,CartoonStims/burglar_r.jpg,audio/lupin.mp3,,,,,,,,,,,,,,,,,,,,,,,,,,,,,,,,,,,,,,,,,,,,,,,,,,,,,,,,,,,,,,,,,,,,,
,,,,,,,,,R_2D0PReFDr5tGyEB,2022-08-05_18h50.38.435,jpn_C02,2022.1.2,MacIntel,60.0024001,,,space,22.9622,0,1,1,3,1,ムク,cowboy,,CartoonStims/cowboy_r.jpg,audio/muku.mp3,,,,,,,,,,,,,,,,,,,,,,,,,,,,,,,,,,,,,,,,,,,,,,,,,,,,,,,,,,,,,,,,,,,,,
,,,,,,,,,R_2D0PReFDr5tGyEB,2022-08-05_18h50.38.435,jpn_C02,2022.1.2,MacIntel,60.0024001,,,space,8.4026,0,2,2,4,1,ピポ,doctor,,CartoonStims/doctor_r.jpg,audio/pipo.mp3,,,,,,,,,,,,,,,,,,,,,,,,,,,,,,,,,,,,,,,,,,,,,,,,,,,,,,,,,,,,,,,,,,,,,
,,,,,,,,,R_2D0PReFDr5tGyEB,2022-08-05_18h50.38.435,jpn_C02,2022.1.2,MacIntel,60.0024001,,,space,10.8722,0,3,3,2,1,ホレト,chef,,CartoonStims/chef_r.jpg,audio/horeto.mp3,,,,,,,,,,,,,,,,,,,,,,,,,,,,,,,,,,,,,,,,,,,,,,,,,,,,,,,,,,,,,,,,,,,,,
,,,,,,,,,R_2D0PReFDr5tGyEB,2022-08-05_18h50.38.435,jpn_C02,2022.1.2,MacIntel,60.0024001,,,space,6.2965,0,4,4,5,1,ドキ,boxer,,CartoonStims/boxer_r.jpg,audio/doki.mp3,,,,,,,,,,,,,,,,,,,,,,,,,,,,,,,,,,,,,,,,,,,,,,,,,,,,,,,,,,,,,,,,,,,,,
,,,,,,,,,R_2D0PReFDr5tGyEB,2022-08-05_18h50.38.435,jpn_C02,2022.1.2,MacIntel,60.0024001,,,space,7.8377,0,5,5,0,1,シド,artist,,CartoonStims/artist_r.jpg,audio/sido.mp3,,,,,,,,,,,,,,,,,,,,,,,,,,,,,,,,,,,,,,,,,,,,,,,,,,,,,,,,,,,,,,,,,,,,,
,,,,,,,,,R_2D0PReFDr5tGyEB,2022-08-05_18h50.38.435,jpn_C02,2022.1.2,MacIntel,60.0024001,,,space,11.442,1,0,6,5,1,ドキ,boxer,,CartoonStims/boxer_r.jpg,audio/doki.mp3,,,,,,,,,,,,,,,,,,,,,,,,,,,,,,,,,,,,,,,,,,,,,,,,,,,,,,,,,,,,,,,,,,,,,
,,,,,,,,,R_2D0PReFDr5tGyEB,2022-08-05_18h50.38.435,jpn_C02,2022.1.2,MacIntel,60.0024001,,,space,12.5716,1,1,7,4,1,ピポ,doctor,,CartoonStims/doctor_r.jpg,audio/pipo.mp3,,,,,,,,,,,,,,,,,,,,,,,,,,,,,,,,,,,,,,,,,,,,,,,,,,,,,,,,,,,,,,,,,,,,,
,,,,,,,,,R_2D0PReFDr5tGyEB,2022-08-05_18h50.38.435,jpn_C02,2022.1.2,MacIntel,60.0024001,,,space,4.5549,1,2,8,3,1,ムク,cowboy,,CartoonStims/cowboy_r.jpg,audio/muku.mp3,,,,,,,,,,,,,,,,,,,,,,,,,,,,,,,,,,,,,,,,,,,,,,,,,,,,,,,,,,,,,,,,,,,,,
,,,,,,,,,R_2D0PReFDr5tGyEB,2022-08-05_18h50.38.435,jpn_C02,2022.1.2,MacIntel,60.0024001,,,space,5.6414,1,3,9,2,1,ホレト,chef,,CartoonStims/chef_r.jpg,audio/horeto.mp3,,,,,,,,,,,,,,,,,,,,,,,,,,,,,,,,,,,,,,,,,,,,,,,,,,,,,,,,,,,,,,,,,,,,,
,,,,,,,,,R_2D0PReFDr5tGyEB,2022-08-05_18h50.38.435,jpn_C02,2022.1.2,MacIntel,60.0024001,,,space,4.2136,1,4,10,1,1,ルピン,burglar,,CartoonStims/burglar_r.jpg,audio/lupin.mp3,,,,,,,,,,,,,,,,,,,,,,,,,,,,,,,,,,,,,,,,,,,,,,,,,,,,,,,,,,,,,,,,,,,,,
,,,,,,,,,R_2D0PReFDr5tGyEB,2022-08-05_18h50.38.435,jpn_C02,2022.1.2,MacIntel,60.0024001,,,space,8.8858,1,5,11,0,1,シド,artist,,CartoonStims/artist_r.jpg,audio/sido.mp3,,,,,,,,,,,,,,,,,,,,,,,,,,,,,,,,,,,,,,,,,,,,,,,,,,,,,,,,,,,,,,,,,,,,,
,,,,,,,,,R_2D0PReFDr5tGyEB,2022-08-05_18h50.38.435,jpn_C02,2022.1.2,MacIntel,60.0024001,,,space,2.6169,2,0,12,0,1,シド,artist,,CartoonStims/artist_r.jpg,audio/sido.mp3,,,,,,,,,,,,,,,,,,,,,,,,,,,,,,,,,,,,,,,,,,,,,,,,,,,,,,,,,,,,,,,,,,,,,
,,,,,,,,,R_2D0PReFDr5tGyEB,2022-08-05_18h50.38.435,jpn_C02,2022.1.2,MacIntel,60.0024001,,,space,2.7887,2,1,13,4,1,ピポ,doctor,,CartoonStims/doctor_r.jpg,audio/pipo.mp3,,,,,,,,,,,,,,,,,,,,,,,,,,,,,,,,,,,,,,,,,,,,,,,,,,,,,,,,,,,,,,,,,,,,,
,,,,,,,,,R_2D0PReFDr5tGyEB,2022-08-05_18h50.38.435,jpn_C02,2022.1.2,MacIntel,60.0024001,,,space,2.2872,2,2,14,2,1,ホレト,chef,,CartoonStims/chef_r.jpg,audio/horeto.mp3,,,,,,,,,,,,,,,,,,,,,,,,,,,,,,,,,,,,,,,,,,,,,,,,,,,,,,,,,,,,,,,,,,,,,
,,,,,,,,,R_2D0PReFDr5tGyEB,2022-08-05_18h50.38.435,jpn_C02,2022.1.2,MacIntel,60.0024001,,,space,2.4776,2,3,15,3,1,ムク,cowboy,,CartoonStims/cowboy_r.jpg,audio/muku.mp3,,,,,,,,,,,,,,,,,,,,,,,,,,,,,,,,,,,,,,,,,,,,,,,,,,,,,,,,,,,,,,,,,,,,,
,,,,,,,,,R_2D0PReFDr5tGyEB,2022-08-05_18h50.38.435,jpn_C02,2022.1.2,MacIntel,60.0024001,,,space,1.7799,2,4,16,1,1,ルピン,burglar,,CartoonStims/burglar_r.jpg,audio/lupin.mp3,,,,,,,,,,,,,,,,,,,,,,,,,,,,,,,,,,,,,,,,,,,,,,,,,,,,,,,,,,,,,,,,,,,,,
,,,,,,,,,R_2D0PReFDr5tGyEB,2022-08-05_18h50.38.435,jpn_C02,2022.1.2,MacIntel,60.0024001,,,space,2.5531,2,5,17,5,1,ドキ,boxer,,CartoonStims/boxer_r.jpg,audio/doki.mp3,,,,,,,,,,,,,,,,,,,,,,,,,,,,,,,,,,,,,,,,,,,,,,,,,,,,,,,,,,,,,,,,,,,,,
,,,,,,,,,R_2D0PReFDr5tGyEB,2022-08-05_18h50.38.435,jpn_C02,2022.1.2,MacIntel,60.0024001,,,,,,,,,,,,,,,space,1.4106,right,1,2.0949,0,0,0,0,1,,,,,,,,,,,,,,,,,,,,,,,,,,,,,,,,,,,,,,,,,,,,,,,,,,,,,,,,,,,
,,,,,,,,,R_2D0PReFDr5tGyEB,2022-08-05_18h50.38.435,jpn_C02,2022.1.2,MacIntel,60.0024001,,,,,,,,,,,,,,,,,,,,,,,,,0,0,0,9,1,CartoonStims/boxer_r.jpg,ムク,CartoonStims/cowboy_r.jpg,right,CartoonStims/cowboy_r.jpg,audio/muku.mp3,残念！ こちらが正しい画像です。,,,,,,,,,,,,,,,,,,,,,,,,,,,,,,,,,,,,,,,,,,,,,,,
,,,,,,,,,R_2D0PReFDr5tGyEB,2022-08-05_18h50.38.435,jpn_C02,2022.1.2,MacIntel,60.0024001,,,,,,,,,,,,,,,,,right,1,0.6758,0,0,0,0,1,,,,,,,,,,,,,,,,,,,,,,,,,,,,,,,,,,,,,,,,,,,,,,,,,,,,,,,,,,,
,,,,,,,,,R_2D0PReFDr5tGyEB,2022-08-05_18h50.38.435,jpn_C02,2022.1.2,MacIntel,60.0024001,,,,,,,,,,,,,,,,,,,,,,,,,0,1,1,7,1,CartoonStims/cowboy_r.jpg,ルピン,CartoonStims/burglar_r.jpg,right,CartoonStims/burglar_r.jpg,audio/lupin.mp3,残念！ こちらが正しい画像です。,,,,,,,,,,,,,,,,,,,,,,,,,,,,,,,,,,,,,,,,,,,,,,,
,,,,,,,,,R_2D0PReFDr5tGyEB,2022-08-05_18h50.38.435,jpn_C02,2022.1.2,MacIntel,60.0024001,,,,,,,,,,,,,,,,,left,1,0.8344,,,,,,,,,,,,,,,,,,0,0,0,0,1,,,,,,,,,,,,,,,,,,,,,,,,,,,,,,,,,,,,,,,,,,
,,,,,,,,,R_2D0PReFDr5tGyEB,2022-08-05_18h50.38.435,jpn_C02,2022.1.2,MacIntel,60.0024001,,,,,,,,,,,,,,,,,,,,,,,,,0,2,2,1,1,CartoonStims/burglar_r.jpg,ルピン,CartoonStims/chef_r.jpg,left,CartoonStims/burglar_r.jpg,audio/lupin.mp3,残念！ こちらが正しい画像です。,,,,,,,,,,,,,,,,,,,,,,,,,,,,,,,,,,,,,,,,,,,,,,,
,,,,,,,,,R_2D0PReFDr5tGyEB,2022-08-05_18h50.38.435,jpn_C02,2022.1.2,MacIntel,60.0024001,,,,,,,,,,,,,,,,,right,1,2.4534,0,0,0,0,1,,,,,,,,,,,,,,,,,,,,,,,,,,,,,,,,,,,,,,,,,,,,,,,,,,,,,,,,,,,
,,,,,,,,,R_2D0PReFDr5tGyEB,2022-08-05_18h50.38.435,jpn_C02,2022.1.2,MacIntel,60.0024001,,,,,,,,,,,,,,,,,,,,,,,,,0,3,3,6,1,CartoonStims/chef_r.jpg,シド,CartoonStims/artist_r.jpg,right,CartoonStims/artist_r.jpg,audio/sido.mp3,残念！ こちらが正しい画像です。,,,,,,,,,,,,,,,,,,,,,,,,,,,,,,,,,,,,,,,,,,,,,,,
,,,,,,,,,R_2D0PReFDr5tGyEB,2022-08-05_18h50.38.435,jpn_C02,2022.1.2,MacIntel,60.0024001,,,,,,,,,,,,,,,,,left,1,0.66,,,,,,,,,,,,,,,,,,0,0,0,0,1,,,,,,,,,,,,,,,,,,,,,,,,,,,,,,,,,,,,,,,,,,
,,,,,,,,,R_2D0PReFDr5tGyEB,2022-08-05_18h50.38.435,jpn_C02,2022.1.2,MacIntel,60.0024001,,,,,,,,,,,,,,,,,,,,,,,,,0,4,4,0,1,CartoonStims/artist_r.jpg,シド,CartoonStims/burglar_r.jpg,left,CartoonStims/artist_r.jpg,audio/sido.mp3,残念！ こちらが正しい画像です。,,,,,,,,,,,,,,,,,,,,,,,,,,,,,,,,,,,,,,,,,,,,,,,
,,,,,,,,,R_2D0PReFDr5tGyEB,2022-08-05_18h50.38.435,jpn_C02,2022.1.2,MacIntel,60.0024001,,,,,,,,,,,,,,,,,left,1,1.1495,,,,,,,,,,,,,,,,,,0,0,0,0,1,,,,,,,,,,,,,,,,,,,,,,,,,,,,,,,,,,,,,,,,,,
,,,,,,,,,R_2D0PReFDr5tGyEB,2022-08-05_18h50.38.435,jpn_C02,2022.1.2,MacIntel,60.0024001,,,,,,,,,,,,,,,,,,,,,,,,,0,5,5,3,1,CartoonStims/cowboy_r.jpg,ムク,CartoonStims/doctor_r.jpg,left,CartoonStims/cowboy_r.jpg,audio/muku.mp3,残念！ こちらが正しい画像です。,,,,,,,,,,,,,,,,,,,,,,,,,,,,,,,,,,,,,,,,,,,,,,,
,,,,,,,,,R_2D0PReFDr5tGyEB,2022-08-05_18h50.38.435,jpn_C02,2022.1.2,MacIntel,60.0024001,,,,,,,,,,,,,,,,,right,1,1.0591,0,0,0,0,1,,,,,,,,,,,,,,,,,,,,,,,,,,,,,,,,,,,,,,,,,,,,,,,,,,,,,,,,,,,
,,,,,,,,,R_2D0PReFDr5tGyEB,2022-08-05_18h50.38.435,jpn_C02,2022.1.2,MacIntel,60.0024001,,,,,,,,,,,,,,,,,,,,,,,,,0,6,6,10,1,CartoonStims/artist_r.jpg,ピポ,CartoonStims/doctor_r.jpg,right,CartoonStims/doctor_r.jpg,audio/pipo.mp3,残念！ こちらが正しい画像です。,,,,,,,,,,,,,,,,,,,,,,,,,,,,,,,,,,,,,,,,,,,,,,,
,,,,,,,,,R_2D0PReFDr5tGyEB,2022-08-05_18h50.38.435,jpn_C02,2022.1.2,MacIntel,60.0024001,,,,,,,,,,,,,,,,,left,1,1.0218,,,,,,,,,,,,,,,,,,0,0,0,0,1,,,,,,,,,,,,,,,,,,,,,,,,,,,,,,,,,,,,,,,,,,
,,,,,,,,,R_2D0PReFDr5tGyEB,2022-08-05_18h50.38.435,jpn_C02,2022.1.2,MacIntel,60.0024001,,,,,,,,,,,,,,,,,,,,,,,,,0,7,7,2,1,CartoonStims/chef_r.jpg,ホレト,CartoonStims/cowboy_r.jpg,left,CartoonStims/chef_r.jpg,audio/horeto.mp3,残念！ こちらが正しい画像です。,,,,,,,,,,,,,,,,,,,,,,,,,,,,,,,,,,,,,,,,,,,,,,,
,,,,,,,,,R_2D0PReFDr5tGyEB,2022-08-05_18h50.38.435,jpn_C02,2022.1.2,MacIntel,60.0024001,,,,,,,,,,,,,,,,,left,1,1.068,,,,,,,,,,,,,,,,,,0,0,0,0,1,,,,,,,,,,,,,,,,,,,,,,,,,,,,,,,,,,,,,,,,,,
,,,,,,,,,R_2D0PReFDr5tGyEB,2022-08-05_18h50.38.435,jpn_C02,2022.1.2,MacIntel,60.0024001,,,,,,,,,,,,,,,,,,,,,,,,,0,8,8,5,1,CartoonStims/boxer_r.jpg,ドキ,CartoonStims/artist_r.jpg,left,CartoonStims/boxer_r.jpg,audio/doki.mp3,残念！ こちらが正しい画像です。,,,,,,,,,,,,,,,,,,,,,,,,,,,,,,,,,,,,,,,,,,,,,,,
,,,,,,,,,R_2D0PReFDr5tGyEB,2022-08-05_18h50.38.435,jpn_C02,2022.1.2,MacIntel,60.0024001,,,,,,,,,,,,,,,,,right,1,0.8509,0,0,0,0,1,,,,,,,,,,,,,,,,,,,,,,,,,,,,,,,,,,,,,,,,,,,,,,,,,,,,,,,,,,,
,,,,,,,,,R_2D0PReFDr5tGyEB,2022-08-05_18h50.38.435,jpn_C02,2022.1.2,MacIntel,60.0024001,,,,,,,,,,,,,,,,,,,,,,,,,0,9,9,11,1,CartoonStims/burglar_r.jpg,ドキ,CartoonStims/boxer_r.jpg,right,CartoonStims/boxer_r.jpg,audio/doki.mp3,残念！ こちらが正しい画像です。,,,,,,,,,,,,,,,,,,,,,,,,,,,,,,,,,,,,,,,,,,,,,,,
,,,,,,,,,R_2D0PReFDr5tGyEB,2022-08-05_18h50.38.435,jpn_C02,2022.1.2,MacIntel,60.0024001,,,,,,,,,,,,,,,,,right,1,0.8032,0,0,0,0,1,,,,,,,,,,,,,,,,,,,,,,,,,,,,,,,,,,,,,,,,,,,,,,,,,,,,,,,,,,,
,,,,,,,,,R_2D0PReFDr5tGyEB,2022-08-05_18h50.38.435,jpn_C02,2022.1.2,MacIntel,60.0024001,,,,,,,,,,,,,,,,,,,,,,,,,0,10,10,8,1,CartoonStims/doctor_r.jpg,ホレト,CartoonStims/chef_r.jpg,right,CartoonStims/chef_r.jpg,audio/horeto.mp3,残念！ こちらが正しい画像です。,,,,,,,,,,,,,,,,,,,,,,,,,,,,,,,,,,,,,,,,,,,,,,,
,,,,,,,,,R_2D0PReFDr5tGyEB,2022-08-05_18h50.38.435,jpn_C02,2022.1.2,MacIntel,60.0024001,,,,,,,,,,,,,,,,,left,1,3.22,,,,,,,,,,,,,,,,,,0,0,0,0,1,,,,,,,,,,,,,,,,,,,,,,,,,,,,,,,,,,,,,,,,,,
,,,,,,,,,R_2D0PReFDr5tGyEB,2022-08-05_18h50.38.435,jpn_C02,2022.1.2,MacIntel,60.0024001,,,,,,,,,,,,,,,,,,,,,,,,,0,11,11,4,1,CartoonStims/doctor_r.jpg,ピポ,CartoonStims/boxer_r.jpg,left,CartoonStims/doctor_r.jpg,audio/pipo.mp3,残念！ こちらが正しい画像です。,,,,,,,,,,,,,,,,,,,,,,,,,,,,,,,,,,,,,,,,,,,,,,,
,,,,,,,,,R_2D0PReFDr5tGyEB,2022-08-05_18h50.38.435,jpn_C02,2022.1.2,MacIntel,60.0024001,,,,,,,,,,,,,,,,,,,,,,,,,,,,,,,,,,,,,,,,,,space,10.0766,ピポ,right,10.836,0,0,0,0,1,,,,,,,,,,,,,,,,,,,,,,,,,,,,,,,,
,,,,,,,,,R_2D0PReFDr5tGyEB,2022-08-05_18h50.38.435,jpn_C02,2022.1.2,MacIntel,60.0024001,,,,,,,,,,,,,CartoonStims/doctor_r.jpg,audio/pipo.mp3,,,,,,,,,,,,,,,,,,,,,,,,,,,,,,,,,,,,,,0,0,0,4,1,ピポ,,,,,,,,,,,,,,,,,,,,,,,,,,
,,,,,,,,,R_2D0PReFDr5tGyEB,2022-08-05_18h50.38.435,jpn_C02,2022.1.2,MacIntel,60.0024001,,,,,,,,,,,,,,,,,,,,,,,,,,,,,,,,,,,,,,,,,,,,ムク,right,6.7442,0,0,0,0,1,,,,,,,,,,,,,,,,,,,,,,,,,,,,,,,,
,,,,,,,,,R_2D0PReFDr5tGyEB,2022-08-05_18h50.38.435,jpn_C02,2022.1.2,MacIntel,60.0024001,,,,,,,,,,,,,CartoonStims/cowboy_r.jpg,audio/muku.mp3,,,,,,,,,,,,,,,,,,,,,,,,,,,,,,,,,,,,,,0,1,1,3,1,ムク,,,,,,,,,,,,,,,,,,,,,,,,,,
,,,,,,,,,R_2D0PReFDr5tGyEB,2022-08-05_18h50.38.435,jpn_C02,2022.1.2,MacIntel,60.0024001,,,,,,,,,,,,,,,,,,,,,,,,,,,,,,,,,,,,,,,,,,,,シド,right,4.9398,0,0,0,0,1,,,,,,,,,,,,,,,,,,,,,,,,,,,,,,,,
,,,,,,,,,R_2D0PReFDr5tGyEB,2022-08-05_18h50.38.435,jpn_C02,2022.1.2,MacIntel,60.0024001,,,,,,,,,,,,,CartoonStims/artist_r.jpg,audio/sido.mp3,,,,,,,,,,,,,,,,,,,,,,,,,,,,,,,,,,,,,,0,2,2,0,1,シド,,,,,,,,,,,,,,,,,,,,,,,,,,
,,,,,,,,,R_2D0PReFDr5tGyEB,2022-08-05_18h50.38.435,jpn_C02,2022.1.2,MacIntel,60.0024001,,,,,,,,,,,,,,,,,,,,,,,,,,,,,,,,,,,,,,,,,,,,ルピン,right,4.107,0,0,0,0,1,,,,,,,,,,,,,,,,,,,,,,,,,,,,,,,,
,,,,,,,,,R_2D0PReFDr5tGyEB,2022-08-05_18h50.38.435,jpn_C02,2022.1.2,MacIntel,60.0024001,,,,,,,,,,,,,CartoonStims/burglar_r.jpg,audio/lupin.mp3,,,,,,,,,,,,,,,,,,,,,,,,,,,,,,,,,,,,,,0,3,3,1,1,ルピン,,,,,,,,,,,,,,,,,,,,,,,,,,
,,,,,,,,,R_2D0PReFDr5tGyEB,2022-08-05_18h50.38.435,jpn_C02,2022.1.2,MacIntel,60.0024001,,,,,,,,,,,,,,,,,,,,,,,,,,,,,,,,,,,,,,,,,,,,ホレト,right,5.4549,0,0,0,0,1,,,,,,,,,,,,,,,,,,,,,,,,,,,,,,,,
,,,,,,,,,R_2D0PReFDr5tGyEB,2022-08-05_18h50.38.435,jpn_C02,2022.1.2,MacIntel,60.0024001,,,,,,,,,,,,,CartoonStims/chef_r.jpg,audio/horeto.mp3,,,,,,,,,,,,,,,,,,,,,,,,,,,,,,,,,,,,,,0,4,4,2,1,ホレト,,,,,,,,,,,,,,,,,,,,,,,,,,
,,,,,,,,,R_2D0PReFDr5tGyEB,2022-08-05_18h50.38.435,jpn_C02,2022.1.2,MacIntel,60.0024001,,,,,,,,,,,,,,,,,,,,,,,,,,,,,,,,,,,,,,,,,,,,ドキ,right,3.5165,0,0,0,0,1,,,,,,,,,,,,,,,,,,,,,,,,,,,,,,,,
,,,,,,,,,R_2D0PReFDr5tGyEB,2022-08-05_18h50.38.435,jpn_C02,2022.1.2,MacIntel,60.0024001,,,,,,,,,,,,,CartoonStims/boxer_r.jpg,audio/doki.mp3,,,,,,,,,,,,,,,,,,,,,,,,,,,,,,,,,,,,,,0,5,5,5,1,ドキ,,,,,,,,,,,,,,,,,,,,,,,,,,
,,,,,,,,,R_2D0PReFDr5tGyEB,2022-08-05_18h50.38.435,jpn_C02,2022.1.2,MacIntel,60.0024001,,,,,,,,,,,,,,,,,,,,,,,,,,,,,,,,,,,,,,,,,,,,シド,right,7.1041,0,0,0,0,1,,,,,,,,,,,,,,,,,,,,,,,,,,,,,,,,
,,,,,,,,,R_2D0PReFDr5tGyEB,2022-08-05_18h50.38.435,jpn_C02,2022.1.2,MacIntel,60.0024001,,,,,,,,,,,,,CartoonStims/artist_r.jpg,audio/sido.mp3,,,,,,,,,,,,,,,,,,,,,,,,,,,,,,,,,,,,,,1,0,6,0,1,シド,,,,,,,,,,,,,,,,,,,,,,,,,,
,,,,,,,,,R_2D0PReFDr5tGyEB,2022-08-05_18h50.38.435,jpn_C02,2022.1.2,MacIntel,60.0024001,,,,,,,,,,,,,,,,,,,,,,,,,,,,,,,,,,,,,,,,,,,,ピポ,right,3.9158,0,0,0,0,1,,,,,,,,,,,,,,,,,,,,,,,,,,,,,,,,
,,,,,,,,,R_2D0PReFDr5tGyEB,2022-08-05_18h50.38.435,jpn_C02,2022.1.2,MacIntel,60.0024001,,,,,,,,,,,,,CartoonStims/doctor_r.jpg,audio/pipo.mp3,,,,,,,,,,,,,,,,,,,,,,,,,,,,,,,,,,,,,,1,1,7,4,1,ピポ,,,,,,,,,,,,,,,,,,,,,,,,,,
,,,,,,,,,R_2D0PReFDr5tGyEB,2022-08-05_18h50.38.435,jpn_C02,2022.1.2,MacIntel,60.0024001,,,,,,,,,,,,,,,,,,,,,,,,,,,,,,,,,,,,,,,,,,,,ルピン,right,3.353,0,0,0,0,1,,,,,,,,,,,,,,,,,,,,,,,,,,,,,,,,
,,,,,,,,,R_2D0PReFDr5tGyEB,2022-08-05_18h50.38.435,jpn_C02,2022.1.2,MacIntel,60.0024001,,,,,,,,,,,,,CartoonStims/burglar_r.jpg,audio/lupin.mp3,,,,,,,,,,,,,,,,,,,,,,,,,,,,,,,,,,,,,,1,2,8,1,1,ルピン,,,,,,,,,,,,,,,,,,,,,,,,,,
,,,,,,,,,R_2D0PReFDr5tGyEB,2022-08-05_18h50.38.435,jpn_C02,2022.1.2,MacIntel,60.0024001,,,,,,,,,,,,,,,,,,,,,,,,,,,,,,,,,,,,,,,,,,,,ホレト,right,3.5673,0,0,0,0,1,,,,,,,,,,,,,,,,,,,,,,,,,,,,,,,,
,,,,,,,,,R_2D0PReFDr5tGyEB,2022-08-05_18h50.38.435,jpn_C02,2022.1.2,MacIntel,60.0024001,,,,,,,,,,,,,CartoonStims/chef_r.jpg,audio/horeto.mp3,,,,,,,,,,,,,,,,,,,,,,,,,,,,,,,,,,,,,,1,3,9,2,1,ホレト,,,,,,,,,,,,,,,,,,,,,,,,,,
,,,,,,,,,R_2D0PReFDr5tGyEB,2022-08-05_18h50.38.435,jpn_C02,2022.1.2,MacIntel,60.0024001,,,,,,,,,,,,,,,,,,,,,,,,,,,,,,,,,,,,,,,,,,,,ドキ,right,2.558,0,0,0,0,1,,,,,,,,,,,,,,,,,,,,,,,,,,,,,,,,
,,,,,,,,,R_2D0PReFDr5tGyEB,2022-08-05_18h50.38.435,jpn_C02,2022.1.2,MacIntel,60.0024001,,,,,,,,,,,,,CartoonStims/boxer_r.jpg,audio/doki.mp3,,,,,,,,,,,,,,,,,,,,,,,,,,,,,,,,,,,,,,1,4,10,5,1,ドキ,,,,,,,,,,,,,,,,,,,,,,,,,,
,,,,,,,,,R_2D0PReFDr5tGyEB,2022-08-05_18h50.38.435,jpn_C02,2022.1.2,MacIntel,60.0024001,,,,,,,,,,,,,,,,,,,,,,,,,,,,,,,,,,,,,,,,,,,,ムク,right,21.1007,0,0,0,0,1,,,,,,,,,,,,,,,,,,,,,,,,,,,,,,,,
,,,,,,,,,R_2D0PReFDr5tGyEB,2022-08-05_18h50.38.435,jpn_C02,2022.1.2,MacIntel,60.0024001,,,,,,,,,,,,,CartoonStims/cowboy_r.jpg,audio/muku.mp3,,,,,,,,,,,,,,,,,,,,,,,,,,,,,,,,,,,,,,1,5,11,3,1,ムク,,,,,,,,,,,,,,,,,,,,,,,,,,
,,,,,,,,,R_2D0PReFDr5tGyEB,2022-08-05_18h50.38.435,jpn_C02,2022.1.2,MacIntel,60.0024001,,,,,,,,,,,,,,,,,,,,,,,,,,,,,,,,,,,,,,,,,,,,,,,,,,,,,,,,,,,space,97.9179,0,0,0,0,1,NounExposure.xlsx,"最初のトライアルでは、 画像が表示され、 その画像の下に単語が出てきます。 またこの単語の音も聞くことができます。 この音を大きな声で復唱してください。 そしてこの画像がどのような単語を示しているのか, 考えてみてください。 その後、 続きのボタンを押すと次の単語の学習が始まります。

スペースキーを押して、学習を始めましょう。",3,NounFCT.xlsx,ここから語彙のクイズが始まります。スクリーンに表示される単語に合う画像をキーボードの右と左の矢印キーを使って選択してください。,NounTest.xlsx,2,次に、これまで学習してきたことをアウトプットしていただきます。 表示される画像を描写していると思う単語を、テキストボックスにタイプしてください。,1,"ここまでが最初のトライアルです。ここで休憩をとっても構いません。

休憩が済みましたら、スペースキーを押して続きを始めましょう。",,,,,,,,
,,,,,,,,,R_2D0PReFDr5tGyEB,2022-08-05_18h50.38.435,jpn_C02,2022.1.2,MacIntel,60.0024001,space,9.0177,space,21.8451,0,0,0,21,1,トマ　ピポ　ルピン,,,CartoonStims/doctor_point_burglar_r.jpg,audio/tomapipolupin.mp3,,,,,,,,,,,,,,,,,,,,,,,,,,,,,,,,,,,,,,,,,,,,,,,,,,,,,,,,,,,,,,,,,,,,,
,,,,,,,,,R_2D0PReFDr5tGyEB,2022-08-05_18h50.38.435,jpn_C02,2022.1.2,MacIntel,60.0024001,,,space,11.9927,0,1,1,6,1,セル　ムク　ピポ,,,CartoonStims/cowboy_kick_doctor_r.jpg,audio/serumukupipo.mp3,,,,,,,,,,,,,,,,,,,,,,,,,,,,,,,,,,,,,,,,,,,,,,,,,,,,,,,,,,,,,,,,,,,,,
,,,,,,,,,R_2D0PReFDr5tGyEB,2022-08-05_18h50.38.435,jpn_C02,2022.1.2,MacIntel,60.0024001,,,space,7.9753,0,2,2,32,1,パツ　ピポ　ルピン,,,CartoonStims/doctor_shoot_burglar_r.jpg,audio/patsupipolupin.mp3,,,,,,,,,,,,,,,,,,,,,,,,,,,,,,,,,,,,,,,,,,,,,,,,,,,,,,,,,,,,,,,,,,,,,
,,,,,,,,,R_2D0PReFDr5tGyEB,2022-08-05_18h50.38.435,jpn_C02,2022.1.2,MacIntel,60.0024001,,,space,7.6453,0,3,3,9,1,セル　ピポ　シド,,,CartoonStims/doctor_kick_artist_r.jpg,audio/serupiposido.mp3,,,,,,,,,,,,,,,,,,,,,,,,,,,,,,,,,,,,,,,,,,,,,,,,,,,,,,,,,,,,,,,,,,,,,
,,,,,,,,,R_2D0PReFDr5tGyEB,2022-08-05_18h50.38.435,jpn_C02,2022.1.2,MacIntel,60.0024001,,,space,6.4912,0,4,4,0,1,セル　シド　ルピン,,,CartoonStims/artist_kick_burglar_r.jpg,audio/serusidolupin.mp3,,,,,,,,,,,,,,,,,,,,,,,,,,,,,,,,,,,,,,,,,,,,,,,,,,,,,,,,,,,,,,,,,,,,,
,,,,,,,,,R_2D0PReFDr5tGyEB,2022-08-05_18h50.38.435,jpn_C02,2022.1.2,MacIntel,60.0024001,,,space,13.4708,0,5,5,2,1,セル 　ルピン 　ホレト,,,CartoonStims/burglar_kick_chef_r.jpg,audio/serulupinhoreto.mp3,,,,,,,,,,,,,,,,,,,,,,,,,,,,,,,,,,,,,,,,,,,,,,,,,,,,,,,,,,,,,,,,,,,,,
,,,,,,,,,R_2D0PReFDr5tGyEB,2022-08-05_18h50.38.435,jpn_C02,2022.1.2,MacIntel,60.0024001,,,space,13.1438,0,6,6,39,1,プミ　ルピン　シド,,,CartoonStims/burglar_punch_artist_r.jpg,audio/pumilupinsido.mp3,,,,,,,,,,,,,,,,,,,,,,,,,,,,,,,,,,,,,,,,,,,,,,,,,,,,,,,,,,,,,,,,,,,,,
,,,,,,,,,R_2D0PReFDr5tGyEB,2022-08-05_18h50.38.435,jpn_C02,2022.1.2,MacIntel,60.0024001,,,space,4.0576,0,7,7,46,1,プミ　ドキ　ムク,,,CartoonStims/boxer_punch_cowboy_r.jpg,audio/pumidokimuku.mp3,,,,,,,,,,,,,,,,,,,,,,,,,,,,,,,,,,,,,,,,,,,,,,,,,,,,,,,,,,,,,,,,,,,,,
,,,,,,,,,R_2D0PReFDr5tGyEB,2022-08-05_18h50.38.435,jpn_C02,2022.1.2,MacIntel,60.0024001,,,space,5.0884,0,8,8,4,1,セル　ホレト　ムク,,,CartoonStims/chef_kick_cowboy_r.jpg,audio/seruhoretomuku.mp3,,,,,,,,,,,,,,,,,,,,,,,,,,,,,,,,,,,,,,,,,,,,,,,,,,,,,,,,,,,,,,,,,,,,,
,,,,,,,,,R_2D0PReFDr5tGyEB,2022-08-05_18h50.38.435,jpn_C02,2022.1.2,MacIntel,60.0024001,,,space,6.6522,0,9,9,41,1,プミ　ホレト　ルピン,,,CartoonStims/chef_punch_burglar_r.jpg,audio/pumihoretolupin.mp3,,,,,,,,,,,,,,,,,,,,,,,,,,,,,,,,,,,,,,,,,,,,,,,,,,,,,,,,,,,,,,,,,,,,,
,,,,,,,,,R_2D0PReFDr5tGyEB,2022-08-05_18h50.38.435,jpn_C02,2022.1.2,MacIntel,60.0024001,,,space,5.6905,0,10,10,38,1,プミ　ルピン　ドキ,,,CartoonStims/burglar_punch_boxer_r.jpg,audio/pumilupindoki.mp3,,,,,,,,,,,,,,,,,,,,,,,,,,,,,,,,,,,,,,,,,,,,,,,,,,,,,,,,,,,,,,,,,,,,,
,,,,,,,,,R_2D0PReFDr5tGyEB,2022-08-05_18h50.38.435,jpn_C02,2022.1.2,MacIntel,60.0024001,,,space,10.022,0,11,11,34,1,パツ　ドキ　ホレト,,,CartoonStims/boxer_shoot_chef_r.jpg,audio/patsudokihoreto.mp3,,,,,,,,,,,,,,,,,,,,,,,,,,,,,,,,,,,,,,,,,,,,,,,,,,,,,,,,,,,,,,,,,,,,,
,,,,,,,,,R_2D0PReFDr5tGyEB,2022-08-05_18h50.38.435,jpn_C02,2022.1.2,MacIntel,60.0024001,,,space,6.1096,0,12,12,19,1,トマ　ムク　シド,,,CartoonStims/cowboy_point_artist_r.jpg,audio/tomamukusido.mp3,,,,,,,,,,,,,,,,,,,,,,,,,,,,,,,,,,,,,,,,,,,,,,,,,,,,,,,,,,,,,,,,,,,,,
,,,,,,,,,R_2D0PReFDr5tGyEB,2022-08-05_18h50.38.435,jpn_C02,2022.1.2,MacIntel,60.0024001,,,space,8.8116,0,13,13,15,1,トマ　ルピン　ピポ,,,CartoonStims/burglar_point_doctor_r.jpg,audio/tomalupinpipo.mp3,,,,,,,,,,,,,,,,,,,,,,,,,,,,,,,,,,,,,,,,,,,,,,,,,,,,,,,,,,,,,,,,,,,,,
,,,,,,,,,R_2D0PReFDr5tGyEB,2022-08-05_18h50.38.435,jpn_C02,2022.1.2,MacIntel,60.0024001,,,space,10.6541,0,14,14,27,1,パツ　ルピン　ドキ,,,CartoonStims/burglar_shoot_boxer_r.jpg,audio/patsulupindoki.mp3,,,,,,,,,,,,,,,,,,,,,,,,,,,,,,,,,,,,,,,,,,,,,,,,,,,,,,,,,,,,,,,,,,,,,
,,,,,,,,,R_2D0PReFDr5tGyEB,2022-08-05_18h50.38.435,jpn_C02,2022.1.2,MacIntel,60.0024001,,,space,6.3291,0,15,15,44,1,プミ　ピポ　ホレト,,,CartoonStims/doctor_punch_chef_r.jpg,audio/pumipipohoreto.mp3,,,,,,,,,,,,,,,,,,,,,,,,,,,,,,,,,,,,,,,,,,,,,,,,,,,,,,,,,,,,,,,,,,,,,
,,,,,,,,,R_2D0PReFDr5tGyEB,2022-08-05_18h50.38.435,jpn_C02,2022.1.2,MacIntel,60.0024001,,,space,6.5729,0,16,16,37,1,プミ　シド　ドキ,,,CartoonStims/artist_punch_boxer_r.jpg,audio/pumisidodoki.mp3,,,,,,,,,,,,,,,,,,,,,,,,,,,,,,,,,,,,,,,,,,,,,,,,,,,,,,,,,,,,,,,,,,,,,
,,,,,,,,,R_2D0PReFDr5tGyEB,2022-08-05_18h50.38.435,jpn_C02,2022.1.2,MacIntel,60.0024001,,,space,4.9262,0,17,17,8,1,セル　ピポ　ドキ,,,CartoonStims/doctor_kick_boxer_r.jpg,audio/serupipodoki.mp3,,,,,,,,,,,,,,,,,,,,,,,,,,,,,,,,,,,,,,,,,,,,,,,,,,,,,,,,,,,,,,,,,,,,,
,,,,,,,,,R_2D0PReFDr5tGyEB,2022-08-05_18h50.38.435,jpn_C02,2022.1.2,MacIntel,60.0024001,,,space,9.1955,0,18,18,36,1,プミ　シド　ピポ,,,CartoonStims/artist_punch_doctor_r.jpg,audio/pumisidopipo.mp3,,,,,,,,,,,,,,,,,,,,,,,,,,,,,,,,,,,,,,,,,,,,,,,,,,,,,,,,,,,,,,,,,,,,,
,,,,,,,,,R_2D0PReFDr5tGyEB,2022-08-05_18h50.38.435,jpn_C02,2022.1.2,MacIntel,60.0024001,,,space,8.9346,0,19,19,18,1,トマ　ムク　ドキ,,,CartoonStims/cowboy_point_boxer_r.jpg,audio/tomamukudoki.mp3,,,,,,,,,,,,,,,,,,,,,,,,,,,,,,,,,,,,,,,,,,,,,,,,,,,,,,,,,,,,,,,,,,,,,
,,,,,,,,,R_2D0PReFDr5tGyEB,2022-08-05_18h50.38.435,jpn_C02,2022.1.2,MacIntel,60.0024001,,,space,4.9032,0,20,20,24,1,パツ　シド　ムク,,,CartoonStims/artist_shoot_cowboy_r.jpg,audio/patsusidomuku.mp3,,,,,,,,,,,,,,,,,,,,,,,,,,,,,,,,,,,,,,,,,,,,,,,,,,,,,,,,,,,,,,,,,,,,,
,,,,,,,,,R_2D0PReFDr5tGyEB,2022-08-05_18h50.38.435,jpn_C02,2022.1.2,MacIntel,60.0024001,,,space,6.4029,0,21,21,28,1,パツ　ホレト　ドキ,,,CartoonStims/chef_shoot_boxer_r.jpg,audio/patsuhoretodoki.mp3,,,,,,,,,,,,,,,,,,,,,,,,,,,,,,,,,,,,,,,,,,,,,,,,,,,,,,,,,,,,,,,,,,,,,
,,,,,,,,,R_2D0PReFDr5tGyEB,2022-08-05_18h50.38.435,jpn_C02,2022.1.2,MacIntel,60.0024001,,,space,9.6145,0,22,22,40,1,プミ　ホレト　シド,,,CartoonStims/chef_punch_artist_r.jpg,audio/pumihoretosido.mp3,,,,,,,,,,,,,,,,,,,,,,,,,,,,,,,,,,,,,,,,,,,,,,,,,,,,,,,,,,,,,,,,,,,,,
,,,,,,,,,R_2D0PReFDr5tGyEB,2022-08-05_18h50.38.435,jpn_C02,2022.1.2,MacIntel,60.0024001,,,space,5.412,0,23,23,30,1,パツ　ムク　シド,,,CartoonStims/cowboy_shoot_artist_r.jpg,audio/patsumukusido.mp3,,,,,,,,,,,,,,,,,,,,,,,,,,,,,,,,,,,,,,,,,,,,,,,,,,,,,,,,,,,,,,,,,,,,,
,,,,,,,,,R_2D0PReFDr5tGyEB,2022-08-05_18h50.38.435,jpn_C02,2022.1.2,MacIntel,60.0024001,,,space,7.6802,0,24,24,25,1,パツ　シド　ピポ,,,CartoonStims/artist_shoot_doctor_r.jpg,audio/patsusidopipo.mp3,,,,,,,,,,,,,,,,,,,,,,,,,,,,,,,,,,,,,,,,,,,,,,,,,,,,,,,,,,,,,,,,,,,,,
,,,,,,,,,R_2D0PReFDr5tGyEB,2022-08-05_18h50.38.435,jpn_C02,2022.1.2,MacIntel,60.0024001,,,space,7.3128,0,25,25,43,1,プミ　ムク　ホレト,,,CartoonStims/cowboy_punch_chef_r.jpg,audio/pumimukuhoreto.mp3,,,,,,,,,,,,,,,,,,,,,,,,,,,,,,,,,,,,,,,,,,,,,,,,,,,,,,,,,,,,,,,,,,,,,
,,,,,,,,,R_2D0PReFDr5tGyEB,2022-08-05_18h50.38.435,jpn_C02,2022.1.2,MacIntel,60.0024001,,,space,5.9511,0,26,26,7,1,セル　ムク　ドキ,,,CartoonStims/cowboy_kick_boxer_r.jpg,audio/serumukudoki.mp3,,,,,,,,,,,,,,,,,,,,,,,,,,,,,,,,,,,,,,,,,,,,,,,,,,,,,,,,,,,,,,,,,,,,,
,,,,,,,,,R_2D0PReFDr5tGyEB,2022-08-05_18h50.38.435,jpn_C02,2022.1.2,MacIntel,60.0024001,,,space,5.6367,0,27,27,29,1,パツ　ホレト　シド,,,CartoonStims/chef_shoot_artist_r.jpg,audio/patsuhoretosido.mp3,,,,,,,,,,,,,,,,,,,,,,,,,,,,,,,,,,,,,,,,,,,,,,,,,,,,,,,,,,,,,,,,,,,,,
,,,,,,,,,R_2D0PReFDr5tGyEB,2022-08-05_18h50.38.435,jpn_C02,2022.1.2,MacIntel,60.0024001,,,space,6.5112,0,28,28,3,1,セル　ルピン　ムク,,,CartoonStims/burglar_kick_cowboy_r.jpg,audio/serulupinmuku.mp3,,,,,,,,,,,,,,,,,,,,,,,,,,,,,,,,,,,,,,,,,,,,,,,,,,,,,,,,,,,,,,,,,,,,,
,,,,,,,,,R_2D0PReFDr5tGyEB,2022-08-05_18h50.38.435,jpn_C02,2022.1.2,MacIntel,60.0024001,,,space,4.5708,0,29,29,23,1,トマ　ドキ　ホレト,,,CartoonStims/boxer_point_chef_r.jpg,audio/tomadokihoreto.mp3,,,,,,,,,,,,,,,,,,,,,,,,,,,,,,,,,,,,,,,,,,,,,,,,,,,,,,,,,,,,,,,,,,,,,
,,,,,,,,,R_2D0PReFDr5tGyEB,2022-08-05_18h50.38.435,jpn_C02,2022.1.2,MacIntel,60.0024001,,,space,3.8777,0,30,30,22,1,トマ　ドキ　ルピン,,,CartoonStims/boxer_point_burglar_r.jpg,audio/tomadokilupin.mp3,,,,,,,,,,,,,,,,,,,,,,,,,,,,,,,,,,,,,,,,,,,,,,,,,,,,,,,,,,,,,,,,,,,,,
,,,,,,,,,R_2D0PReFDr5tGyEB,2022-08-05_18h50.38.435,jpn_C02,2022.1.2,MacIntel,60.0024001,,,space,6.4761,0,31,31,12,1,トマ　シド　ホレト,,,CartoonStims/artist_point_chef_r.jpg,audio/tomasidohoreto.mp3,,,,,,,,,,,,,,,,,,,,,,,,,,,,,,,,,,,,,,,,,,,,,,,,,,,,,,,,,,,,,,,,,,,,,
,,,,,,,,,R_2D0PReFDr5tGyEB,2022-08-05_18h50.38.435,jpn_C02,2022.1.2,MacIntel,60.0024001,,,space,8.0263,0,32,32,1,1,セル 　シド 　ホレト,,,CartoonStims/artist_kick_chef_r.jpg,audio/serusidohoreto.mp3,,,,,,,,,,,,,,,,,,,,,,,,,,,,,,,,,,,,,,,,,,,,,,,,,,,,,,,,,,,,,,,,,,,,,
,,,,,,,,,R_2D0PReFDr5tGyEB,2022-08-05_18h50.38.435,jpn_C02,2022.1.2,MacIntel,60.0024001,,,space,7.7241,0,33,33,11,1,セル　ドキ　ルピン,,,CartoonStims/boxer_kick_burglar_r.jpg,audio/serudokilupin.mp3,,,,,,,,,,,,,,,,,,,,,,,,,,,,,,,,,,,,,,,,,,,,,,,,,,,,,,,,,,,,,,,,,,,,,
,,,,,,,,,R_2D0PReFDr5tGyEB,2022-08-05_18h50.38.435,jpn_C02,2022.1.2,MacIntel,60.0024001,,,space,4.9729,0,34,34,26,1,パツ　ルピン　ピポ,,,CartoonStims/burglar_shoot_doctor_r.jpg,audio/patsulupinpipo.mp3,,,,,,,,,,,,,,,,,,,,,,,,,,,,,,,,,,,,,,,,,,,,,,,,,,,,,,,,,,,,,,,,,,,,,
,,,,,,,,,R_2D0PReFDr5tGyEB,2022-08-05_18h50.38.435,jpn_C02,2022.1.2,MacIntel,60.0024001,,,space,6.0939,0,35,35,10,1,セル　ドキ　シド,,,CartoonStims/boxer_kick_artist_r.jpg,audio/serudokisido.mp3,,,,,,,,,,,,,,,,,,,,,,,,,,,,,,,,,,,,,,,,,,,,,,,,,,,,,,,,,,,,,,,,,,,,,
,,,,,,,,,R_2D0PReFDr5tGyEB,2022-08-05_18h50.38.435,jpn_C02,2022.1.2,MacIntel,60.0024001,,,space,7.6487,0,36,36,5,1,セル　ホレト　ピポ,,,CartoonStims/chef_kick_doctor_r.jpg,audio/seruhoretopipo.mp3,,,,,,,,,,,,,,,,,,,,,,,,,,,,,,,,,,,,,,,,,,,,,,,,,,,,,,,,,,,,,,,,,,,,,
,,,,,,,,,R_2D0PReFDr5tGyEB,2022-08-05_18h50.38.435,jpn_C02,2022.1.2,MacIntel,60.0024001,,,space,7.6654,0,37,37,17,1,トマ　ホレト　ドキ,,,CartoonStims/chef_point_boxer_r.jpg,audio/tomahoretodoki.mp3,,,,,,,,,,,,,,,,,,,,,,,,,,,,,,,,,,,,,,,,,,,,,,,,,,,,,,,,,,,,,,,,,,,,,
,,,,,,,,,R_2D0PReFDr5tGyEB,2022-08-05_18h50.38.435,jpn_C02,2022.1.2,MacIntel,60.0024001,,,space,7.9239,0,38,38,16,1,トマ　ホレト　ピポ,,,CartoonStims/chef_point_doctor_r.jpg,audio/tomahoretopipo.mp3,,,,,,,,,,,,,,,,,,,,,,,,,,,,,,,,,,,,,,,,,,,,,,,,,,,,,,,,,,,,,,,,,,,,,
,,,,,,,,,R_2D0PReFDr5tGyEB,2022-08-05_18h50.38.435,jpn_C02,2022.1.2,MacIntel,60.0024001,,,space,4.8362,0,39,39,47,1,プミ　ドキ　ピポ,,,CartoonStims/boxer_punch_doctor_r.jpg,audio/pumidokipipo.mp3,,,,,,,,,,,,,,,,,,,,,,,,,,,,,,,,,,,,,,,,,,,,,,,,,,,,,,,,,,,,,,,,,,,,,
,,,,,,,,,R_2D0PReFDr5tGyEB,2022-08-05_18h50.38.435,jpn_C02,2022.1.2,MacIntel,60.0024001,,,space,4.9537,0,40,40,45,1,プミ　ピポ　ムク,,,CartoonStims/doctor_punch_cowboy_r.jpg,audio/pumipipomuku.mp3,,,,,,,,,,,,,,,,,,,,,,,,,,,,,,,,,,,,,,,,,,,,,,,,,,,,,,,,,,,,,,,,,,,,,
,,,,,,,,,R_2D0PReFDr5tGyEB,2022-08-05_18h50.38.435,jpn_C02,2022.1.2,MacIntel,60.0024001,,,space,6.0022,0,41,41,13,1,トマ　シド　ムク,,,CartoonStims/artist_point_cowboy_r.jpg,audio/tomasidomuku.mp3,,,,,,,,,,,,,,,,,,,,,,,,,,,,,,,,,,,,,,,,,,,,,,,,,,,,,,,,,,,,,,,,,,,,,
,,,,,,,,,R_2D0PReFDr5tGyEB,2022-08-05_18h50.38.435,jpn_C02,2022.1.2,MacIntel,60.0024001,,,space,5.0929,0,42,42,33,1,パツ　ピポ　ホレト,,,CartoonStims/doctor_shoot_chef_r.jpg,audio/patsupipohoreto.mp3,,,,,,,,,,,,,,,,,,,,,,,,,,,,,,,,,,,,,,,,,,,,,,,,,,,,,,,,,,,,,,,,,,,,,
,,,,,,,,,R_2D0PReFDr5tGyEB,2022-08-05_18h50.38.435,jpn_C02,2022.1.2,MacIntel,60.0024001,,,space,9.5959,0,43,43,20,1,トマ　ピポ　シド,,,CartoonStims/doctor_point_artist_r.jpg,audio/tomapiposido.mp3,,,,,,,,,,,,,,,,,,,,,,,,,,,,,,,,,,,,,,,,,,,,,,,,,,,,,,,,,,,,,,,,,,,,,
,,,,,,,,,R_2D0PReFDr5tGyEB,2022-08-05_18h50.38.435,jpn_C02,2022.1.2,MacIntel,60.0024001,,,space,6.0905,0,44,44,42,1,プミ　ムク　ルピン,,,CartoonStims/cowboy_punch_burglar_r.jpg,audio/pumimukulupin.mp3,,,,,,,,,,,,,,,,,,,,,,,,,,,,,,,,,,,,,,,,,,,,,,,,,,,,,,,,,,,,,,,,,,,,,
,,,,,,,,,R_2D0PReFDr5tGyEB,2022-08-05_18h50.38.435,jpn_C02,2022.1.2,MacIntel,60.0024001,,,space,4.501,0,45,45,14,1,トマ　ルピン　ムク,,,CartoonStims/burglar_point_cowboy_r.jpg,audio/tomalupinmuku.mp3,,,,,,,,,,,,,,,,,,,,,,,,,,,,,,,,,,,,,,,,,,,,,,,,,,,,,,,,,,,,,,,,,,,,,
,,,,,,,,,R_2D0PReFDr5tGyEB,2022-08-05_18h50.38.435,jpn_C02,2022.1.2,MacIntel,60.0024001,,,space,6.0959,0,46,46,35,1,パツ　ドキ　ムク,,,CartoonStims/boxer_shoot_cowboy_r.jpg,audio/patsudokimuku.mp3,,,,,,,,,,,,,,,,,,,,,,,,,,,,,,,,,,,,,,,,,,,,,,,,,,,,,,,,,,,,,,,,,,,,,
,,,,,,,,,R_2D0PReFDr5tGyEB,2022-08-05_18h50.38.435,jpn_C02,2022.1.2,MacIntel,60.0024001,,,space,4.6808,0,47,47,31,1,パツ　ムク　ルピン,,,CartoonStims/cowboy_shoot_burglar_r.jpg,audio/patsumukulupin.mp3,,,,,,,,,,,,,,,,,,,,,,,,,,,,,,,,,,,,,,,,,,,,,,,,,,,,,,,,,,,,,,,,,,,,,
,,,,,,,,,R_2D0PReFDr5tGyEB,2022-08-05_18h50.38.435,jpn_C02,2022.1.2,MacIntel,60.0024001,,,,,,,,,,,,,,,space,1.0275,right,1,3.3361,0,0,0,0,1,,,,,,,,,,,,,,,,,,,,,,,,,,,,,,,,,,,,,,,,,,,,,,,,,,,,,,,,,,,
,,,,,,,,,R_2D0PReFDr5tGyEB,2022-08-05_18h50.38.435,jpn_C02,2022.1.2,MacIntel,60.0024001,,,,,,,,,,,,,,,,,,,,,,,,,0,0,0,7,1,CartoonStims/artist_punch_cowboy_r.jpg,セル　シド　ムク,CartoonStims/artist_kick_cowboy_r.jpg,right,CartoonStims/artist_kick_cowboy_r.jpg,audio/serusidomuku.mp3,残念！ こちらが正しい画像です。,,,,,,,,,,,,,,,,,,,,,,,,,,,,,,,,,,,,,,,,,,,,,,,
,,,,,,,,,R_2D0PReFDr5tGyEB,2022-08-05_18h50.38.435,jpn_C02,2022.1.2,MacIntel,60.0024001,,,,,,,,,,,,,,,,,left,1,1.4743,,,,,,,,,,,,,,,,,,0,0,0,0,1,,,,,,,,,,,,,,,,,,,,,,,,,,,,,,,,,,,,,,,,,,
,,,,,,,,,R_2D0PReFDr5tGyEB,2022-08-05_18h50.38.435,jpn_C02,2022.1.2,MacIntel,60.0024001,,,,,,,,,,,,,,,,,,,,,,,,,0,1,1,4,1,CartoonStims/burglar_point_boxer_r.jpg,トマ　ルピン　ドキ,CartoonStims/burglar_kick_boxer_r.jpg,left,CartoonStims/burglar_point_boxer_r.jpg,audio/tomalupindoki.mp3,残念！ こちらが正しい画像です。,,,,,,,,,,,,,,,,,,,,,,,,,,,,,,,,,,,,,,,,,,,,,,,
,,,,,,,,,R_2D0PReFDr5tGyEB,2022-08-05_18h50.38.435,jpn_C02,2022.1.2,MacIntel,60.0024001,,,,,,,,,,,,,,,,,right,1,3.9786,0,0,0,0,1,,,,,,,,,,,,,,,,,,,,,,,,,,,,,,,,,,,,,,,,,,,,,,,,,,,,,,,,,,,
,,,,,,,,,R_2D0PReFDr5tGyEB,2022-08-05_18h50.38.435,jpn_C02,2022.1.2,MacIntel,60.0024001,,,,,,,,,,,,,,,,,,,,,,,,,0,2,2,11,1,CartoonStims/burglar_punch_cowboy_r.jpg,プミ　ホレト　ムク,CartoonStims/chef_punch_cowboy_r.jpg,right,CartoonStims/chef_punch_cowboy_r.jpg,audio/pumihoretomuku.mp3,残念！ こちらが正しい画像です。,,,,,,,,,,,,,,,,,,,,,,,,,,,,,,,,,,,,,,,,,,,,,,,
,,,,,,,,,R_2D0PReFDr5tGyEB,2022-08-05_18h50.38.435,jpn_C02,2022.1.2,MacIntel,60.0024001,,,,,,,,,,,,,,,,,left,1,2.4375,,,,,,,,,,,,,,,,,,0,0,0,0,1,,,,,,,,,,,,,,,,,,,,,,,,,,,,,,,,,,,,,,,,,,
,,,,,,,,,R_2D0PReFDr5tGyEB,2022-08-05_18h50.38.435,jpn_C02,2022.1.2,MacIntel,60.0024001,,,,,,,,,,,,,,,,,,,,,,,,,0,3,3,6,1,CartoonStims/doctor_punch_boxer_r.jpg,プミ　ピポ　ドキ,CartoonStims/doctor_shoot_boxer_r.jpg,left,CartoonStims/doctor_punch_boxer_r.jpg,audio/pumipipodoki.mp3,残念！ こちらが正しい画像です。,,,,,,,,,,,,,,,,,,,,,,,,,,,,,,,,,,,,,,,,,,,,,,,
,,,,,,,,,R_2D0PReFDr5tGyEB,2022-08-05_18h50.38.435,jpn_C02,2022.1.2,MacIntel,60.0024001,,,,,,,,,,,,,,,,,right,1,2.807,0,0,0,0,1,,,,,,,,,,,,,,,,,,,,,,,,,,,,,,,,,,,,,,,,,,,,,,,,,,,,,,,,,,,
,,,,,,,,,R_2D0PReFDr5tGyEB,2022-08-05_18h50.38.435,jpn_C02,2022.1.2,MacIntel,60.0024001,,,,,,,,,,,,,,,,,,,,,,,,,0,4,4,5,1,CartoonStims/cowboy_point_chef_r.jpg,パツ　ムク　ホレト,CartoonStims/cowboy_shoot_chef_r.jpg,right,CartoonStims/cowboy_shoot_chef_r.jpg,audio/patsumukuhoreto.mp3,残念！ こちらが正しい画像です。,,,,,,,,,,,,,,,,,,,,,,,,,,,,,,,,,,,,,,,,,,,,,,,
,,,,,,,,,R_2D0PReFDr5tGyEB,2022-08-05_18h50.38.435,jpn_C02,2022.1.2,MacIntel,60.0024001,,,,,,,,,,,,,,,,,right,1,3.7947,0,0,0,0,1,,,,,,,,,,,,,,,,,,,,,,,,,,,,,,,,,,,,,,,,,,,,,,,,,,,,,,,,,,,
,,,,,,,,,R_2D0PReFDr5tGyEB,2022-08-05_18h50.38.435,jpn_C02,2022.1.2,MacIntel,60.0024001,,,,,,,,,,,,,,,,,,,,,,,,,0,5,5,9,1,CartoonStims/chef_kick_artist_r.jpg,セル　ムク　シド,CartoonStims/cowboy_kick_artist_r.jpg,right,CartoonStims/cowboy_kick_artist_r.jpg,audio/serumukusido.mp3,残念！ こちらが正しい画像です。,,,,,,,,,,,,,,,,,,,,,,,,,,,,,,,,,,,,,,,,,,,,,,,
,,,,,,,,,R_2D0PReFDr5tGyEB,2022-08-05_18h50.38.435,jpn_C02,2022.1.2,MacIntel,60.0024001,,,,,,,,,,,,,,,,,left,0,5.1106,,,,,,,,,,,,,,,,,,,,,,,,,,,,,,,,,,,,,,,,,,,,,,,,,,,,,,,,,0,0,0,0,1,,,
,,,,,,,,,R_2D0PReFDr5tGyEB,2022-08-05_18h50.38.435,jpn_C02,2022.1.2,MacIntel,60.0024001,,,,,,,,,,,,,,,,,,,,,,,,,0,6,6,3,1,CartoonStims/cowboy_punch_doctor_r.jpg,プミ　ムク　ドキ,CartoonStims/cowboy_punch_boxer_r.jpg,right,CartoonStims/cowboy_punch_boxer_r.jpg,audio/pumimukudoki.mp3,残念！ こちらが正しい画像です。,,,,,,,,,,,,,,,,,,,,,,,,,,,,,,,,,,,,,,,,,,,,,,,
,,,,,,,,,R_2D0PReFDr5tGyEB,2022-08-05_18h50.38.435,jpn_C02,2022.1.2,MacIntel,60.0024001,,,,,,,,,,,,,,,,,right,1,23.0188,0,0,0,0,1,,,,,,,,,,,,,,,,,,,,,,,,,,,,,,,,,,,,,,,,,,,,,,,,,,,,,,,,,,,
,,,,,,,,,R_2D0PReFDr5tGyEB,2022-08-05_18h50.38.435,jpn_C02,2022.1.2,MacIntel,60.0024001,,,,,,,,,,,,,,,,,,,,,,,,,0,7,7,1,1,CartoonStims/chef_point_burglar_r.jpg,トマ　ホレト　シド,CartoonStims/chef_point_artist_r.jpg,right,CartoonStims/chef_point_artist_r.jpg,audio/tomahoretosido.mp3,残念！ こちらが正しい画像です。,,,,,,,,,,,,,,,,,,,,,,,,,,,,,,,,,,,,,,,,,,,,,,,
,,,,,,,,,R_2D0PReFDr5tGyEB,2022-08-05_18h50.38.435,jpn_C02,2022.1.2,MacIntel,60.0024001,,,,,,,,,,,,,,,,,left,1,6.8013,,,,,,,,,,,,,,,,,,0,0,0,0,1,,,,,,,,,,,,,,,,,,,,,,,,,,,,,,,,,,,,,,,,,,
,,,,,,,,,R_2D0PReFDr5tGyEB,2022-08-05_18h50.38.435,jpn_C02,2022.1.2,MacIntel,60.0024001,,,,,,,,,,,,,,,,,,,,,,,,,0,8,8,8,1,CartoonStims/doctor_point_cowboy_r.jpg,トマ　ピポ　ムク,CartoonStims/boxer_point_cowboy_r.jpg,left,CartoonStims/doctor_point_cowboy_r.jpg,audio/tomapipomuku.mp3,残念！ こちらが正しい画像です。,,,,,,,,,,,,,,,,,,,,,,,,,,,,,,,,,,,,,,,,,,,,,,,
,,,,,,,,,R_2D0PReFDr5tGyEB,2022-08-05_18h50.38.435,jpn_C02,2022.1.2,MacIntel,60.0024001,,,,,,,,,,,,,,,,,left,1,4.7099,,,,,,,,,,,,,,,,,,0,0,0,0,1,,,,,,,,,,,,,,,,,,,,,,,,,,,,,,,,,,,,,,,,,,
,,,,,,,,,R_2D0PReFDr5tGyEB,2022-08-05_18h50.38.435,jpn_C02,2022.1.2,MacIntel,60.0024001,,,,,,,,,,,,,,,,,,,,,,,,,0,9,9,10,1,CartoonStims/artist_shoot_burglar_r.jpg,パツ　シド　ルピン,CartoonStims/chef_shoot_burglar_r.jpg,left,CartoonStims/artist_shoot_burglar_r.jpg,audio/patsusidolupin.mp3,残念！ こちらが正しい画像です。,,,,,,,,,,,,,,,,,,,,,,,,,,,,,,,,,,,,,,,,,,,,,,,
,,,,,,,,,R_2D0PReFDr5tGyEB,2022-08-05_18h50.38.435,jpn_C02,2022.1.2,MacIntel,60.0024001,,,,,,,,,,,,,,,,,left,1,6.0593,,,,,,,,,,,,,,,,,,0,0,0,0,1,,,,,,,,,,,,,,,,,,,,,,,,,,,,,,,,,,,,,,,,,,
,,,,,,,,,R_2D0PReFDr5tGyEB,2022-08-05_18h50.38.435,jpn_C02,2022.1.2,MacIntel,60.0024001,,,,,,,,,,,,,,,,,,,,,,,,,0,10,10,2,1,CartoonStims/boxer_shoot_doctor_r.jpg,パツ　ドキ　ピポ,CartoonStims/boxer_shoot_artist_r.jpg,left,CartoonStims/boxer_shoot_doctor_r.jpg,audio/patsudokipipo.mp3,残念！ こちらが正しい画像です。,,,,,,,,,,,,,,,,,,,,,,,,,,,,,,,,,,,,,,,,,,,,,,,
,,,,,,,,,R_2D0PReFDr5tGyEB,2022-08-05_18h50.38.435,jpn_C02,2022.1.2,MacIntel,60.0024001,,,,,,,,,,,,,,,,,left,1,4.4881,,,,,,,,,,,,,,,,,,0,0,0,0,1,,,,,,,,,,,,,,,,,,,,,,,,,,,,,,,,,,,,,,,,,,
,,,,,,,,,R_2D0PReFDr5tGyEB,2022-08-05_18h50.38.435,jpn_C02,2022.1.2,MacIntel,60.0024001,,,,,,,,,,,,,,,,,,,,,,,,,0,11,11,0,1,CartoonStims/doctor_kick_burglar_r.jpg,セル　ピポ　ルピン,CartoonStims/doctor_kick_chef_r.jpg,left,CartoonStims/doctor_kick_burglar_r.jpg,audio/serupipolupin.mp3,残念！ こちらが正しい画像です。,,,,,,,,,,,,,,,,,,,,,,,,,,,,,,,,,,,,,,,,,,,,,,,
,,,,,,,,,R_2D0PReFDr5tGyEB,2022-08-05_18h50.38.435,jpn_C02,2022.1.2,MacIntel,60.0024001,,,,,,,,,,,,,,,,,,,,,,,,,,,,,,,,,,,,,,,,,,space,7.161,プミ　シド　ルピン,right,30.1489,0,0,0,0,1,,,,,,,,,,,,,,,,,,,,,,,,,,,,,,,,
,,,,,,,,,R_2D0PReFDr5tGyEB,2022-08-05_18h50.38.435,jpn_C02,2022.1.2,MacIntel,60.0024001,,,,,,,,,,,,,CartoonStims/artist_punch_burglar_r.jpg,audio/pumisidolupin.mp3,,,,,,,,,,,,,,,,,,,,,,,,,,,,,,,,,,,,,,0,0,0,9,1,プミ　シド　ルピン,,,,,,,,,,,,,,,,,,,,,,,,,,
,,,,,,,,,R_2D0PReFDr5tGyEB,2022-08-05_18h50.38.435,jpn_C02,2022.1.2,MacIntel,60.0024001,,,,,,,,,,,,,,,,,,,,,,,,,,,,,,,,,,,,,,,,,,,,トマ　ホレト　ルピン,right,13.1818,0,0,0,0,1,,,,,,,,,,,,,,,,,,,,,,,,,,,,,,,,
,,,,,,,,,R_2D0PReFDr5tGyEB,2022-08-05_18h50.38.435,jpn_C02,2022.1.2,MacIntel,60.0024001,,,,,,,,,,,,,CartoonStims/chef_point_burglar_r.jpg,audio/tomahoretolupin.mp3,,,,,,,,,,,,,,,,,,,,,,,,,,,,,,,,,,,,,,0,1,1,5,1,トマ　ホレト　ルピン,,,,,,,,,,,,,,,,,,,,,,,,,,
,,,,,,,,,R_2D0PReFDr5tGyEB,2022-08-05_18h50.38.435,jpn_C02,2022.1.2,MacIntel,60.0024001,,,,,,,,,,,,,,,,,,,,,,,,,,,,,,,,,,,,,,,,,,,,パツ　ムク　ピポ,right,14.2725,0,0,0,0,1,,,,,,,,,,,,,,,,,,,,,,,,,,,,,,,,
,,,,,,,,,R_2D0PReFDr5tGyEB,2022-08-05_18h50.38.435,jpn_C02,2022.1.2,MacIntel,60.0024001,,,,,,,,,,,,,CartoonStims/cowboy_shoot_doctor_r.jpg,audio/patsumukupipo.mp3,,,,,,,,,,,,,,,,,,,,,,,,,,,,,,,,,,,,,,0,2,2,8,1,パツ　ムク　ピポ,,,,,,,,,,,,,,,,,,,,,,,,,,
,,,,,,,,,R_2D0PReFDr5tGyEB,2022-08-05_18h50.38.435,jpn_C02,2022.1.2,MacIntel,60.0024001,,,,,,,,,,,,,,,,,,,,,,,,,,,,,,,,,,,,,,,,,,,,トマ　シド　ドキ,right,14.0976,0,0,0,0,1,,,,,,,,,,,,,,,,,,,,,,,,,,,,,,,,
,,,,,,,,,R_2D0PReFDr5tGyEB,2022-08-05_18h50.38.435,jpn_C02,2022.1.2,MacIntel,60.0024001,,,,,,,,,,,,,CartoonStims/artist_point_boxer_r.jpg,audio/tomasidodoki.mp3,,,,,,,,,,,,,,,,,,,,,,,,,,,,,,,,,,,,,,0,3,3,3,1,トマ　シド　ドキ,,,,,,,,,,,,,,,,,,,,,,,,,,
,,,,,,,,,R_2D0PReFDr5tGyEB,2022-08-05_18h50.38.435,jpn_C02,2022.1.2,MacIntel,60.0024001,,,,,,,,,,,,,,,,,,,,,,,,,,,,,,,,,,,,,,,,,,,,パツ　ルピン　ホレト,right,10.7508,0,0,0,0,1,,,,,,,,,,,,,,,,,,,,,,,,,,,,,,,,
,,,,,,,,,R_2D0PReFDr5tGyEB,2022-08-05_18h50.38.435,jpn_C02,2022.1.2,MacIntel,60.0024001,,,,,,,,,,,,,CartoonStims/burglar_shoot_chef_r.jpg,audio/patsulupinhoreto.mp3,,,,,,,,,,,,,,,,,,,,,,,,,,,,,,,,,,,,,,0,4,4,6,1,パツ　ルピン　ホレト,,,,,,,,,,,,,,,,,,,,,,,,,,
,,,,,,,,,R_2D0PReFDr5tGyEB,2022-08-05_18h50.38.435,jpn_C02,2022.1.2,MacIntel,60.0024001,,,,,,,,,,,,,,,,,,,,,,,,,,,,,,,,,,,,,,,,,,,,パツ　ホレト　ムク,right,15.904,0,0,0,0,1,,,,,,,,,,,,,,,,,,,,,,,,,,,,,,,,
,,,,,,,,,R_2D0PReFDr5tGyEB,2022-08-05_18h50.38.435,jpn_C02,2022.1.2,MacIntel,60.0024001,,,,,,,,,,,,,CartoonStims/chef_shoot_cowboy_r.jpg,audio/patsuhoretomuku.mp3,,,,,,,,,,,,,,,,,,,,,,,,,,,,,,,,,,,,,,0,5,5,7,1,パツ　ホレト　ムク,,,,,,,,,,,,,,,,,,,,,,,,,,
,,,,,,,,,R_2D0PReFDr5tGyEB,2022-08-05_18h50.38.435,jpn_C02,2022.1.2,MacIntel,60.0024001,,,,,,,,,,,,,,,,,,,,,,,,,,,,,,,,,,,,,,,,,,,,？？　ドキ　ムク,right,46.5343,0,0,0,0,1,,,,,,,,,,,,,,,,,,,,,,,,,,,,,,,,
,,,,,,,,,R_2D0PReFDr5tGyEB,2022-08-05_18h50.38.435,jpn_C02,2022.1.2,MacIntel,60.0024001,,,,,,,,,,,,,CartoonStims/boxer_kick_cowboy_r.jpg,audio/serudokimuku.mp3,,,,,,,,,,,,,,,,,,,,,,,,,,,,,,,,,,,,,,0,6,6,2,1,セル　ドキ　ムク,,,,,,,,,,,,,,,,,,,,,,,,,,
,,,,,,,,,R_2D0PReFDr5tGyEB,2022-08-05_18h50.38.435,jpn_C02,2022.1.2,MacIntel,60.0024001,,,,,,,,,,,,,,,,,,,,,,,,,,,,,,,,,,,,,,,,,,,,プミ　ピポ　ドキ,right,15.1064,0,0,0,0,1,,,,,,,,,,,,,,,,,,,,,,,,,,,,,,,,
,,,,,,,,,R_2D0PReFDr5tGyEB,2022-08-05_18h50.38.435,jpn_C02,2022.1.2,MacIntel,60.0024001,,,,,,,,,,,,,CartoonStims/doctor_punch_boxer_r.jpg,audio/pumipipodoki.mp3,,,,,,,,,,,,,,,,,,,,,,,,,,,,,,,,,,,,,,0,7,7,10,1,プミ　ピポ　ドキ,,,,,,,,,,,,,,,,,,,,,,,,,,
,,,,,,,,,R_2D0PReFDr5tGyEB,2022-08-05_18h50.38.435,jpn_C02,2022.1.2,MacIntel,60.0024001,,,,,,,,,,,,,,,,,,,,,,,,,,,,,,,,,,,,,,,,,,,,プミ　ドキ　シド,right,7.0829,0,0,0,0,1,,,,,,,,,,,,,,,,,,,,,,,,,,,,,,,,
,,,,,,,,,R_2D0PReFDr5tGyEB,2022-08-05_18h50.38.435,jpn_C02,2022.1.2,MacIntel,60.0024001,,,,,,,,,,,,,CartoonStims/boxer_punch_artist_r.jpg,audio/pumidokisido.mp3,,,,,,,,,,,,,,,,,,,,,,,,,,,,,,,,,,,,,,0,8,8,11,1,プミ　ドキ　シド,,,,,,,,,,,,,,,,,,,,,,,,,,
,,,,,,,,,R_2D0PReFDr5tGyEB,2022-08-05_18h50.38.435,jpn_C02,2022.1.2,MacIntel,60.0024001,,,,,,,,,,,,,,,,,,,,,,,,,,,,,,,,,,,,,,,,,,,,トマ　ルピン　シド,right,9.5642,0,0,0,0,1,,,,,,,,,,,,,,,,,,,,,,,,,,,,,,,,
,,,,,,,,,R_2D0PReFDr5tGyEB,2022-08-05_18h50.38.435,jpn_C02,2022.1.2,MacIntel,60.0024001,,,,,,,,,,,,,CartoonStims/burglar_point_artist_r.jpg,audio/tomalupinsido.mp3,,,,,,,,,,,,,,,,,,,,,,,,,,,,,,,,,,,,,,0,9,9,4,1,トマ　ルピン　シド,,,,,,,,,,,,,,,,,,,,,,,,,,
,,,,,,,,,R_2D0PReFDr5tGyEB,2022-08-05_18h50.38.435,jpn_C02,2022.1.2,MacIntel,60.0024001,,,,,,,,,,,,,,,,,,,,,,,,,,,,,,,,,,,,,,,,,,,,セル　ピポ　ホレト,right,9.6876,0,0,0,0,1,,,,,,,,,,,,,,,,,,,,,,,,,,,,,,,,
,,,,,,,,,R_2D0PReFDr5tGyEB,2022-08-05_18h50.38.435,jpn_C02,2022.1.2,MacIntel,60.0024001,,,,,,,,,,,,,CartoonStims/doctor_kick_chef_r.jpg,audio/serupipohoreto.mp3,,,,,,,,,,,,,,,,,,,,,,,,,,,,,,,,,,,,,,0,10,10,1,1,セル　ピポ　ホレト,,,,,,,,,,,,,,,,,,,,,,,,,,
,,,,,,,,,R_2D0PReFDr5tGyEB,2022-08-05_18h50.38.435,jpn_C02,2022.1.2,MacIntel,60.0024001,,,,,,,,,,,,,,,,,,,,,,,,,,,,,,,,,,,,,,,,,,,,セル　ムク　ルピン,right,9.1352,0,0,0,0,1,,,,,,,,,,,,,,,,,,,,,,,,,,,,,,,,
,,,,,,,,,R_2D0PReFDr5tGyEB,2022-08-05_18h50.38.435,jpn_C02,2022.1.2,MacIntel,60.0024001,,,,,,,,,,,,,CartoonStims/cowboy_kick_burglar_r.jpg,audio/serumukulupin.mp3,,,,,,,,,,,,,,,,,,,,,,,,,,,,,,,,,,,,,,0,11,11,0,1,セル　ムク　ルピン,,,,,,,,,,,,,,,,,,,,,,,,,,
,,,,,,,,,R_2D0PReFDr5tGyEB,2022-08-05_18h50.38.435,jpn_C02,2022.1.2,MacIntel,60.0024001,,,,,,,,,,,,,,,,,,,,,,,,,,,,,,,,,,,,,,,,,,,,,,,,,,,,,,,,,,,space,9.5684,0,1,1,1,1,AffExposure.xlsx,"第二のトライアルの学習では、この言語で書かれた文を見ていただきます。引き続き注意して、 聞こえた音を復唱してください。


スペースキーを押してください。",1,AffFCT.xlsx,ここからクイズが始まります。 スクリーンに表示されるテキストに合う画像を選んでください。,AffTest.xlsx,1,次にここまで学んだことをアウトプットしていただきます。 表示される画像を描写していると思う単語を、テキストボックスにタイプしてください。 答えを提出したあとに正しい正解が少しの間画面に写ります。,1,"これで第二のトライアルが終了しました。 ここで休憩をとっていただいても構いません。

休憩が終わりましたら、 スペースキーを押して続きの学習を行いましょう。",,,,,,,,
,,,,,,,,,R_2D0PReFDr5tGyEB,2022-08-05_18h50.38.435,jpn_C02,2022.1.2,MacIntel,60.0024001,space,2.6414,space,7.6799,0,0,0,42,1,プミ　ピク　ムク　ルピン,,,CartoonStims/cowboy_punch_burglar_r_no.jpg,audio/pumipikumukulupin.mp3,,,,,,,,,,,,,,,,,,,,,,,,,,,,,,,,,,,,,,,,,,,,,,,,,,,,,,,,,,,,,,,,,,,,,
,,,,,,,,,R_2D0PReFDr5tGyEB,2022-08-05_18h50.38.435,jpn_C02,2022.1.2,MacIntel,60.0024001,,,space,16.7301,0,1,1,9,1,ピク　セル　ピポ　シド,,,CartoonStims/doctor_kick_artist_r_no.jpg,audio/pikuserupiposido.mp3,,,,,,,,,,,,,,,,,,,,,,,,,,,,,,,,,,,,,,,,,,,,,,,,,,,,,,,,,,,,,,,,,,,,,
,,,,,,,,,R_2D0PReFDr5tGyEB,2022-08-05_18h50.38.435,jpn_C02,2022.1.2,MacIntel,60.0024001,,,space,7.7013,0,2,2,14,1,ピク　トマ　ルピン　ムク,,,CartoonStims/burglar_point_cowboy_r_no.jpg,audio/pikutomalupinmuku.mp3,,,,,,,,,,,,,,,,,,,,,,,,,,,,,,,,,,,,,,,,,,,,,,,,,,,,,,,,,,,,,,,,,,,,,
,,,,,,,,,R_2D0PReFDr5tGyEB,2022-08-05_18h50.38.435,jpn_C02,2022.1.2,MacIntel,60.0024001,,,space,3.2564,0,3,3,20,1,ピク　トマ　ピポ　シド,,,CartoonStims/doctor_point_artist_r_no.jpg,audio/pikutomapiposido.mp3,,,,,,,,,,,,,,,,,,,,,,,,,,,,,,,,,,,,,,,,,,,,,,,,,,,,,,,,,,,,,,,,,,,,,
,,,,,,,,,R_2D0PReFDr5tGyEB,2022-08-05_18h50.38.435,jpn_C02,2022.1.2,MacIntel,60.0024001,,,space,6.7098,0,4,4,45,1,ピク　プミ　ピポ　ムク,,,CartoonStims/doctor_punch_cowboy_r_no.jpg,audio/pikupumipipomuku.mp3,,,,,,,,,,,,,,,,,,,,,,,,,,,,,,,,,,,,,,,,,,,,,,,,,,,,,,,,,,,,,,,,,,,,,
,,,,,,,,,R_2D0PReFDr5tGyEB,2022-08-05_18h50.38.435,jpn_C02,2022.1.2,MacIntel,60.0024001,,,space,23.2767,0,5,5,25,1,パツ　ピク　シド　ピポ,,,CartoonStims/artist_shoot_doctor_r_no.jpg,audio/patsupikusidopipo.mp3,,,,,,,,,,,,,,,,,,,,,,,,,,,,,,,,,,,,,,,,,,,,,,,,,,,,,,,,,,,,,,,,,,,,,
,,,,,,,,,R_2D0PReFDr5tGyEB,2022-08-05_18h50.38.435,jpn_C02,2022.1.2,MacIntel,60.0024001,,,space,6.0622,0,6,6,27,1,パツ　ピク　ルピン　ドキ,,,CartoonStims/burglar_shoot_boxer_r_no.jpg,audio/patsupikulupindoki.mp3,,,,,,,,,,,,,,,,,,,,,,,,,,,,,,,,,,,,,,,,,,,,,,,,,,,,,,,,,,,,,,,,,,,,,
,,,,,,,,,R_2D0PReFDr5tGyEB,2022-08-05_18h50.38.435,jpn_C02,2022.1.2,MacIntel,60.0024001,,,space,4.3661,0,7,7,38,1,ピク　プミ　ルピン　ドキ,,,CartoonStims/burglar_punch_boxer_r_no.jpg,audio/pikupumilupindoki.mp3,,,,,,,,,,,,,,,,,,,,,,,,,,,,,,,,,,,,,,,,,,,,,,,,,,,,,,,,,,,,,,,,,,,,,
,,,,,,,,,R_2D0PReFDr5tGyEB,2022-08-05_18h50.38.435,jpn_C02,2022.1.2,MacIntel,60.0024001,,,space,10.9483,0,8,8,37,1,ピク　プミ　シド　ドキ,,,CartoonStims/artist_punch_boxer_r_no.jpg,audio/pikupumisidodoki.mp3,,,,,,,,,,,,,,,,,,,,,,,,,,,,,,,,,,,,,,,,,,,,,,,,,,,,,,,,,,,,,,,,,,,,,
,,,,,,,,,R_2D0PReFDr5tGyEB,2022-08-05_18h50.38.435,jpn_C02,2022.1.2,MacIntel,60.0024001,,,space,21.1756,0,9,9,4,1,セル　ピク　ホレト　ムク,,,CartoonStims/chef_kick_cowboy_r_no.jpg,audio/serupikuhoretomuku.mp3,,,,,,,,,,,,,,,,,,,,,,,,,,,,,,,,,,,,,,,,,,,,,,,,,,,,,,,,,,,,,,,,,,,,,
,,,,,,,,,R_2D0PReFDr5tGyEB,2022-08-05_18h50.38.435,jpn_C02,2022.1.2,MacIntel,60.0024001,,,space,14.967,0,10,10,41,1,ピク　プミ　ホレト　ルピン,,,CartoonStims/chef_punch_burglar_r_no.jpg,audio/pikupumihoretolupin.mp3,,,,,,,,,,,,,,,,,,,,,,,,,,,,,,,,,,,,,,,,,,,,,,,,,,,,,,,,,,,,,,,,,,,,,
,,,,,,,,,R_2D0PReFDr5tGyEB,2022-08-05_18h50.38.435,jpn_C02,2022.1.2,MacIntel,60.0024001,,,space,5.2324,0,11,11,47,1,ピク　プミ　ドキ　ピポ,,,CartoonStims/boxer_punch_doctor_r_no.jpg,audio/pikupumidokipipo.mp3,,,,,,,,,,,,,,,,,,,,,,,,,,,,,,,,,,,,,,,,,,,,,,,,,,,,,,,,,,,,,,,,,,,,,
,,,,,,,,,R_2D0PReFDr5tGyEB,2022-08-05_18h50.38.435,jpn_C02,2022.1.2,MacIntel,60.0024001,,,space,4.536,0,12,12,22,1,ピク　トマ　ドキ　ルピン,,,CartoonStims/boxer_point_burglar_r_no.jpg,audio/pikutomadokilupin.mp3,,,,,,,,,,,,,,,,,,,,,,,,,,,,,,,,,,,,,,,,,,,,,,,,,,,,,,,,,,,,,,,,,,,,,
,,,,,,,,,R_2D0PReFDr5tGyEB,2022-08-05_18h50.38.435,jpn_C02,2022.1.2,MacIntel,60.0024001,,,space,7.7143,0,13,13,3,1,ピク　セル　ルピン　ムク,,,CartoonStims/burglar_kick_cowboy_r_no.jpg,audio/pikuserulupinmuku.mp3,,,,,,,,,,,,,,,,,,,,,,,,,,,,,,,,,,,,,,,,,,,,,,,,,,,,,,,,,,,,,,,,,,,,,
,,,,,,,,,R_2D0PReFDr5tGyEB,2022-08-05_18h50.38.435,jpn_C02,2022.1.2,MacIntel,60.0024001,,,space,9.2287,0,14,14,29,1,パツ　ピク　ホレト　シド,,,CartoonStims/chef_shoot_artist_r_no.jpg,audio/patsupikuhoretosido.mp3,,,,,,,,,,,,,,,,,,,,,,,,,,,,,,,,,,,,,,,,,,,,,,,,,,,,,,,,,,,,,,,,,,,,,
,,,,,,,,,R_2D0PReFDr5tGyEB,2022-08-05_18h50.38.435,jpn_C02,2022.1.2,MacIntel,60.0024001,,,space,8.5035,0,15,15,19,1,トマ　ピク　ムク　シド,,,CartoonStims/cowboy_point_artist_r_no.jpg,audio/tomapikumukusido.mp3,,,,,,,,,,,,,,,,,,,,,,,,,,,,,,,,,,,,,,,,,,,,,,,,,,,,,,,,,,,,,,,,,,,,,
,,,,,,,,,R_2D0PReFDr5tGyEB,2022-08-05_18h50.38.435,jpn_C02,2022.1.2,MacIntel,60.0024001,,,space,10.1072,0,16,16,21,1,ピク　トマ　ピポ　ルピン,,,CartoonStims/doctor_point_burglar_r_no.jpg,audio/pikutomapipolupin.mp3,,,,,,,,,,,,,,,,,,,,,,,,,,,,,,,,,,,,,,,,,,,,,,,,,,,,,,,,,,,,,,,,,,,,,
,,,,,,,,,R_2D0PReFDr5tGyEB,2022-08-05_18h50.38.435,jpn_C02,2022.1.2,MacIntel,60.0024001,,,space,6.3167,0,17,17,2,1,ピク　セル　ルピン　ホレト,,,CartoonStims/burglar_kick_chef_r_no.jpg,audio/pikuserulupinhoreto.mp3,,,,,,,,,,,,,,,,,,,,,,,,,,,,,,,,,,,,,,,,,,,,,,,,,,,,,,,,,,,,,,,,,,,,,
,,,,,,,,,R_2D0PReFDr5tGyEB,2022-08-05_18h50.38.435,jpn_C02,2022.1.2,MacIntel,60.0024001,,,space,7.9149,0,18,18,35,1,ピク　パツ　ドキ　ムク,,,CartoonStims/boxer_shoot_cowboy_r_no.jpg,audio/pikupatsudokimuku.mp3,,,,,,,,,,,,,,,,,,,,,,,,,,,,,,,,,,,,,,,,,,,,,,,,,,,,,,,,,,,,,,,,,,,,,
,,,,,,,,,R_2D0PReFDr5tGyEB,2022-08-05_18h50.38.435,jpn_C02,2022.1.2,MacIntel,60.0024001,,,space,15.3791,0,19,19,46,1,プミ　ピク　ドキ　ムク,,,CartoonStims/boxer_punch_cowboy_r_no.jpg,audio/pumipikudokimuku.mp3,,,,,,,,,,,,,,,,,,,,,,,,,,,,,,,,,,,,,,,,,,,,,,,,,,,,,,,,,,,,,,,,,,,,,
,,,,,,,,,R_2D0PReFDr5tGyEB,2022-08-05_18h50.38.435,jpn_C02,2022.1.2,MacIntel,60.0024001,,,space,14.253,0,20,20,17,1,ピク　トマ　ホレト　ドキ,,,CartoonStims/chef_point_boxer_r_no.jpg,audio/pikutomahoretodoki.mp3,,,,,,,,,,,,,,,,,,,,,,,,,,,,,,,,,,,,,,,,,,,,,,,,,,,,,,,,,,,,,,,,,,,,,
,,,,,,,,,R_2D0PReFDr5tGyEB,2022-08-05_18h50.38.435,jpn_C02,2022.1.2,MacIntel,60.0024001,,,space,8.63,0,21,21,16,1,ピク　トマ　ホレト　ピポ,,,CartoonStims/chef_point_doctor_r_no.jpg,audio/pikutomahoretopipo.mp3,,,,,,,,,,,,,,,,,,,,,,,,,,,,,,,,,,,,,,,,,,,,,,,,,,,,,,,,,,,,,,,,,,,,,
,,,,,,,,,R_2D0PReFDr5tGyEB,2022-08-05_18h50.38.435,jpn_C02,2022.1.2,MacIntel,60.0024001,,,space,7.8031,0,22,22,33,1,ピク　パツ　ピポ　ホレト,,,CartoonStims/doctor_shoot_chef_r_no.jpg,audio/pikupatsupipohoreto.mp3,,,,,,,,,,,,,,,,,,,,,,,,,,,,,,,,,,,,,,,,,,,,,,,,,,,,,,,,,,,,,,,,,,,,,
,,,,,,,,,R_2D0PReFDr5tGyEB,2022-08-05_18h50.38.435,jpn_C02,2022.1.2,MacIntel,60.0024001,,,space,5.2002,0,23,23,30,1,ピク　パツ　ムク　シド,,,CartoonStims/cowboy_shoot_artist_r_no.jpg,audio/pikupatsumukusido.mp3,,,,,,,,,,,,,,,,,,,,,,,,,,,,,,,,,,,,,,,,,,,,,,,,,,,,,,,,,,,,,,,,,,,,,
,,,,,,,,,R_2D0PReFDr5tGyEB,2022-08-05_18h50.38.435,jpn_C02,2022.1.2,MacIntel,60.0024001,,,space,7.0357,0,24,24,8,1,セル　ピク　ピポ　ドキ,,,CartoonStims/doctor_kick_boxer_r_no.jpg,audio/serupikupipodoki.mp3,,,,,,,,,,,,,,,,,,,,,,,,,,,,,,,,,,,,,,,,,,,,,,,,,,,,,,,,,,,,,,,,,,,,,
,,,,,,,,,R_2D0PReFDr5tGyEB,2022-08-05_18h50.38.435,jpn_C02,2022.1.2,MacIntel,60.0024001,,,space,6.2525,0,25,25,6,1,ピク　セル　ムク　ピポ,,,CartoonStims/cowboy_kick_doctor_r_no.jpg,audio/pikuserumukupipo.mp3,,,,,,,,,,,,,,,,,,,,,,,,,,,,,,,,,,,,,,,,,,,,,,,,,,,,,,,,,,,,,,,,,,,,,
,,,,,,,,,R_2D0PReFDr5tGyEB,2022-08-05_18h50.38.435,jpn_C02,2022.1.2,MacIntel,60.0024001,,,space,7.305,0,26,26,32,1,ピク　パツ　ピポ　ルピン,,,CartoonStims/doctor_shoot_burglar_r_no.jpg,audio/pikupatsupipolupin.mp3,,,,,,,,,,,,,,,,,,,,,,,,,,,,,,,,,,,,,,,,,,,,,,,,,,,,,,,,,,,,,,,,,,,,,
,,,,,,,,,R_2D0PReFDr5tGyEB,2022-08-05_18h50.38.435,jpn_C02,2022.1.2,MacIntel,60.0024001,,,space,7.712,0,27,27,28,1,ピク　パツ　ホレト　ドキ,,,CartoonStims/chef_shoot_boxer_r_no.jpg,audio/pikupatsuhoretodoki.mp3,,,,,,,,,,,,,,,,,,,,,,,,,,,,,,,,,,,,,,,,,,,,,,,,,,,,,,,,,,,,,,,,,,,,,
,,,,,,,,,R_2D0PReFDr5tGyEB,2022-08-05_18h50.38.435,jpn_C02,2022.1.2,MacIntel,60.0024001,,,space,11.3092,0,28,28,23,1,トマ　ピク　ドキ　ホレト,,,CartoonStims/boxer_point_chef_r_no.jpg,audio/tomapikudokihoreto.mp3,,,,,,,,,,,,,,,,,,,,,,,,,,,,,,,,,,,,,,,,,,,,,,,,,,,,,,,,,,,,,,,,,,,,,
,,,,,,,,,R_2D0PReFDr5tGyEB,2022-08-05_18h50.38.435,jpn_C02,2022.1.2,MacIntel,60.0024001,,,space,7.9655,0,29,29,43,1,ピク　プミ　ムク　ホレト,,,CartoonStims/cowboy_punch_chef_r_no.jpg,audio/pikupumimukuhoreto.mp3,,,,,,,,,,,,,,,,,,,,,,,,,,,,,,,,,,,,,,,,,,,,,,,,,,,,,,,,,,,,,,,,,,,,,
,,,,,,,,,R_2D0PReFDr5tGyEB,2022-08-05_18h50.38.435,jpn_C02,2022.1.2,MacIntel,60.0024001,,,space,5.3606,0,30,30,24,1,ピク　パツ　シド　ムク,,,CartoonStims/artist_shoot_cowboy_r_no.jpg,audio/pikupatsusidomuku.mp3,,,,,,,,,,,,,,,,,,,,,,,,,,,,,,,,,,,,,,,,,,,,,,,,,,,,,,,,,,,,,,,,,,,,,
,,,,,,,,,R_2D0PReFDr5tGyEB,2022-08-05_18h50.38.435,jpn_C02,2022.1.2,MacIntel,60.0024001,,,space,6.8777,0,31,31,5,1,ピク　セル　ホレト　ピポ,,,CartoonStims/chef_kick_doctor_r_no.jpg,audio/pikuseruhoretopipo.mp3,,,,,,,,,,,,,,,,,,,,,,,,,,,,,,,,,,,,,,,,,,,,,,,,,,,,,,,,,,,,,,,,,,,,,
,,,,,,,,,R_2D0PReFDr5tGyEB,2022-08-05_18h50.38.435,jpn_C02,2022.1.2,MacIntel,60.0024001,,,space,6.306,0,32,32,40,1,ピク　プミ　ホレト　シド,,,CartoonStims/chef_punch_artist_r_no.jpg,audio/pikupumihoretosido.mp3,,,,,,,,,,,,,,,,,,,,,,,,,,,,,,,,,,,,,,,,,,,,,,,,,,,,,,,,,,,,,,,,,,,,,
,,,,,,,,,R_2D0PReFDr5tGyEB,2022-08-05_18h50.38.435,jpn_C02,2022.1.2,MacIntel,60.0024001,,,space,5.6646,0,33,33,39,1,ピク　プミ　ルピン　シド,,,CartoonStims/burglar_punch_artist_r_no.jpg,audio/pikupumilupinsido.mp3,,,,,,,,,,,,,,,,,,,,,,,,,,,,,,,,,,,,,,,,,,,,,,,,,,,,,,,,,,,,,,,,,,,,,
,,,,,,,,,R_2D0PReFDr5tGyEB,2022-08-05_18h50.38.435,jpn_C02,2022.1.2,MacIntel,60.0024001,,,space,6.1958,0,34,34,7,1,ピク　セル　ムク　ドキ,,,CartoonStims/cowboy_kick_boxer_r_no.jpg,audio/pikuserumukudoki.mp3,,,,,,,,,,,,,,,,,,,,,,,,,,,,,,,,,,,,,,,,,,,,,,,,,,,,,,,,,,,,,,,,,,,,,
,,,,,,,,,R_2D0PReFDr5tGyEB,2022-08-05_18h50.38.435,jpn_C02,2022.1.2,MacIntel,60.0024001,,,space,7.4222,0,35,35,0,1,セル　ピク　シド　ルピン,,,CartoonStims/artist_kick_burglar_r_no.jpg,audio/serupikusidolupin.mp3,,,,,,,,,,,,,,,,,,,,,,,,,,,,,,,,,,,,,,,,,,,,,,,,,,,,,,,,,,,,,,,,,,,,,
,,,,,,,,,R_2D0PReFDr5tGyEB,2022-08-05_18h50.38.435,jpn_C02,2022.1.2,MacIntel,60.0024001,,,space,7.1682,0,36,36,18,1,ピク　トマ　ムク　ドキ,,,CartoonStims/cowboy_point_boxer_r_no.jpg,audio/pikutomamukudoki.mp3,,,,,,,,,,,,,,,,,,,,,,,,,,,,,,,,,,,,,,,,,,,,,,,,,,,,,,,,,,,,,,,,,,,,,
,,,,,,,,,R_2D0PReFDr5tGyEB,2022-08-05_18h50.38.435,jpn_C02,2022.1.2,MacIntel,60.0024001,,,space,6.5776,0,37,37,10,1,ピク　セル　ドキ　シド,,,CartoonStims/boxer_kick_artist_r_no.jpg,audio/pikuserudokisido.mp3,,,,,,,,,,,,,,,,,,,,,,,,,,,,,,,,,,,,,,,,,,,,,,,,,,,,,,,,,,,,,,,,,,,,,
,,,,,,,,,R_2D0PReFDr5tGyEB,2022-08-05_18h50.38.435,jpn_C02,2022.1.2,MacIntel,60.0024001,,,space,8.1107,0,38,38,31,1,ピク　パツ　ムク　ルピン,,,CartoonStims/cowboy_shoot_burglar_r_no.jpg,audio/pikupatsumukulupin.mp3,,,,,,,,,,,,,,,,,,,,,,,,,,,,,,,,,,,,,,,,,,,,,,,,,,,,,,,,,,,,,,,,,,,,,
,,,,,,,,,R_2D0PReFDr5tGyEB,2022-08-05_18h50.38.435,jpn_C02,2022.1.2,MacIntel,60.0024001,,,space,11.6872,0,39,39,13,1,ピク　トマ　シド　ムク,,,CartoonStims/artist_point_cowboy_r_no.jpg,audio/pikutomasidomuku.mp3,,,,,,,,,,,,,,,,,,,,,,,,,,,,,,,,,,,,,,,,,,,,,,,,,,,,,,,,,,,,,,,,,,,,,
,,,,,,,,,R_2D0PReFDr5tGyEB,2022-08-05_18h50.38.435,jpn_C02,2022.1.2,MacIntel,60.0024001,,,space,5.6295,0,40,40,34,1,ピク　パツ　ドキ　ホレト,,,CartoonStims/boxer_shoot_chef_r_no.jpg,audio/pikupatsudokihoreto.mp3,,,,,,,,,,,,,,,,,,,,,,,,,,,,,,,,,,,,,,,,,,,,,,,,,,,,,,,,,,,,,,,,,,,,,
,,,,,,,,,R_2D0PReFDr5tGyEB,2022-08-05_18h50.38.435,jpn_C02,2022.1.2,MacIntel,60.0024001,,,space,7.4984,0,41,41,12,1,ピク　トマ　シド　ホレト,,,CartoonStims/artist_point_chef_r_no.jpg,audio/pikutomasidohoreto.mp3,,,,,,,,,,,,,,,,,,,,,,,,,,,,,,,,,,,,,,,,,,,,,,,,,,,,,,,,,,,,,,,,,,,,,
,,,,,,,,,R_2D0PReFDr5tGyEB,2022-08-05_18h50.38.435,jpn_C02,2022.1.2,MacIntel,60.0024001,,,space,6.2103,0,42,42,11,1,ピク　セル　ドキ　ルピン,,,CartoonStims/boxer_kick_burglar_r_no.jpg,audio/pikuserudokilupin.mp3,,,,,,,,,,,,,,,,,,,,,,,,,,,,,,,,,,,,,,,,,,,,,,,,,,,,,,,,,,,,,,,,,,,,,
,,,,,,,,,R_2D0PReFDr5tGyEB,2022-08-05_18h50.38.435,jpn_C02,2022.1.2,MacIntel,60.0024001,,,space,7.2653,0,43,43,15,1,トマ　ピク　ルピン　ピポ,,,CartoonStims/burglar_point_doctor_r_no.jpg,audio/tomapikulupinpipo.mp3,,,,,,,,,,,,,,,,,,,,,,,,,,,,,,,,,,,,,,,,,,,,,,,,,,,,,,,,,,,,,,,,,,,,,
,,,,,,,,,R_2D0PReFDr5tGyEB,2022-08-05_18h50.38.435,jpn_C02,2022.1.2,MacIntel,60.0024001,,,space,7.1979,0,44,44,44,1,プミ　ピク　ピポ　ホレト,,,CartoonStims/doctor_punch_chef_r_no.jpg,audio/pumipikupipohoreto.mp3,,,,,,,,,,,,,,,,,,,,,,,,,,,,,,,,,,,,,,,,,,,,,,,,,,,,,,,,,,,,,,,,,,,,,
,,,,,,,,,R_2D0PReFDr5tGyEB,2022-08-05_18h50.38.435,jpn_C02,2022.1.2,MacIntel,60.0024001,,,space,7.7136,0,45,45,26,1,ピク　パツ　ルピン　ピポ,,,CartoonStims/burglar_shoot_doctor_r_no.jpg,audio/pikupatsulupinpipo.mp3,,,,,,,,,,,,,,,,,,,,,,,,,,,,,,,,,,,,,,,,,,,,,,,,,,,,,,,,,,,,,,,,,,,,,
,,,,,,,,,R_2D0PReFDr5tGyEB,2022-08-05_18h50.38.435,jpn_C02,2022.1.2,MacIntel,60.0024001,,,space,6.3668,0,46,46,1,1,ピク　セル　シド　ホレト,,,CartoonStims/artist_kick_chef_r_no.jpg,audio/pikuserusidohoreto.mp3,,,,,,,,,,,,,,,,,,,,,,,,,,,,,,,,,,,,,,,,,,,,,,,,,,,,,,,,,,,,,,,,,,,,,
,,,,,,,,,R_2D0PReFDr5tGyEB,2022-08-05_18h50.38.435,jpn_C02,2022.1.2,MacIntel,60.0024001,,,space,7.3159,0,47,47,36,1,ピク　プミ　シド　ピポ,,,CartoonStims/artist_punch_doctor_r_no.jpg,audio/pikupumisidopipo.mp3,,,,,,,,,,,,,,,,,,,,,,,,,,,,,,,,,,,,,,,,,,,,,,,,,,,,,,,,,,,,,,,,,,,,,
,,,,,,,,,R_2D0PReFDr5tGyEB,2022-08-05_18h50.38.435,jpn_C02,2022.1.2,MacIntel,60.0024001,,,,,,,,,,,,,,,space,2.3776,left,0,9.0446,,,,,,,,,,,,,,,,,,,,,,,,,,,,,,,,,,,,,,,,,,,,,,,,,,,,,,,,,0,0,0,0,1,,,
,,,,,,,,,R_2D0PReFDr5tGyEB,2022-08-05_18h50.38.435,jpn_C02,2022.1.2,MacIntel,60.0024001,,,,,,,,,,,,,,,,,,,,,,,,,0,0,0,3,1,CartoonStims/chef_kick_artist_r.jpg,セル　ピク　ホレト　シド,CartoonStims/chef_point_artist_r.jpg,right,CartoonStims/chef_point_artist_r.jpg,audio/serupikuhoretosido.mp3,"残念！ こちらが正しい画像です。

否定文は起きていないことを示しているのを思い出してください。",,,,,,,,,,,,,,,,,,,,,,,,,,,,,,,,,,,,,,,,,,,,,,,
,,,,,,,,,R_2D0PReFDr5tGyEB,2022-08-05_18h50.38.435,jpn_C02,2022.1.2,MacIntel,60.0024001,,,,,,,,,,,,,,,,,right,1,7.617,0,0,0,0,1,,,,,,,,,,,,,,,,,,,,,,,,,,,,,,,,,,,,,,,,,,,,,,,,,,,,,,,,,,,
,,,,,,,,,R_2D0PReFDr5tGyEB,2022-08-05_18h50.38.435,jpn_C02,2022.1.2,MacIntel,60.0024001,,,,,,,,,,,,,,,,,,,,,,,,,0,1,1,5,1,CartoonStims/boxer_kick_cowboy_r.jpg,ピク　セル　ドキ　ムク,CartoonStims/boxer_punch_cowboy_r.jpg,right,CartoonStims/boxer_punch_cowboy_r.jpg,audio/pikuserudokimuku.mp3,"残念！ こちらが正しい画像です。

否定文は起きていないことを示しているのを思い出してください。",,,,,,,,,,,,,,,,,,,,,,,,,,,,,,,,,,,,,,,,,,,,,,,
,,,,,,,,,R_2D0PReFDr5tGyEB,2022-08-05_18h50.38.435,jpn_C02,2022.1.2,MacIntel,60.0024001,,,,,,,,,,,,,,,,,left,1,4.0439,,,,,,,,,,,,,,,,,,0,0,0,0,1,,,,,,,,,,,,,,,,,,,,,,,,,,,,,,,,,,,,,,,,,,
,,,,,,,,,R_2D0PReFDr5tGyEB,2022-08-05_18h50.38.435,jpn_C02,2022.1.2,MacIntel,60.0024001,,,,,,,,,,,,,,,,,,,,,,,,,0,2,2,6,1,CartoonStims/artist_shoot_boxer_r.jpg,ピク　トマ　シド　ドキ,CartoonStims/artist_point_boxer_r.jpg,left,CartoonStims/artist_shoot_boxer_r.jpg,audio/pikutomasidodoki.mp3,"残念！ こちらが正しい画像です。

否定文は起きていないことを示しているのを思い出してください。",,,,,,,,,,,,,,,,,,,,,,,,,,,,,,,,,,,,,,,,,,,,,,,
,,,,,,,,,R_2D0PReFDr5tGyEB,2022-08-05_18h50.38.435,jpn_C02,2022.1.2,MacIntel,60.0024001,,,,,,,,,,,,,,,,,right,1,9.8139,0,0,0,0,1,,,,,,,,,,,,,,,,,,,,,,,,,,,,,,,,,,,,,,,,,,,,,,,,,,,,,,,,,,,
,,,,,,,,,R_2D0PReFDr5tGyEB,2022-08-05_18h50.38.435,jpn_C02,2022.1.2,MacIntel,60.0024001,,,,,,,,,,,,,,,,,,,,,,,,,0,3,3,11,1,CartoonStims/chef_shoot_burglar_r.jpg,ピク　パツ　ホレト　ルピン,CartoonStims/chef_kick_burglar_r.jpg,right,CartoonStims/chef_kick_burglar_r.jpg,audio/pikupatsuhoretolupin.mp3,"残念！ こちらが正しい画像です。

否定文は起きていないことを示しているのを思い出してください。",,,,,,,,,,,,,,,,,,,,,,,,,,,,,,,,,,,,,,,,,,,,,,,
,,,,,,,,,R_2D0PReFDr5tGyEB,2022-08-05_18h50.38.435,jpn_C02,2022.1.2,MacIntel,60.0024001,,,,,,,,,,,,,,,,,right,1,4.0942,0,0,0,0,1,,,,,,,,,,,,,,,,,,,,,,,,,,,,,,,,,,,,,,,,,,,,,,,,,,,,,,,,,,,
,,,,,,,,,R_2D0PReFDr5tGyEB,2022-08-05_18h50.38.435,jpn_C02,2022.1.2,MacIntel,60.0024001,,,,,,,,,,,,,,,,,,,,,,,,,0,4,4,7,1,CartoonStims/cowboy_point_chef_r.jpg,トマ　ピク　ムク　ホレト,CartoonStims/cowboy_kick_chef_r.jpg,right,CartoonStims/cowboy_kick_chef_r.jpg,audio/tomapikumukuhoreto.mp3,"残念！ こちらが正しい画像です。

否定文は起きていないことを示しているのを思い出してください。",,,,,,,,,,,,,,,,,,,,,,,,,,,,,,,,,,,,,,,,,,,,,,,
,,,,,,,,,R_2D0PReFDr5tGyEB,2022-08-05_18h50.38.435,jpn_C02,2022.1.2,MacIntel,60.0024001,,,,,,,,,,,,,,,,,left,1,7.5639,,,,,,,,,,,,,,,,,,0,0,0,0,1,,,,,,,,,,,,,,,,,,,,,,,,,,,,,,,,,,,,,,,,,,
,,,,,,,,,R_2D0PReFDr5tGyEB,2022-08-05_18h50.38.435,jpn_C02,2022.1.2,MacIntel,60.0024001,,,,,,,,,,,,,,,,,,,,,,,,,0,5,5,10,1,CartoonStims/doctor_punch_cowboy_r.jpg,パツ　ピク　ピポ　ムク,CartoonStims/doctor_shoot_cowboy_r.jpg,left,CartoonStims/doctor_punch_cowboy_r.jpg,audio/patsupikupipomuku.mp3,"残念！ こちらが正しい画像です。

否定文は起きていないことを示しているのを思い出してください。",,,,,,,,,,,,,,,,,,,,,,,,,,,,,,,,,,,,,,,,,,,,,,,
,,,,,,,,,R_2D0PReFDr5tGyEB,2022-08-05_18h50.38.435,jpn_C02,2022.1.2,MacIntel,60.0024001,,,,,,,,,,,,,,,,,left,1,5.1572,,,,,,,,,,,,,,,,,,0,0,0,0,1,,,,,,,,,,,,,,,,,,,,,,,,,,,,,,,,,,,,,,,,,,
,,,,,,,,,R_2D0PReFDr5tGyEB,2022-08-05_18h50.38.435,jpn_C02,2022.1.2,MacIntel,60.0024001,,,,,,,,,,,,,,,,,,,,,,,,,0,6,6,4,1,CartoonStims/burglar_shoot_doctor_r.jpg,ピク　セル　ルピン　ピポ,CartoonStims/burglar_kick_doctor_r.jpg,left,CartoonStims/burglar_shoot_doctor_r.jpg,audio/pikuserulupinpipo.mp3,"残念！ こちらが正しい画像です。

否定文は起きていないことを示しているのを思い出してください。",,,,,,,,,,,,,,,,,,,,,,,,,,,,,,,,,,,,,,,,,,,,,,,
,,,,,,,,,R_2D0PReFDr5tGyEB,2022-08-05_18h50.38.435,jpn_C02,2022.1.2,MacIntel,60.0024001,,,,,,,,,,,,,,,,,right,1,5.0004,0,0,0,0,1,,,,,,,,,,,,,,,,,,,,,,,,,,,,,,,,,,,,,,,,,,,,,,,,,,,,,,,,,,,
,,,,,,,,,R_2D0PReFDr5tGyEB,2022-08-05_18h50.38.435,jpn_C02,2022.1.2,MacIntel,60.0024001,,,,,,,,,,,,,,,,,,,,,,,,,0,7,7,9,1,CartoonStims/boxer_shoot_doctor_r.jpg,ピク　パツ　ドキ　ピポ,CartoonStims/boxer_point_doctor_r.jpg,right,CartoonStims/boxer_point_doctor_r.jpg,audio/pikupatsudokipipo.mp3,"残念！ こちらが正しい画像です。

否定文は起きていないことを示しているのを思い出してください。",,,,,,,,,,,,,,,,,,,,,,,,,,,,,,,,,,,,,,,,,,,,,,,
,,,,,,,,,R_2D0PReFDr5tGyEB,2022-08-05_18h50.38.435,jpn_C02,2022.1.2,MacIntel,60.0024001,,,,,,,,,,,,,,,,,left,1,3.4309,,,,,,,,,,,,,,,,,,0,0,0,0,1,,,,,,,,,,,,,,,,,,,,,,,,,,,,,,,,,,,,,,,,,,
,,,,,,,,,R_2D0PReFDr5tGyEB,2022-08-05_18h50.38.435,jpn_C02,2022.1.2,MacIntel,60.0024001,,,,,,,,,,,,,,,,,,,,,,,,,0,8,8,0,1,CartoonStims/artist_shoot_burglar_r.jpg,プミ　ピク　シド　ルピン,CartoonStims/artist_punch_burglar_r.jpg,left,CartoonStims/artist_shoot_burglar_r.jpg,audio/pumipikusidolupin.mp3,"残念！ こちらが正しい画像です。

否定文は起きていないことを示しているのを思い出してください。",,,,,,,,,,,,,,,,,,,,,,,,,,,,,,,,,,,,,,,,,,,,,,,
,,,,,,,,,R_2D0PReFDr5tGyEB,2022-08-05_18h50.38.435,jpn_C02,2022.1.2,MacIntel,60.0024001,,,,,,,,,,,,,,,,,right,1,8.5619,0,0,0,0,1,,,,,,,,,,,,,,,,,,,,,,,,,,,,,,,,,,,,,,,,,,,,,,,,,,,,,,,,,,,
,,,,,,,,,R_2D0PReFDr5tGyEB,2022-08-05_18h50.38.435,jpn_C02,2022.1.2,MacIntel,60.0024001,,,,,,,,,,,,,,,,,,,,,,,,,0,9,9,1,1,CartoonStims/chef_punch_cowboy_r.jpg,ピク　プミ　ホレト　ムク,CartoonStims/chef_kick_cowboy_r.jpg,right,CartoonStims/chef_kick_cowboy_r.jpg,audio/pikupumihoretomuku.mp3,"残念！ こちらが正しい画像です。

否定文は起きていないことを示しているのを思い出してください。",,,,,,,,,,,,,,,,,,,,,,,,,,,,,,,,,,,,,,,,,,,,,,,
,,,,,,,,,R_2D0PReFDr5tGyEB,2022-08-05_18h50.38.435,jpn_C02,2022.1.2,MacIntel,60.0024001,,,,,,,,,,,,,,,,,left,1,2.716,,,,,,,,,,,,,,,,,,0,0,0,0,1,,,,,,,,,,,,,,,,,,,,,,,,,,,,,,,,,,,,,,,,,,
,,,,,,,,,R_2D0PReFDr5tGyEB,2022-08-05_18h50.38.435,jpn_C02,2022.1.2,MacIntel,60.0024001,,,,,,,,,,,,,,,,,,,,,,,,,0,10,10,2,1,CartoonStims/doctor_point_boxer_r.jpg,ピク　プミ　ピポ　ドキ,CartoonStims/doctor_punch_boxer_r.jpg,left,CartoonStims/doctor_point_boxer_r.jpg,audio/pikupumipipodoki.mp3,"残念！ こちらが正しい画像です。

否定文は起きていないことを示しているのを思い出してください。",,,,,,,,,,,,,,,,,,,,,,,,,,,,,,,,,,,,,,,,,,,,,,,
,,,,,,,,,R_2D0PReFDr5tGyEB,2022-08-05_18h50.38.435,jpn_C02,2022.1.2,MacIntel,60.0024001,,,,,,,,,,,,,,,,,left,1,5.7803,,,,,,,,,,,,,,,,,,0,0,0,0,1,,,,,,,,,,,,,,,,,,,,,,,,,,,,,,,,,,,,,,,,,,
,,,,,,,,,R_2D0PReFDr5tGyEB,2022-08-05_18h50.38.435,jpn_C02,2022.1.2,MacIntel,60.0024001,,,,,,,,,,,,,,,,,,,,,,,,,0,11,11,8,1,CartoonStims/burglar_punch_artist_r.jpg,ピク　トマ　ルピン　シド,CartoonStims/burglar_point_artist_r.jpg,left,CartoonStims/burglar_punch_artist_r.jpg,audio/pikutomalupinsido.mp3,"残念！ こちらが正しい画像です。

否定文は起きていないことを示しているのを思い出してください。",,,,,,,,,,,,,,,,,,,,,,,,,,,,,,,,,,,,,,,,,,,,,,,
,,,,,,,,,R_2D0PReFDr5tGyEB,2022-08-05_18h50.38.435,jpn_C02,2022.1.2,MacIntel,60.0024001,,,,,,,,,,,,,CartoonStims/artist_kick_boxer_r_no.jpg,,,,,,,,,,,,,,,,,,,,,,,,,,,,,space,36.0754,セル　ピク　シド　ドキ,right,25.5307,,,,,,0,0,0,0,1,,,,,,,,,,,,,,,,,,,,,,,,,ピク　セル　シド　ドキ,セル　ピク　シド　ドキ,1
,,,,,,,,,R_2D0PReFDr5tGyEB,2022-08-05_18h50.38.435,jpn_C02,2022.1.2,MacIntel,60.0024001,,,,,,,,,,,,,CartoonStims/chef_shoot_cowboy_r.jpg,,,,,,,,,,,,,,,,,,,,,,,,,,,,,,,ピク　パツ　ホレト　ムク,right,24.4522,,,,,,0,1,1,31,1,,,,,,,,,,,,,,,,,,,,,,,,,パツ　ホレト　ムク,パツ　ホレト　ムク,0
,,,,,,,,,R_2D0PReFDr5tGyEB,2022-08-05_18h50.38.435,jpn_C02,2022.1.2,MacIntel,60.0024001,,,,,,,,,,,,,CartoonStims/boxer_shoot_burglar_r_no.jpg,,,,,,,,,,,,,,,,,,,,,,,,,,,,,,,パツ　ピク　ドキ　ルピン,right,16.8126,,,,,,0,2,2,17,1,,,,,,,,,,,,,,,,,,,,,,,,,ピク　パツ　ドキ　ルピン,パツ　ピク　ドキ　ルピン,1
,,,,,,,,,R_2D0PReFDr5tGyEB,2022-08-05_18h50.38.435,jpn_C02,2022.1.2,MacIntel,60.0024001,,,,,,,,,,,,,CartoonStims/burglar_point_chef_r_no.jpg,,,,,,,,,,,,,,,,,,,,,,,,,,,,,,,トマ　ピク　ルピン　ホレト,right,22.2139,,,,,,0,3,3,7,1,,,,,,,,,,,,,,,,,,,,,,,,,ピク　トマ　ルピン　ホレト,トマ　ピク　ルピン　ホレト,1
,,,,,,,,,R_2D0PReFDr5tGyEB,2022-08-05_18h50.38.435,jpn_C02,2022.1.2,MacIntel,60.0024001,,,,,,,,,,,,,CartoonStims/boxer_kick_cowboy_r.jpg,,,,,,,,,,,,,,,,,,,,,,,,,,,,,,,セル　ドキ　ムク,right,14.0225,,,,,,0,4,4,26,1,,,,,,,,,,,,,,,,,,,,,,,,,セル　ドキ　ムク,セル　ドキ　ムク,0
,,,,,,,,,R_2D0PReFDr5tGyEB,2022-08-05_18h50.38.435,jpn_C02,2022.1.2,MacIntel,60.0024001,,,,,,,,,,,,,CartoonStims/cowboy_punch_artist_r_no.jpg,,,,,,,,,,,,,,,,,,,,,,,,,,,,,,,プミ　ピク　ムク　シド,right,29.8621,,,,,,0,5,5,21,1,,,,,,,,,,,,,,,,,,,,,,,,,ピク　プミ　ムク　シド,プミ　ピク　ムク　シド,1
,,,,,,,,,R_2D0PReFDr5tGyEB,2022-08-05_18h50.38.435,jpn_C02,2022.1.2,MacIntel,60.0024001,,,,,,,,,,,,,CartoonStims/doctor_kick_cowboy_r_no.jpg,,,,,,,,,,,,,,,,,,,,,,,,,,,,,,,ピク　セル　ピポ　ムク,right,34.2637,,,,,,0,6,6,4,1,,,,,,,,,,,,,,,,,,,,,,,,,ピク　セル　ピポ　ムク,セル　ピク　ピポ　ムク,1
,,,,,,,,,R_2D0PReFDr5tGyEB,2022-08-05_18h50.38.435,jpn_C02,2022.1.2,MacIntel,60.0024001,,,,,,,,,,,,,CartoonStims/cowboy_kick_burglar_r.jpg,,,,,,,,,,,,,,,,,,,,,,,,,,,,,,,セル　ムク　ルピン,right,8.199,,,,,,0,7,7,24,1,,,,,,,,,,,,,,,,,,,,,,,,,セル　ムク　ルピン,セル　ムク　ルピン,0
,,,,,,,,,R_2D0PReFDr5tGyEB,2022-08-05_18h50.38.435,jpn_C02,2022.1.2,MacIntel,60.0024001,,,,,,,,,,,,,CartoonStims/burglar_point_artist_r.jpg,,,,,,,,,,,,,,,,,,,,,,,,,,,,,,,トマ　ルピン　シド,right,11.0014,,,,,,0,8,8,28,1,,,,,,,,,,,,,,,,,,,,,,,,,トマ　ルピン　シド,トマ　ルピン　シド,0
,,,,,,,,,R_2D0PReFDr5tGyEB,2022-08-05_18h50.38.435,jpn_C02,2022.1.2,MacIntel,60.0024001,,,,,,,,,,,,,CartoonStims/burglar_kick_artist_r_no.jpg,,,,,,,,,,,,,,,,,,,,,,,,,,,,,,,ピク　セル　ルピン　シド,right,15.9004,,,,,,0,9,9,1,1,,,,,,,,,,,,,,,,,,,,,,,,,ピク　セル　ルピン　シド,セル　ピク　ルピン　シド,1
,,,,,,,,,R_2D0PReFDr5tGyEB,2022-08-05_18h50.38.435,jpn_C02,2022.1.2,MacIntel,60.0024001,,,,,,,,,,,,,CartoonStims/cowboy_point_doctor_r_no.jpg,,,,,,,,,,,,,,,,,,,,,,,,,,,,,,,ピク　トマ　ムク　ピポ,right,15.8836,,,,,,0,10,10,9,1,,,,,,,,,,,,,,,,,,,,,,,,,ピク　トマ　ムク　ピポ,トマ　ピク　ムク　ピポ,1
,,,,,,,,,R_2D0PReFDr5tGyEB,2022-08-05_18h50.38.435,jpn_C02,2022.1.2,MacIntel,60.0024001,,,,,,,,,,,,,CartoonStims/artist_shoot_chef_r_no.jpg,,,,,,,,,,,,,,,,,,,,,,,,,,,,,,,パツ　ピク　シド　ホレト,right,33.1678,,,,,,0,11,11,12,1,,,,,,,,,,,,,,,,,,,,,,,,,ピク　パツ　シド　ホレト,パツ　ピク　シド　ホレト,1
,,,,,,,,,R_2D0PReFDr5tGyEB,2022-08-05_18h50.38.435,jpn_C02,2022.1.2,MacIntel,60.0024001,,,,,,,,,,,,,CartoonStims/chef_kick_burglar_r_no.jpg,,,,,,,,,,,,,,,,,,,,,,,,,,,,,,,ピク　セル　ホレト　ルピン,right,13.4178,,,,,,0,12,12,2,1,,,,,,,,,,,,,,,,,,,,,,,,,ピク　セル　ホレト　ルピン,セル　ピク　ホレト　ルピン,1
,,,,,,,,,R_2D0PReFDr5tGyEB,2022-08-05_18h50.38.435,jpn_C02,2022.1.2,MacIntel,60.0024001,,,,,,,,,,,,,CartoonStims/artist_punch_cowboy_r_no.jpg,,,,,,,,,,,,,,,,,,,,,,,,,,,,,,,プミ　ピク　シド　ムク,right,21.7638,,,,,,0,13,13,18,1,,,,,,,,,,,,,,,,,,,,,,,,,ピク　プミ　シド　ムク,プミ　ピク　シド　ムク,1
,,,,,,,,,R_2D0PReFDr5tGyEB,2022-08-05_18h50.38.435,jpn_C02,2022.1.2,MacIntel,60.0024001,,,,,,,,,,,,,CartoonStims/cowboy_shoot_boxer_r_no.jpg,,,,,,,,,,,,,,,,,,,,,,,,,,,,,,,パツ　ピク　ムク　ドキ,right,15.5868,,,,,,0,14,14,15,1,,,,,,,,,,,,,,,,,,,,,,,,,ピク　パツ　ムク　ドキ,パツ　ピク　ムク　ドキ,1
,,,,,,,,,R_2D0PReFDr5tGyEB,2022-08-05_18h50.38.435,jpn_C02,2022.1.2,MacIntel,60.0024001,,,,,,,,,,,,,CartoonStims/doctor_shoot_artist_r_no.jpg,,,,,,,,,,,,,,,,,,,,,,,,,,,,,,,ピク　パツ　ピポ　シド,right,25.8668,,,,,,0,15,15,16,1,,,,,,,,,,,,,,,,,,,,,,,,,ピク　パツ　ピポ　シド,パツ　ピク　ピポ　シド,1
,,,,,,,,,R_2D0PReFDr5tGyEB,2022-08-05_18h50.38.435,jpn_C02,2022.1.2,MacIntel,60.0024001,,,,,,,,,,,,,CartoonStims/doctor_point_boxer_r_no.jpg,,,,,,,,,,,,,,,,,,,,,,,,,,,,,,,ピク　トマ　ピポ　ドキ,right,16.9183,,,,,,0,16,16,10,1,,,,,,,,,,,,,,,,,,,,,,,,,ピク　トマ　ピポ　ドキ,トマ　ピク　ピポ　ドキ,1
,,,,,,,,,R_2D0PReFDr5tGyEB,2022-08-05_18h50.38.435,jpn_C02,2022.1.2,MacIntel,60.0024001,,,,,,,,,,,,,CartoonStims/burglar_shoot_chef_r.jpg,,,,,,,,,,,,,,,,,,,,,,,,,,,,,,,パツ　ルピン　ホレト,right,7.9288,,,,,,0,17,17,30,1,,,,,,,,,,,,,,,,,,,,,,,,,パツ　ルピン　ホレト,パツ　ルピン　ホレト,0
,,,,,,,,,R_2D0PReFDr5tGyEB,2022-08-05_18h50.38.435,jpn_C02,2022.1.2,MacIntel,60.0024001,,,,,,,,,,,,,CartoonStims/chef_shoot_doctor_r_no.jpg,,,,,,,,,,,,,,,,,,,,,,,,,,,,,,,パツ　ピク　ホレト　ピポ,right,32.6836,,,,,,0,18,18,14,1,,,,,,,,,,,,,,,,,,,,,,,,,ピク　パツ　ホレト　ピポ,パツ　ピク　ホレト　ピポ,1
,,,,,,,,,R_2D0PReFDr5tGyEB,2022-08-05_18h50.38.435,jpn_C02,2022.1.2,MacIntel,60.0024001,,,,,,,,,,,,,CartoonStims/burglar_shoot_cowboy_r_no.jpg,,,,,,,,,,,,,,,,,,,,,,,,,,,,,,,パツ　ピク　ルピン　ムク,right,18.6958,,,,,,0,19,19,13,1,,,,,,,,,,,,,,,,,,,,,,,,,ピク　パツ　ルピン　ムク,パツ　ピク　ルピン　ムク,1
,,,,,,,,,R_2D0PReFDr5tGyEB,2022-08-05_18h50.38.435,jpn_C02,2022.1.2,MacIntel,60.0024001,,,,,,,,,,,,,CartoonStims/boxer_punch_artist_r.jpg,,,,,,,,,,,,,,,,,,,,,,,,,,,,,,,プミ　ドキ　シド,right,9.1151,,,,,,0,20,20,35,1,,,,,,,,,,,,,,,,,,,,,,,,,プミ　ドキ　シド,プミ　ドキ　シド,0
,,,,,,,,,R_2D0PReFDr5tGyEB,2022-08-05_18h50.38.435,jpn_C02,2022.1.2,MacIntel,60.0024001,,,,,,,,,,,,,CartoonStims/doctor_kick_chef_r.jpg,,,,,,,,,,,,,,,,,,,,,,,,,,,,,,,セル　ピポ　ホレト,right,9.3654,,,,,,0,21,21,25,1,,,,,,,,,,,,,,,,,,,,,,,,,セル　ピポ　ホレト,セル　ピポ　ホレト,0
,,,,,,,,,R_2D0PReFDr5tGyEB,2022-08-05_18h50.38.435,jpn_C02,2022.1.2,MacIntel,60.0024001,,,,,,,,,,,,,CartoonStims/cowboy_kick_chef_r_no.jpg,,,,,,,,,,,,,,,,,,,,,,,,,,,,,,,ピク　セル　ムク　ホレト,right,22.2675,,,,,,0,22,22,3,1,,,,,,,,,,,,,,,,,,,,,,,,,ピク　セル　ムク　ホレト,セル　ピク　ムク　ホレト,1
,,,,,,,,,R_2D0PReFDr5tGyEB,2022-08-05_18h50.38.435,jpn_C02,2022.1.2,MacIntel,60.0024001,,,,,,,,,,,,,CartoonStims/artist_punch_burglar_r.jpg,,,,,,,,,,,,,,,,,,,,,,,,,,,,,,,プミ　シド　ルピン,right,15.7195,,,,,,0,23,23,33,1,,,,,,,,,,,,,,,,,,,,,,,,,プミ　シド　ルピン,プミ　シド　ルピン,0
,,,,,,,,,R_2D0PReFDr5tGyEB,2022-08-05_18h50.38.435,jpn_C02,2022.1.2,MacIntel,60.0024001,,,,,,,,,,,,,CartoonStims/boxer_punch_chef_r_no.jpg,,,,,,,,,,,,,,,,,,,,,,,,,,,,,,,プミ　ピク　ドキ　ホレト,right,14.4773,,,,,,0,24,24,23,1,,,,,,,,,,,,,,,,,,,,,,,,,ピク　プミ　ドキ　ホレト,プミ　ピク　ドキ　ホレト,1
,,,,,,,,,R_2D0PReFDr5tGyEB,2022-08-05_18h50.38.435,jpn_C02,2022.1.2,MacIntel,60.0024001,,,,,,,,,,,,,CartoonStims/doctor_punch_boxer_r.jpg,,,,,,,,,,,,,,,,,,,,,,,,,,,,,,,プミ　ピポ　ドキ,right,31.1009,,,,,,0,25,25,34,1,,,,,,,,,,,,,,,,,,,,,,,,,プミ　ピポ　ドキ,プミ　ピポ　ドキ,0
,,,,,,,,,R_2D0PReFDr5tGyEB,2022-08-05_18h50.38.435,jpn_C02,2022.1.2,MacIntel,60.0024001,,,,,,,,,,,,,CartoonStims/chef_point_burglar_r.jpg,,,,,,,,,,,,,,,,,,,,,,,,,,,,,,,トマ　ホレト　ルピン,right,7.7175,,,,,,0,26,26,29,1,,,,,,,,,,,,,,,,,,,,,,,,,トマ　ホレト　ルピン,トマ　ホレト　ルピン,0
,,,,,,,,,R_2D0PReFDr5tGyEB,2022-08-05_18h50.38.435,jpn_C02,2022.1.2,MacIntel,60.0024001,,,,,,,,,,,,,CartoonStims/artist_point_boxer_r.jpg,,,,,,,,,,,,,,,,,,,,,,,,,,,,,,,トマ　シド　ドキ,right,8.0342,,,,,,0,27,27,27,1,,,,,,,,,,,,,,,,,,,,,,,,,トマ　シド　ドキ,トマ　シド　ドキ,0
,,,,,,,,,R_2D0PReFDr5tGyEB,2022-08-05_18h50.38.435,jpn_C02,2022.1.2,MacIntel,60.0024001,,,,,,,,,,,,,CartoonStims/burglar_punch_doctor_r_no.jpg,,,,,,,,,,,,,,,,,,,,,,,,,,,,,,,ピク　プミ　ルピン　ピポ,right,16.0788,,,,,,0,28,28,19,1,,,,,,,,,,,,,,,,,,,,,,,,,ピク　プミ　ルピン　ピポ,プミ　ピク　ルピン　ピポ,1
,,,,,,,,,R_2D0PReFDr5tGyEB,2022-08-05_18h50.38.435,jpn_C02,2022.1.2,MacIntel,60.0024001,,,,,,,,,,,,,CartoonStims/doctor_punch_burglar_r_no.jpg,,,,,,,,,,,,,,,,,,,,,,,,,,,,,,,ピク　プミ　ピポ　ルピン,right,25.1999,,,,,,0,29,29,22,1,,,,,,,,,,,,,,,,,,,,,,,,,ピク　プミ　ピポ　ルピン,プミ　ピク　ピポ　ルピン,1
,,,,,,,,,R_2D0PReFDr5tGyEB,2022-08-05_18h50.38.435,jpn_C02,2022.1.2,MacIntel,60.0024001,,,,,,,,,,,,,CartoonStims/chef_point_cowboy_r_no.jpg,,,,,,,,,,,,,,,,,,,,,,,,,,,,,,,トマ　ピク　ホレト　ムク,right,18.0502,,,,,,0,30,30,8,1,,,,,,,,,,,,,,,,,,,,,,,,,ピク　トマ　ホレト　ムク,トマ　ピク　ホレト　ムク,1
,,,,,,,,,R_2D0PReFDr5tGyEB,2022-08-05_18h50.38.435,jpn_C02,2022.1.2,MacIntel,60.0024001,,,,,,,,,,,,,CartoonStims/cowboy_shoot_doctor_r.jpg,,,,,,,,,,,,,,,,,,,,,,,,,,,,,,,パツ　ムク　ピポ,right,11.2836,,,,,,0,31,31,32,1,,,,,,,,,,,,,,,,,,,,,,,,,パツ　ムク　ピポ,パツ　ムク　ピポ,0
,,,,,,,,,R_2D0PReFDr5tGyEB,2022-08-05_18h50.38.435,jpn_C02,2022.1.2,MacIntel,60.0024001,,,,,,,,,,,,,CartoonStims/boxer_kick_doctor_r_no.jpg,,,,,,,,,,,,,,,,,,,,,,,,,,,,,,,ピク　セル　ドキ　ピポ,right,12.3692,,,,,,0,32,32,5,1,,,,,,,,,,,,,,,,,,,,,,,,,ピク　セル　ドキ　ピポ,セル　ピク　ドキ　ピポ,1
,,,,,,,,,R_2D0PReFDr5tGyEB,2022-08-05_18h50.38.435,jpn_C02,2022.1.2,MacIntel,60.0024001,,,,,,,,,,,,,CartoonStims/artist_point_burglar_r_no.jpg,,,,,,,,,,,,,,,,,,,,,,,,,,,,,,,ピク　トマ　シド　ルピン,right,23.3045,,,,,,0,33,33,6,1,,,,,,,,,,,,,,,,,,,,,,,,,ピク　トマ　シド　ルピン,トマ　ピク　シド　ルピン,1
,,,,,,,,,R_2D0PReFDr5tGyEB,2022-08-05_18h50.38.435,jpn_C02,2022.1.2,MacIntel,60.0024001,,,,,,,,,,,,,CartoonStims/chef_punch_boxer_r_no.jpg,,,,,,,,,,,,,,,,,,,,,,,,,,,,,,,プミ　ピク　ホレト　ドキ,right,16.1037,,,,,,0,34,34,20,1,,,,,,,,,,,,,,,,,,,,,,,,,ピク　プミ　ホレト　ドキ,プミ　ピク　ホレト　ドキ,1
,,,,,,,,,R_2D0PReFDr5tGyEB,2022-08-05_18h50.38.435,jpn_C02,2022.1.2,MacIntel,60.0024001,,,,,,,,,,,,,CartoonStims/boxer_point_artist_r_no.jpg,,,,,,,,,,,,,,,,,,,,,,,,,,,,,,,トマ　ピク　ドキ　シド,right,14.886,,,,,,0,35,35,11,1,,,,,,,,,,,,,,,,,,,,,,,,,ピク　トマ　ドキ　シド,トマ　ピク　ドキ　シド,1
,,,,,,,,,R_2D0PReFDr5tGyEB,2022-08-05_18h50.38.435,jpn_C02,2022.1.2,MacIntel,60.0024001,,,,,,,,,,,,,,,,,,,,,,,,,,,,,,,,,,,,,,,,,,,,,,,,,,,,,,,,,,,space,2.5508,0,2,2,2,1,NegVCondition.xlsx,"ここではこの言語における否定の文を学習していただきます。引き続き注意して、 聞こえた音を復唱してください。

スペースキーを押してください。",1,NegVFCT.xlsx,ここからクイズが始まります。 スクリーンに表示されるテキストに合うイメージを選んでください。,NegTest.xlsx,1,最後にここまで学んだことをアウトプットしていただきます。 テキストボックスにあるイメージを描写するテキストを入力してください。 このタスクでは、 答え合わせは行いません。,0,これですべての実験が終わりました。 お疲れさまです。 この後はアンケートに答えていただきます。,,,,,,,,