key_resp_instr_a.keys,key_resp_instr_a.rt,key_resp_instr_b.keys,key_resp_instr_b.rt,dummy.thisRepN,dummy.thisTrialN,dummy.thisN,dummy.thisIndex,dummy.ran,participant,date,expName,psychopyVersion,OS,frameRate,key_resp_instr1.keys,key_resp_instr1.rt,key_resp.keys,key_resp.rt,exp_loop.thisRepN,exp_loop.thisTrialN,exp_loop.thisN,exp_loop.thisIndex,exp_loop.ran,Word,English,Flip,Path,Audio,key_resp_instr2.keys,key_resp_instr2.rt,key_resp_fct.keys,key_resp_fct.corr,key_resp_fct.rt,trials.thisRepN,trials.thisTrialN,trials.thisN,trials.thisIndex,trials.ran,fct_loop.thisRepN,fct_loop.thisTrialN,fct_loop.thisN,fct_loop.thisIndex,fct_loop.ran,left_img,word,right_img,correctans,correct_img,audio,incorrect_feedback,trials_2.thisRepN,trials_2.thisTrialN,trials_2.thisN,trials_2.thisIndex,trials_2.ran,trials_3.thisRepN,trials_3.thisTrialN,trials_3.thisN,trials_3.thisIndex,trials_3.ran,trials_4.thisRepN,trials_4.thisTrialN,trials_4.thisN,trials_4.thisIndex,trials_4.ran,key_resp_instr3.keys,key_resp_instr3.rt,textbox.text,key_resp_2.keys,key_resp_2.rt,fb_yn.thisRepN,fb_yn.thisTrialN,fb_yn.thisN,fb_yn.thisIndex,fb_yn.ran,gather_loop.thisRepN,gather_loop.thisTrialN,gather_loop.thisN,gather_loop.thisIndex,gather_loop.ran,Text,Wordbank,key_resp_instr4.keys,key_resp_instr4.rt,master_loop.thisRepN,master_loop.thisTrialN,master_loop.thisN,master_loop.thisIndex,master_loop.ran,exposure_file,instr_1,exp_reps,fct_file,instr_2,gather_file,gather_reps,instr_3,fReps,instr_4,NegVSentence,VNegSentence,NegTF
space,4.0102,space,4.3792,0,0,0,0,1,R_1gSI9W0q1PL5wGB,2022-09-03_10h33.19.381,jpn_C03,2022.1.2,Win32,60.0240096,,,,,,,,,,,,,,,,,,,,,,,,,,,,,,,,,,,,,,,,,,,,,,,,,,,,,,,,,,,,,,,,,,,,,,,,,,,,,,,,,,,,,,,,
,,,,,,,,,R_1gSI9W0q1PL5wGB,2022-09-03_10h33.19.381,jpn_C03,2022.1.2,Win32,60.0240096,space,8.1845,space,3.142,0,0,0,2,1,ホレト,chef,,CartoonStims/chef_r.jpg,audio/horeto.mp3,,,,,,,,,,,,,,,,,,,,,,,,,,,,,,,,,,,,,,,,,,,,,,,,,,,,,,,,,,,,,,,,,,,,,,,,,,
,,,,,,,,,R_1gSI9W0q1PL5wGB,2022-09-03_10h33.19.381,jpn_C03,2022.1.2,Win32,60.0240096,,,space,3.3161,0,1,1,0,1,シド,artist,,CartoonStims/artist_r.jpg,audio/sido.mp3,,,,,,,,,,,,,,,,,,,,,,,,,,,,,,,,,,,,,,,,,,,,,,,,,,,,,,,,,,,,,,,,,,,,,,,,,,
,,,,,,,,,R_1gSI9W0q1PL5wGB,2022-09-03_10h33.19.381,jpn_C03,2022.1.2,Win32,60.0240096,,,space,2.7734,0,2,2,1,1,ルピン,burglar,,CartoonStims/burglar_r.jpg,audio/lupin.mp3,,,,,,,,,,,,,,,,,,,,,,,,,,,,,,,,,,,,,,,,,,,,,,,,,,,,,,,,,,,,,,,,,,,,,,,,,,
,,,,,,,,,R_1gSI9W0q1PL5wGB,2022-09-03_10h33.19.381,jpn_C03,2022.1.2,Win32,60.0240096,,,space,3.5473,0,3,3,5,1,ドキ,boxer,,CartoonStims/boxer_r.jpg,audio/doki.mp3,,,,,,,,,,,,,,,,,,,,,,,,,,,,,,,,,,,,,,,,,,,,,,,,,,,,,,,,,,,,,,,,,,,,,,,,,,
,,,,,,,,,R_1gSI9W0q1PL5wGB,2022-09-03_10h33.19.381,jpn_C03,2022.1.2,Win32,60.0240096,,,space,2.1332,0,4,4,3,1,ムク,cowboy,,CartoonStims/cowboy_r.jpg,audio/muku.mp3,,,,,,,,,,,,,,,,,,,,,,,,,,,,,,,,,,,,,,,,,,,,,,,,,,,,,,,,,,,,,,,,,,,,,,,,,,
,,,,,,,,,R_1gSI9W0q1PL5wGB,2022-09-03_10h33.19.381,jpn_C03,2022.1.2,Win32,60.0240096,,,space,1.463,0,5,5,4,1,ピポ,doctor,,CartoonStims/doctor_r.jpg,audio/pipo.mp3,,,,,,,,,,,,,,,,,,,,,,,,,,,,,,,,,,,,,,,,,,,,,,,,,,,,,,,,,,,,,,,,,,,,,,,,,,
,,,,,,,,,R_1gSI9W0q1PL5wGB,2022-09-03_10h33.19.381,jpn_C03,2022.1.2,Win32,60.0240096,,,space,2.0672,1,0,6,1,1,ルピン,burglar,,CartoonStims/burglar_r.jpg,audio/lupin.mp3,,,,,,,,,,,,,,,,,,,,,,,,,,,,,,,,,,,,,,,,,,,,,,,,,,,,,,,,,,,,,,,,,,,,,,,,,,
,,,,,,,,,R_1gSI9W0q1PL5wGB,2022-09-03_10h33.19.381,jpn_C03,2022.1.2,Win32,60.0240096,,,space,4.0366,1,1,7,3,1,ムク,cowboy,,CartoonStims/cowboy_r.jpg,audio/muku.mp3,,,,,,,,,,,,,,,,,,,,,,,,,,,,,,,,,,,,,,,,,,,,,,,,,,,,,,,,,,,,,,,,,,,,,,,,,,
,,,,,,,,,R_1gSI9W0q1PL5wGB,2022-09-03_10h33.19.381,jpn_C03,2022.1.2,Win32,60.0240096,,,space,1.425,1,2,8,2,1,ホレト,chef,,CartoonStims/chef_r.jpg,audio/horeto.mp3,,,,,,,,,,,,,,,,,,,,,,,,,,,,,,,,,,,,,,,,,,,,,,,,,,,,,,,,,,,,,,,,,,,,,,,,,,
,,,,,,,,,R_1gSI9W0q1PL5wGB,2022-09-03_10h33.19.381,jpn_C03,2022.1.2,Win32,60.0240096,,,space,1.0278,1,3,9,0,1,シド,artist,,CartoonStims/artist_r.jpg,audio/sido.mp3,,,,,,,,,,,,,,,,,,,,,,,,,,,,,,,,,,,,,,,,,,,,,,,,,,,,,,,,,,,,,,,,,,,,,,,,,,
,,,,,,,,,R_1gSI9W0q1PL5wGB,2022-09-03_10h33.19.381,jpn_C03,2022.1.2,Win32,60.0240096,,,space,0.9625,1,4,10,5,1,ドキ,boxer,,CartoonStims/boxer_r.jpg,audio/doki.mp3,,,,,,,,,,,,,,,,,,,,,,,,,,,,,,,,,,,,,,,,,,,,,,,,,,,,,,,,,,,,,,,,,,,,,,,,,,
,,,,,,,,,R_1gSI9W0q1PL5wGB,2022-09-03_10h33.19.381,jpn_C03,2022.1.2,Win32,60.0240096,,,space,1.4138,1,5,11,4,1,ピポ,doctor,,CartoonStims/doctor_r.jpg,audio/pipo.mp3,,,,,,,,,,,,,,,,,,,,,,,,,,,,,,,,,,,,,,,,,,,,,,,,,,,,,,,,,,,,,,,,,,,,,,,,,,
,,,,,,,,,R_1gSI9W0q1PL5wGB,2022-09-03_10h33.19.381,jpn_C03,2022.1.2,Win32,60.0240096,,,space,0.9433,2,0,12,1,1,ルピン,burglar,,CartoonStims/burglar_r.jpg,audio/lupin.mp3,,,,,,,,,,,,,,,,,,,,,,,,,,,,,,,,,,,,,,,,,,,,,,,,,,,,,,,,,,,,,,,,,,,,,,,,,,
,,,,,,,,,R_1gSI9W0q1PL5wGB,2022-09-03_10h33.19.381,jpn_C03,2022.1.2,Win32,60.0240096,,,space,1.458,2,1,13,4,1,ピポ,doctor,,CartoonStims/doctor_r.jpg,audio/pipo.mp3,,,,,,,,,,,,,,,,,,,,,,,,,,,,,,,,,,,,,,,,,,,,,,,,,,,,,,,,,,,,,,,,,,,,,,,,,,
,,,,,,,,,R_1gSI9W0q1PL5wGB,2022-09-03_10h33.19.381,jpn_C03,2022.1.2,Win32,60.0240096,,,space,1.8799,2,2,14,0,1,シド,artist,,CartoonStims/artist_r.jpg,audio/sido.mp3,,,,,,,,,,,,,,,,,,,,,,,,,,,,,,,,,,,,,,,,,,,,,,,,,,,,,,,,,,,,,,,,,,,,,,,,,,
,,,,,,,,,R_1gSI9W0q1PL5wGB,2022-09-03_10h33.19.381,jpn_C03,2022.1.2,Win32,60.0240096,,,space,0.7632,2,3,15,2,1,ホレト,chef,,CartoonStims/chef_r.jpg,audio/horeto.mp3,,,,,,,,,,,,,,,,,,,,,,,,,,,,,,,,,,,,,,,,,,,,,,,,,,,,,,,,,,,,,,,,,,,,,,,,,,
,,,,,,,,,R_1gSI9W0q1PL5wGB,2022-09-03_10h33.19.381,jpn_C03,2022.1.2,Win32,60.0240096,,,space,1.0323,2,4,16,5,1,ドキ,boxer,,CartoonStims/boxer_r.jpg,audio/doki.mp3,,,,,,,,,,,,,,,,,,,,,,,,,,,,,,,,,,,,,,,,,,,,,,,,,,,,,,,,,,,,,,,,,,,,,,,,,,
,,,,,,,,,R_1gSI9W0q1PL5wGB,2022-09-03_10h33.19.381,jpn_C03,2022.1.2,Win32,60.0240096,,,space,1.5744,2,5,17,3,1,ムク,cowboy,,CartoonStims/cowboy_r.jpg,audio/muku.mp3,,,,,,,,,,,,,,,,,,,,,,,,,,,,,,,,,,,,,,,,,,,,,,,,,,,,,,,,,,,,,,,,,,,,,,,,,,
,,,,,,,,,R_1gSI9W0q1PL5wGB,2022-09-03_10h33.19.381,jpn_C03,2022.1.2,Win32,60.0240096,,,,,,,,,,,,,,,space,5.8838,left,1,1.7367,0,0,0,0,1,,,,,,,,,,,,,,,,,,,,,,,,,,,,,,,,,,,,,,,,,,,,,,,,,,,,,,,,,,,,,,,,
,,,,,,,,,R_1gSI9W0q1PL5wGB,2022-09-03_10h33.19.381,jpn_C03,2022.1.2,Win32,60.0240096,,,,,,,,,,,,,,,,,,,,,,,,,0,0,0,4,1,CartoonStims/doctor_r.jpg,ピポ,CartoonStims/boxer_r.jpg,left,CartoonStims/doctor_r.jpg,audio/pipo.mp3,残念！ こちらが正しい画像です。,,,,,,,,,,,,,,,,,,,,,,,,,,,,,,,,,,,,,,,,,,,,,,,,,,,,
,,,,,,,,,R_1gSI9W0q1PL5wGB,2022-09-03_10h33.19.381,jpn_C03,2022.1.2,Win32,60.0240096,,,,,,,,,,,,,,,,,right,1,1.7189,,,,,,,,,,,,,,,,,,0,0,0,0,1,,,,,,,,,,,,,,,,,,,,,,,,,,,,,,,,,,,,,,,,,,,,,,,
,,,,,,,,,R_1gSI9W0q1PL5wGB,2022-09-03_10h33.19.381,jpn_C03,2022.1.2,Win32,60.0240096,,,,,,,,,,,,,,,,,,,,,,,,,0,1,1,8,1,CartoonStims/doctor_r.jpg,ホレト,CartoonStims/chef_r.jpg,right,CartoonStims/chef_r.jpg,audio/horeto.mp3,残念！ こちらが正しい画像です。,,,,,,,,,,,,,,,,,,,,,,,,,,,,,,,,,,,,,,,,,,,,,,,,,,,,
,,,,,,,,,R_1gSI9W0q1PL5wGB,2022-09-03_10h33.19.381,jpn_C03,2022.1.2,Win32,60.0240096,,,,,,,,,,,,,,,,,right,0,0.7304,,,,,,,,,,,,,,,,,,,,,,,0,0,0,0,1,,,,,,,,,,,,,,,,,,,,,,,,,,,,,,,,,,,,,,,,,,
,,,,,,,,,R_1gSI9W0q1PL5wGB,2022-09-03_10h33.19.381,jpn_C03,2022.1.2,Win32,60.0240096,,,,,,,,,,,,,,,,,,,,,,,,,0,2,2,2,1,CartoonStims/chef_r.jpg,ホレト,CartoonStims/cowboy_r.jpg,left,CartoonStims/chef_r.jpg,audio/horeto.mp3,残念！ こちらが正しい画像です。,,,,,,,,,,,,,,,,,,,,,,,,,,,,,,,,,,,,,,,,,,,,,,,,,,,,
,,,,,,,,,R_1gSI9W0q1PL5wGB,2022-09-03_10h33.19.381,jpn_C03,2022.1.2,Win32,60.0240096,,,,,,,,,,,,,,,,,left,0,4.4972,,,,,,,,,,,,,,,,,,,,,,,,,,,,0,0,0,0,1,,,,,,,,,,,,,,,,,,,,,,,,,,,,,,,,,,,,,
,,,,,,,,,R_1gSI9W0q1PL5wGB,2022-09-03_10h33.19.381,jpn_C03,2022.1.2,Win32,60.0240096,,,,,,,,,,,,,,,,,,,,,,,,,0,3,3,10,1,CartoonStims/artist_r.jpg,ピポ,CartoonStims/doctor_r.jpg,right,CartoonStims/doctor_r.jpg,audio/pipo.mp3,残念！ こちらが正しい画像です。,,,,,,,,,,,,,,,,,,,,,,,,,,,,,,,,,,,,,,,,,,,,,,,,,,,,
,,,,,,,,,R_1gSI9W0q1PL5wGB,2022-09-03_10h33.19.381,jpn_C03,2022.1.2,Win32,60.0240096,,,,,,,,,,,,,,,,,left,1,1.3403,0,0,0,0,1,,,,,,,,,,,,,,,,,,,,,,,,,,,,,,,,,,,,,,,,,,,,,,,,,,,,,,,,,,,,,,,,
,,,,,,,,,R_1gSI9W0q1PL5wGB,2022-09-03_10h33.19.381,jpn_C03,2022.1.2,Win32,60.0240096,,,,,,,,,,,,,,,,,,,,,,,,,0,4,4,3,1,CartoonStims/cowboy_r.jpg,ムク,CartoonStims/doctor_r.jpg,left,CartoonStims/cowboy_r.jpg,audio/muku.mp3,残念！ こちらが正しい画像です。,,,,,,,,,,,,,,,,,,,,,,,,,,,,,,,,,,,,,,,,,,,,,,,,,,,,
,,,,,,,,,R_1gSI9W0q1PL5wGB,2022-09-03_10h33.19.381,jpn_C03,2022.1.2,Win32,60.0240096,,,,,,,,,,,,,,,,,right,1,1.6154,,,,,,,,,,,,,,,,,,0,0,0,0,1,,,,,,,,,,,,,,,,,,,,,,,,,,,,,,,,,,,,,,,,,,,,,,,
,,,,,,,,,R_1gSI9W0q1PL5wGB,2022-09-03_10h33.19.381,jpn_C03,2022.1.2,Win32,60.0240096,,,,,,,,,,,,,,,,,,,,,,,,,0,5,5,11,1,CartoonStims/burglar_r.jpg,ドキ,CartoonStims/boxer_r.jpg,right,CartoonStims/boxer_r.jpg,audio/doki.mp3,残念！ こちらが正しい画像です。,,,,,,,,,,,,,,,,,,,,,,,,,,,,,,,,,,,,,,,,,,,,,,,,,,,,
,,,,,,,,,R_1gSI9W0q1PL5wGB,2022-09-03_10h33.19.381,jpn_C03,2022.1.2,Win32,60.0240096,,,,,,,,,,,,,,,,,left,1,0.9205,0,0,0,0,1,,,,,,,,,,,,,,,,,,,,,,,,,,,,,,,,,,,,,,,,,,,,,,,,,,,,,,,,,,,,,,,,
,,,,,,,,,R_1gSI9W0q1PL5wGB,2022-09-03_10h33.19.381,jpn_C03,2022.1.2,Win32,60.0240096,,,,,,,,,,,,,,,,,,,,,,,,,0,6,6,5,1,CartoonStims/boxer_r.jpg,ドキ,CartoonStims/artist_r.jpg,left,CartoonStims/boxer_r.jpg,audio/doki.mp3,残念！ こちらが正しい画像です。,,,,,,,,,,,,,,,,,,,,,,,,,,,,,,,,,,,,,,,,,,,,,,,,,,,,
,,,,,,,,,R_1gSI9W0q1PL5wGB,2022-09-03_10h33.19.381,jpn_C03,2022.1.2,Win32,60.0240096,,,,,,,,,,,,,,,,,right,1,0.6039,,,,,,,,,,,,,,,,,,0,0,0,0,1,,,,,,,,,,,,,,,,,,,,,,,,,,,,,,,,,,,,,,,,,,,,,,,
,,,,,,,,,R_1gSI9W0q1PL5wGB,2022-09-03_10h33.19.381,jpn_C03,2022.1.2,Win32,60.0240096,,,,,,,,,,,,,,,,,,,,,,,,,0,7,7,7,1,CartoonStims/cowboy_r.jpg,ルピン,CartoonStims/burglar_r.jpg,right,CartoonStims/burglar_r.jpg,audio/lupin.mp3,残念！ こちらが正しい画像です。,,,,,,,,,,,,,,,,,,,,,,,,,,,,,,,,,,,,,,,,,,,,,,,,,,,,
,,,,,,,,,R_1gSI9W0q1PL5wGB,2022-09-03_10h33.19.381,jpn_C03,2022.1.2,Win32,60.0240096,,,,,,,,,,,,,,,,,left,1,1.5636,0,0,0,0,1,,,,,,,,,,,,,,,,,,,,,,,,,,,,,,,,,,,,,,,,,,,,,,,,,,,,,,,,,,,,,,,,
,,,,,,,,,R_1gSI9W0q1PL5wGB,2022-09-03_10h33.19.381,jpn_C03,2022.1.2,Win32,60.0240096,,,,,,,,,,,,,,,,,,,,,,,,,0,8,8,0,1,CartoonStims/artist_r.jpg,シド,CartoonStims/burglar_r.jpg,left,CartoonStims/artist_r.jpg,audio/sido.mp3,残念！ こちらが正しい画像です。,,,,,,,,,,,,,,,,,,,,,,,,,,,,,,,,,,,,,,,,,,,,,,,,,,,,
,,,,,,,,,R_1gSI9W0q1PL5wGB,2022-09-03_10h33.19.381,jpn_C03,2022.1.2,Win32,60.0240096,,,,,,,,,,,,,,,,,left,1,0.7604,0,0,0,0,1,,,,,,,,,,,,,,,,,,,,,,,,,,,,,,,,,,,,,,,,,,,,,,,,,,,,,,,,,,,,,,,,
,,,,,,,,,R_1gSI9W0q1PL5wGB,2022-09-03_10h33.19.381,jpn_C03,2022.1.2,Win32,60.0240096,,,,,,,,,,,,,,,,,,,,,,,,,0,9,9,1,1,CartoonStims/burglar_r.jpg,ルピン,CartoonStims/chef_r.jpg,left,CartoonStims/burglar_r.jpg,audio/lupin.mp3,残念！ こちらが正しい画像です。,,,,,,,,,,,,,,,,,,,,,,,,,,,,,,,,,,,,,,,,,,,,,,,,,,,,
,,,,,,,,,R_1gSI9W0q1PL5wGB,2022-09-03_10h33.19.381,jpn_C03,2022.1.2,Win32,60.0240096,,,,,,,,,,,,,,,,,right,1,3.9631,,,,,,,,,,,,,,,,,,0,0,0,0,1,,,,,,,,,,,,,,,,,,,,,,,,,,,,,,,,,,,,,,,,,,,,,,,
,,,,,,,,,R_1gSI9W0q1PL5wGB,2022-09-03_10h33.19.381,jpn_C03,2022.1.2,Win32,60.0240096,,,,,,,,,,,,,,,,,,,,,,,,,0,10,10,6,1,CartoonStims/chef_r.jpg,シド,CartoonStims/artist_r.jpg,right,CartoonStims/artist_r.jpg,audio/sido.mp3,残念！ こちらが正しい画像です。,,,,,,,,,,,,,,,,,,,,,,,,,,,,,,,,,,,,,,,,,,,,,,,,,,,,
,,,,,,,,,R_1gSI9W0q1PL5wGB,2022-09-03_10h33.19.381,jpn_C03,2022.1.2,Win32,60.0240096,,,,,,,,,,,,,,,,,right,1,1.6484,,,,,,,,,,,,,,,,,,0,0,0,0,1,,,,,,,,,,,,,,,,,,,,,,,,,,,,,,,,,,,,,,,,,,,,,,,
,,,,,,,,,R_1gSI9W0q1PL5wGB,2022-09-03_10h33.19.381,jpn_C03,2022.1.2,Win32,60.0240096,,,,,,,,,,,,,,,,,,,,,,,,,0,11,11,9,1,CartoonStims/boxer_r.jpg,ムク,CartoonStims/cowboy_r.jpg,right,CartoonStims/cowboy_r.jpg,audio/muku.mp3,残念！ こちらが正しい画像です。,,,,,,,,,,,,,,,,,,,,,,,,,,,,,,,,,,,,,,,,,,,,,,,,,,,,
,,,,,,,,,R_1gSI9W0q1PL5wGB,2022-09-03_10h33.19.381,jpn_C03,2022.1.2,Win32,60.0240096,,,,,,,,,,,,,,,,,,,,,,,,,,,,,,,,,,,,,,,,,,,,,,,,,,,,space,21.7098,ドキ,right,11.7107,0,0,0,0,1,,,,,,,,,,,,,,,,,,,,,,,,,,,
,,,,,,,,,R_1gSI9W0q1PL5wGB,2022-09-03_10h33.19.381,jpn_C03,2022.1.2,Win32,60.0240096,,,,,,,,,,,,,CartoonStims/boxer_r.jpg,audio/doki.mp3,,,,,,,,,,,,,,,,,,,,,,,,,,,,,,,,,,,,,,,,,,,,,,,,0,0,0,5,1,ドキ,,,,,,,,,,,,,,,,,,,,,
,,,,,,,,,R_1gSI9W0q1PL5wGB,2022-09-03_10h33.19.381,jpn_C03,2022.1.2,Win32,60.0240096,,,,,,,,,,,,,,,,,,,,,,,,,,,,,,,,,,,,,,,,,,,,,,,,,,,,,,ぴぽ,right,10.6543,0,0,0,0,1,,,,,,,,,,,,,,,,,,,,,,,,,,,
,,,,,,,,,R_1gSI9W0q1PL5wGB,2022-09-03_10h33.19.381,jpn_C03,2022.1.2,Win32,60.0240096,,,,,,,,,,,,,CartoonStims/artist_r.jpg,audio/sido.mp3,,,,,,,,,,,,,,,,,,,,,,,,,,,,,,,,,,,,,,,,,,,,,,,,0,1,1,0,1,シド,,,,,,,,,,,,,,,,,,,,,
,,,,,,,,,R_1gSI9W0q1PL5wGB,2022-09-03_10h33.19.381,jpn_C03,2022.1.2,Win32,60.0240096,,,,,,,,,,,,,,,,,,,,,,,,,,,,,,,,,,,,,,,,,,,,,,,,,,,,,,ルピン,right,8.0583,0,0,0,0,1,,,,,,,,,,,,,,,,,,,,,,,,,,,
,,,,,,,,,R_1gSI9W0q1PL5wGB,2022-09-03_10h33.19.381,jpn_C03,2022.1.2,Win32,60.0240096,,,,,,,,,,,,,CartoonStims/burglar_r.jpg,audio/lupin.mp3,,,,,,,,,,,,,,,,,,,,,,,,,,,,,,,,,,,,,,,,,,,,,,,,0,2,2,1,1,ルピン,,,,,,,,,,,,,,,,,,,,,
,,,,,,,,,R_1gSI9W0q1PL5wGB,2022-09-03_10h33.19.381,jpn_C03,2022.1.2,Win32,60.0240096,,,,,,,,,,,,,,,,,,,,,,,,,,,,,,,,,,,,,,,,,,,,,,,,,,,,,,シド,right,9.0032,0,0,0,0,1,,,,,,,,,,,,,,,,,,,,,,,,,,,
,,,,,,,,,R_1gSI9W0q1PL5wGB,2022-09-03_10h33.19.381,jpn_C03,2022.1.2,Win32,60.0240096,,,,,,,,,,,,,CartoonStims/doctor_r.jpg,audio/pipo.mp3,,,,,,,,,,,,,,,,,,,,,,,,,,,,,,,,,,,,,,,,,,,,,,,,0,3,3,4,1,ピポ,,,,,,,,,,,,,,,,,,,,,
,,,,,,,,,R_1gSI9W0q1PL5wGB,2022-09-03_10h33.19.381,jpn_C03,2022.1.2,Win32,60.0240096,,,,,,,,,,,,,,,,,,,,,,,,,,,,,,,,,,,,,,,,,,,,,,,,,,,,,,ムク,right,7.9633,0,0,0,0,1,,,,,,,,,,,,,,,,,,,,,,,,,,,
,,,,,,,,,R_1gSI9W0q1PL5wGB,2022-09-03_10h33.19.381,jpn_C03,2022.1.2,Win32,60.0240096,,,,,,,,,,,,,CartoonStims/cowboy_r.jpg,audio/muku.mp3,,,,,,,,,,,,,,,,,,,,,,,,,,,,,,,,,,,,,,,,,,,,,,,,0,4,4,3,1,ムク,,,,,,,,,,,,,,,,,,,,,
,,,,,,,,,R_1gSI9W0q1PL5wGB,2022-09-03_10h33.19.381,jpn_C03,2022.1.2,Win32,60.0240096,,,,,,,,,,,,,,,,,,,,,,,,,,,,,,,,,,,,,,,,,,,,,,,,,,,,,,シド,right,4.882,0,0,0,0,1,,,,,,,,,,,,,,,,,,,,,,,,,,,
,,,,,,,,,R_1gSI9W0q1PL5wGB,2022-09-03_10h33.19.381,jpn_C03,2022.1.2,Win32,60.0240096,,,,,,,,,,,,,CartoonStims/chef_r.jpg,audio/horeto.mp3,,,,,,,,,,,,,,,,,,,,,,,,,,,,,,,,,,,,,,,,,,,,,,,,0,5,5,2,1,ホレト,,,,,,,,,,,,,,,,,,,,,
,,,,,,,,,R_1gSI9W0q1PL5wGB,2022-09-03_10h33.19.381,jpn_C03,2022.1.2,Win32,60.0240096,,,,,,,,,,,,,,,,,,,,,,,,,,,,,,,,,,,,,,,,,,,,,,,,,,,,,,ムク,right,3.2322,0,0,0,0,1,,,,,,,,,,,,,,,,,,,,,,,,,,,
,,,,,,,,,R_1gSI9W0q1PL5wGB,2022-09-03_10h33.19.381,jpn_C03,2022.1.2,Win32,60.0240096,,,,,,,,,,,,,CartoonStims/cowboy_r.jpg,audio/muku.mp3,,,,,,,,,,,,,,,,,,,,,,,,,,,,,,,,,,,,,,,,,,,,,,,,1,0,6,3,1,ムク,,,,,,,,,,,,,,,,,,,,,
,,,,,,,,,R_1gSI9W0q1PL5wGB,2022-09-03_10h33.19.381,jpn_C03,2022.1.2,Win32,60.0240096,,,,,,,,,,,,,,,,,,,,,,,,,,,,,,,,,,,,,,,,,,,,,,,,,,,,,,ピポ,right,14.7618,0,0,0,0,1,,,,,,,,,,,,,,,,,,,,,,,,,,,
,,,,,,,,,R_1gSI9W0q1PL5wGB,2022-09-03_10h33.19.381,jpn_C03,2022.1.2,Win32,60.0240096,,,,,,,,,,,,,CartoonStims/doctor_r.jpg,audio/pipo.mp3,,,,,,,,,,,,,,,,,,,,,,,,,,,,,,,,,,,,,,,,,,,,,,,,1,1,7,4,1,ピポ,,,,,,,,,,,,,,,,,,,,,
,,,,,,,,,R_1gSI9W0q1PL5wGB,2022-09-03_10h33.19.381,jpn_C03,2022.1.2,Win32,60.0240096,,,,,,,,,,,,,,,,,,,,,,,,,,,,,,,,,,,,,,,,,,,,,,,,,,,,,,ドキ,right,3.5414,0,0,0,0,1,,,,,,,,,,,,,,,,,,,,,,,,,,,
,,,,,,,,,R_1gSI9W0q1PL5wGB,2022-09-03_10h33.19.381,jpn_C03,2022.1.2,Win32,60.0240096,,,,,,,,,,,,,CartoonStims/boxer_r.jpg,audio/doki.mp3,,,,,,,,,,,,,,,,,,,,,,,,,,,,,,,,,,,,,,,,,,,,,,,,1,2,8,5,1,ドキ,,,,,,,,,,,,,,,,,,,,,
,,,,,,,,,R_1gSI9W0q1PL5wGB,2022-09-03_10h33.19.381,jpn_C03,2022.1.2,Win32,60.0240096,,,,,,,,,,,,,,,,,,,,,,,,,,,,,,,,,,,,,,,,,,,,,,,,,,,,,,ルピン,right,7.815,0,0,0,0,1,,,,,,,,,,,,,,,,,,,,,,,,,,,
,,,,,,,,,R_1gSI9W0q1PL5wGB,2022-09-03_10h33.19.381,jpn_C03,2022.1.2,Win32,60.0240096,,,,,,,,,,,,,CartoonStims/burglar_r.jpg,audio/lupin.mp3,,,,,,,,,,,,,,,,,,,,,,,,,,,,,,,,,,,,,,,,,,,,,,,,1,3,9,1,1,ルピン,,,,,,,,,,,,,,,,,,,,,
,,,,,,,,,R_1gSI9W0q1PL5wGB,2022-09-03_10h33.19.381,jpn_C03,2022.1.2,Win32,60.0240096,,,,,,,,,,,,,,,,,,,,,,,,,,,,,,,,,,,,,,,,,,,,,,,,,,,,,,ホレト,right,6.4487,0,0,0,0,1,,,,,,,,,,,,,,,,,,,,,,,,,,,
,,,,,,,,,R_1gSI9W0q1PL5wGB,2022-09-03_10h33.19.381,jpn_C03,2022.1.2,Win32,60.0240096,,,,,,,,,,,,,CartoonStims/chef_r.jpg,audio/horeto.mp3,,,,,,,,,,,,,,,,,,,,,,,,,,,,,,,,,,,,,,,,,,,,,,,,1,4,10,2,1,ホレト,,,,,,,,,,,,,,,,,,,,,
,,,,,,,,,R_1gSI9W0q1PL5wGB,2022-09-03_10h33.19.381,jpn_C03,2022.1.2,Win32,60.0240096,,,,,,,,,,,,,,,,,,,,,,,,,,,,,,,,,,,,,,,,,,,,,,,,,,,,,,ピポ,right,5.1531,0,0,0,0,1,,,,,,,,,,,,,,,,,,,,,,,,,,,
,,,,,,,,,R_1gSI9W0q1PL5wGB,2022-09-03_10h33.19.381,jpn_C03,2022.1.2,Win32,60.0240096,,,,,,,,,,,,,CartoonStims/artist_r.jpg,audio/sido.mp3,,,,,,,,,,,,,,,,,,,,,,,,,,,,,,,,,,,,,,,,,,,,,,,,1,5,11,0,1,シド,,,,,,,,,,,,,,,,,,,,,
,,,,,,,,,R_1gSI9W0q1PL5wGB,2022-09-03_10h33.19.381,jpn_C03,2022.1.2,Win32,60.0240096,,,,,,,,,,,,,,,,,,,,,,,,,,,,,,,,,,,,,,,,,,,,,,,,,,,,,,,,,,,,,,,,,,,,,space,4.0447,0,0,0,0,1,NounExposure.xlsx,"最初のトライアルでは、 画像が表示され、 その画像の下に単語が出てきます。 またこの単語の音も聞くことができます。 この音を大きな声で復唱してください。 そしてこの画像がどのような単語を示しているのか, 考えてみてください。 その後、 続きのボタンを押すと次の単語の学習が始まります。

スペースキーを押して、学習を始めましょう。",3,NounFCT.xlsx,ここから語彙のクイズが始まります。スクリーンに表示される単語に合う画像をキーボードの右と左の矢印キーを使って選択してください。,NounTest.xlsx,2,次に、これまで学習してきたことをアウトプットしていただきます。 表示される画像を描写していると思う単語を、テキストボックスにタイプしてください。,1,"ここまでが最初のトライアルです。ここで休憩をとっても構いません。

休憩が済みましたら、スペースキーを押して続きを始めましょう。",,,
,,,,,,,,,R_1gSI9W0q1PL5wGB,2022-09-03_10h33.19.381,jpn_C03,2022.1.2,Win32,60.0240096,space,6.0933,space,16.9136,0,0,0,34,1,パツ　ドキ　ホレト,,,CartoonStims/boxer_shoot_chef_r.jpg,audio/patsudokihoreto.mp3,,,,,,,,,,,,,,,,,,,,,,,,,,,,,,,,,,,,,,,,,,,,,,,,,,,,,,,,,,,,,,,,,,,,,,,,,,
,,,,,,,,,R_1gSI9W0q1PL5wGB,2022-09-03_10h33.19.381,jpn_C03,2022.1.2,Win32,60.0240096,,,space,12.2593,0,1,1,30,1,パツ　ムク　シド,,,CartoonStims/cowboy_shoot_artist_r.jpg,audio/patsumukusido.mp3,,,,,,,,,,,,,,,,,,,,,,,,,,,,,,,,,,,,,,,,,,,,,,,,,,,,,,,,,,,,,,,,,,,,,,,,,,
,,,,,,,,,R_1gSI9W0q1PL5wGB,2022-09-03_10h33.19.381,jpn_C03,2022.1.2,Win32,60.0240096,,,space,7.9389,0,2,2,46,1,プミ　ドキ　ムク,,,CartoonStims/boxer_punch_cowboy_r.jpg,audio/pumidokimuku.mp3,,,,,,,,,,,,,,,,,,,,,,,,,,,,,,,,,,,,,,,,,,,,,,,,,,,,,,,,,,,,,,,,,,,,,,,,,,
,,,,,,,,,R_1gSI9W0q1PL5wGB,2022-09-03_10h33.19.381,jpn_C03,2022.1.2,Win32,60.0240096,,,space,2.9126,0,3,3,27,1,パツ　ルピン　ドキ,,,CartoonStims/burglar_shoot_boxer_r.jpg,audio/patsulupindoki.mp3,,,,,,,,,,,,,,,,,,,,,,,,,,,,,,,,,,,,,,,,,,,,,,,,,,,,,,,,,,,,,,,,,,,,,,,,,,
,,,,,,,,,R_1gSI9W0q1PL5wGB,2022-09-03_10h33.19.381,jpn_C03,2022.1.2,Win32,60.0240096,,,space,5.938,0,4,4,29,1,パツ　ホレト　シド,,,CartoonStims/chef_shoot_artist_r.jpg,audio/patsuhoretosido.mp3,,,,,,,,,,,,,,,,,,,,,,,,,,,,,,,,,,,,,,,,,,,,,,,,,,,,,,,,,,,,,,,,,,,,,,,,,,
,,,,,,,,,R_1gSI9W0q1PL5wGB,2022-09-03_10h33.19.381,jpn_C03,2022.1.2,Win32,60.0240096,,,space,7.1679,0,5,5,0,1,セル　シド　ルピン,,,CartoonStims/artist_kick_burglar_r.jpg,audio/serusidolupin.mp3,,,,,,,,,,,,,,,,,,,,,,,,,,,,,,,,,,,,,,,,,,,,,,,,,,,,,,,,,,,,,,,,,,,,,,,,,,
,,,,,,,,,R_1gSI9W0q1PL5wGB,2022-09-03_10h33.19.381,jpn_C03,2022.1.2,Win32,60.0240096,,,space,4.6635,0,6,6,18,1,トマ　ムク　ドキ,,,CartoonStims/cowboy_point_boxer_r.jpg,audio/tomamukudoki.mp3,,,,,,,,,,,,,,,,,,,,,,,,,,,,,,,,,,,,,,,,,,,,,,,,,,,,,,,,,,,,,,,,,,,,,,,,,,
,,,,,,,,,R_1gSI9W0q1PL5wGB,2022-09-03_10h33.19.381,jpn_C03,2022.1.2,Win32,60.0240096,,,space,2.4458,0,7,7,45,1,プミ　ピポ　ムク,,,CartoonStims/doctor_punch_cowboy_r.jpg,audio/pumipipomuku.mp3,,,,,,,,,,,,,,,,,,,,,,,,,,,,,,,,,,,,,,,,,,,,,,,,,,,,,,,,,,,,,,,,,,,,,,,,,,
,,,,,,,,,R_1gSI9W0q1PL5wGB,2022-09-03_10h33.19.381,jpn_C03,2022.1.2,Win32,60.0240096,,,space,3.8677,0,8,8,23,1,トマ　ドキ　ホレト,,,CartoonStims/boxer_point_chef_r.jpg,audio/tomadokihoreto.mp3,,,,,,,,,,,,,,,,,,,,,,,,,,,,,,,,,,,,,,,,,,,,,,,,,,,,,,,,,,,,,,,,,,,,,,,,,,
,,,,,,,,,R_1gSI9W0q1PL5wGB,2022-09-03_10h33.19.381,jpn_C03,2022.1.2,Win32,60.0240096,,,space,2.9576,0,9,9,33,1,パツ　ピポ　ホレト,,,CartoonStims/doctor_shoot_chef_r.jpg,audio/patsupipohoreto.mp3,,,,,,,,,,,,,,,,,,,,,,,,,,,,,,,,,,,,,,,,,,,,,,,,,,,,,,,,,,,,,,,,,,,,,,,,,,
,,,,,,,,,R_1gSI9W0q1PL5wGB,2022-09-03_10h33.19.381,jpn_C03,2022.1.2,Win32,60.0240096,,,space,2.219,0,10,10,39,1,プミ　ルピン　シド,,,CartoonStims/burglar_punch_artist_r.jpg,audio/pumilupinsido.mp3,,,,,,,,,,,,,,,,,,,,,,,,,,,,,,,,,,,,,,,,,,,,,,,,,,,,,,,,,,,,,,,,,,,,,,,,,,
,,,,,,,,,R_1gSI9W0q1PL5wGB,2022-09-03_10h33.19.381,jpn_C03,2022.1.2,Win32,60.0240096,,,space,12.8133,0,11,11,15,1,トマ　ルピン　ピポ,,,CartoonStims/burglar_point_doctor_r.jpg,audio/tomalupinpipo.mp3,,,,,,,,,,,,,,,,,,,,,,,,,,,,,,,,,,,,,,,,,,,,,,,,,,,,,,,,,,,,,,,,,,,,,,,,,,
,,,,,,,,,R_1gSI9W0q1PL5wGB,2022-09-03_10h33.19.381,jpn_C03,2022.1.2,Win32,60.0240096,,,space,3.726,0,12,12,14,1,トマ　ルピン　ムク,,,CartoonStims/burglar_point_cowboy_r.jpg,audio/tomalupinmuku.mp3,,,,,,,,,,,,,,,,,,,,,,,,,,,,,,,,,,,,,,,,,,,,,,,,,,,,,,,,,,,,,,,,,,,,,,,,,,
,,,,,,,,,R_1gSI9W0q1PL5wGB,2022-09-03_10h33.19.381,jpn_C03,2022.1.2,Win32,60.0240096,,,space,5.0772,0,13,13,10,1,セル　ドキ　シド,,,CartoonStims/boxer_kick_artist_r.jpg,audio/serudokisido.mp3,,,,,,,,,,,,,,,,,,,,,,,,,,,,,,,,,,,,,,,,,,,,,,,,,,,,,,,,,,,,,,,,,,,,,,,,,,
,,,,,,,,,R_1gSI9W0q1PL5wGB,2022-09-03_10h33.19.381,jpn_C03,2022.1.2,Win32,60.0240096,,,space,1.2837,0,14,14,7,1,セル　ムク　ドキ,,,CartoonStims/cowboy_kick_boxer_r.jpg,audio/serumukudoki.mp3,,,,,,,,,,,,,,,,,,,,,,,,,,,,,,,,,,,,,,,,,,,,,,,,,,,,,,,,,,,,,,,,,,,,,,,,,,
,,,,,,,,,R_1gSI9W0q1PL5wGB,2022-09-03_10h33.19.381,jpn_C03,2022.1.2,Win32,60.0240096,,,space,1.2669,0,15,15,25,1,パツ　シド　ピポ,,,CartoonStims/artist_shoot_doctor_r.jpg,audio/patsusidopipo.mp3,,,,,,,,,,,,,,,,,,,,,,,,,,,,,,,,,,,,,,,,,,,,,,,,,,,,,,,,,,,,,,,,,,,,,,,,,,
,,,,,,,,,R_1gSI9W0q1PL5wGB,2022-09-03_10h33.19.381,jpn_C03,2022.1.2,Win32,60.0240096,,,space,6.3464,0,16,16,37,1,プミ　シド　ドキ,,,CartoonStims/artist_punch_boxer_r.jpg,audio/pumisidodoki.mp3,,,,,,,,,,,,,,,,,,,,,,,,,,,,,,,,,,,,,,,,,,,,,,,,,,,,,,,,,,,,,,,,,,,,,,,,,,
,,,,,,,,,R_1gSI9W0q1PL5wGB,2022-09-03_10h33.19.381,jpn_C03,2022.1.2,Win32,60.0240096,,,space,2.4731,0,17,17,35,1,パツ　ドキ　ムク,,,CartoonStims/boxer_shoot_cowboy_r.jpg,audio/patsudokimuku.mp3,,,,,,,,,,,,,,,,,,,,,,,,,,,,,,,,,,,,,,,,,,,,,,,,,,,,,,,,,,,,,,,,,,,,,,,,,,
,,,,,,,,,R_1gSI9W0q1PL5wGB,2022-09-03_10h33.19.381,jpn_C03,2022.1.2,Win32,60.0240096,,,space,4.0203,0,18,18,43,1,プミ　ムク　ホレト,,,CartoonStims/cowboy_punch_chef_r.jpg,audio/pumimukuhoreto.mp3,,,,,,,,,,,,,,,,,,,,,,,,,,,,,,,,,,,,,,,,,,,,,,,,,,,,,,,,,,,,,,,,,,,,,,,,,,
,,,,,,,,,R_1gSI9W0q1PL5wGB,2022-09-03_10h33.19.381,jpn_C03,2022.1.2,Win32,60.0240096,,,space,1.4727,0,19,19,24,1,パツ　シド　ムク,,,CartoonStims/artist_shoot_cowboy_r.jpg,audio/patsusidomuku.mp3,,,,,,,,,,,,,,,,,,,,,,,,,,,,,,,,,,,,,,,,,,,,,,,,,,,,,,,,,,,,,,,,,,,,,,,,,,
,,,,,,,,,R_1gSI9W0q1PL5wGB,2022-09-03_10h33.19.381,jpn_C03,2022.1.2,Win32,60.0240096,,,space,2.2357,0,20,20,16,1,トマ　ホレト　ピポ,,,CartoonStims/chef_point_doctor_r.jpg,audio/tomahoretopipo.mp3,,,,,,,,,,,,,,,,,,,,,,,,,,,,,,,,,,,,,,,,,,,,,,,,,,,,,,,,,,,,,,,,,,,,,,,,,,
,,,,,,,,,R_1gSI9W0q1PL5wGB,2022-09-03_10h33.19.381,jpn_C03,2022.1.2,Win32,60.0240096,,,space,2.4224,0,21,21,2,1,セル 　ルピン 　ホレト,,,CartoonStims/burglar_kick_chef_r.jpg,audio/serulupinhoreto.mp3,,,,,,,,,,,,,,,,,,,,,,,,,,,,,,,,,,,,,,,,,,,,,,,,,,,,,,,,,,,,,,,,,,,,,,,,,,
,,,,,,,,,R_1gSI9W0q1PL5wGB,2022-09-03_10h33.19.381,jpn_C03,2022.1.2,Win32,60.0240096,,,space,2.0577,0,22,22,42,1,プミ　ムク　ルピン,,,CartoonStims/cowboy_punch_burglar_r.jpg,audio/pumimukulupin.mp3,,,,,,,,,,,,,,,,,,,,,,,,,,,,,,,,,,,,,,,,,,,,,,,,,,,,,,,,,,,,,,,,,,,,,,,,,,
,,,,,,,,,R_1gSI9W0q1PL5wGB,2022-09-03_10h33.19.381,jpn_C03,2022.1.2,Win32,60.0240096,,,space,1.0722,0,23,23,32,1,パツ　ピポ　ルピン,,,CartoonStims/doctor_shoot_burglar_r.jpg,audio/patsupipolupin.mp3,,,,,,,,,,,,,,,,,,,,,,,,,,,,,,,,,,,,,,,,,,,,,,,,,,,,,,,,,,,,,,,,,,,,,,,,,,
,,,,,,,,,R_1gSI9W0q1PL5wGB,2022-09-03_10h33.19.381,jpn_C03,2022.1.2,Win32,60.0240096,,,space,1.1372,0,24,24,44,1,プミ　ピポ　ホレト,,,CartoonStims/doctor_punch_chef_r.jpg,audio/pumipipohoreto.mp3,,,,,,,,,,,,,,,,,,,,,,,,,,,,,,,,,,,,,,,,,,,,,,,,,,,,,,,,,,,,,,,,,,,,,,,,,,
,,,,,,,,,R_1gSI9W0q1PL5wGB,2022-09-03_10h33.19.381,jpn_C03,2022.1.2,Win32,60.0240096,,,space,1.0003,0,25,25,31,1,パツ　ムク　ルピン,,,CartoonStims/cowboy_shoot_burglar_r.jpg,audio/patsumukulupin.mp3,,,,,,,,,,,,,,,,,,,,,,,,,,,,,,,,,,,,,,,,,,,,,,,,,,,,,,,,,,,,,,,,,,,,,,,,,,
,,,,,,,,,R_1gSI9W0q1PL5wGB,2022-09-03_10h33.19.381,jpn_C03,2022.1.2,Win32,60.0240096,,,space,1.1324,0,26,26,38,1,プミ　ルピン　ドキ,,,CartoonStims/burglar_punch_boxer_r.jpg,audio/pumilupindoki.mp3,,,,,,,,,,,,,,,,,,,,,,,,,,,,,,,,,,,,,,,,,,,,,,,,,,,,,,,,,,,,,,,,,,,,,,,,,,
,,,,,,,,,R_1gSI9W0q1PL5wGB,2022-09-03_10h33.19.381,jpn_C03,2022.1.2,Win32,60.0240096,,,space,2.3632,0,27,27,3,1,セル　ルピン　ムク,,,CartoonStims/burglar_kick_cowboy_r.jpg,audio/serulupinmuku.mp3,,,,,,,,,,,,,,,,,,,,,,,,,,,,,,,,,,,,,,,,,,,,,,,,,,,,,,,,,,,,,,,,,,,,,,,,,,
,,,,,,,,,R_1gSI9W0q1PL5wGB,2022-09-03_10h33.19.381,jpn_C03,2022.1.2,Win32,60.0240096,,,space,1.9482,0,28,28,22,1,トマ　ドキ　ルピン,,,CartoonStims/boxer_point_burglar_r.jpg,audio/tomadokilupin.mp3,,,,,,,,,,,,,,,,,,,,,,,,,,,,,,,,,,,,,,,,,,,,,,,,,,,,,,,,,,,,,,,,,,,,,,,,,,
,,,,,,,,,R_1gSI9W0q1PL5wGB,2022-09-03_10h33.19.381,jpn_C03,2022.1.2,Win32,60.0240096,,,space,1.2416,0,29,29,11,1,セル　ドキ　ルピン,,,CartoonStims/boxer_kick_burglar_r.jpg,audio/serudokilupin.mp3,,,,,,,,,,,,,,,,,,,,,,,,,,,,,,,,,,,,,,,,,,,,,,,,,,,,,,,,,,,,,,,,,,,,,,,,,,
,,,,,,,,,R_1gSI9W0q1PL5wGB,2022-09-03_10h33.19.381,jpn_C03,2022.1.2,Win32,60.0240096,,,space,2.0172,0,30,30,21,1,トマ　ピポ　ルピン,,,CartoonStims/doctor_point_burglar_r.jpg,audio/tomapipolupin.mp3,,,,,,,,,,,,,,,,,,,,,,,,,,,,,,,,,,,,,,,,,,,,,,,,,,,,,,,,,,,,,,,,,,,,,,,,,,
,,,,,,,,,R_1gSI9W0q1PL5wGB,2022-09-03_10h33.19.381,jpn_C03,2022.1.2,Win32,60.0240096,,,space,2.3882,0,31,31,1,1,セル 　シド 　ホレト,,,CartoonStims/artist_kick_chef_r.jpg,audio/serusidohoreto.mp3,,,,,,,,,,,,,,,,,,,,,,,,,,,,,,,,,,,,,,,,,,,,,,,,,,,,,,,,,,,,,,,,,,,,,,,,,,
,,,,,,,,,R_1gSI9W0q1PL5wGB,2022-09-03_10h33.19.381,jpn_C03,2022.1.2,Win32,60.0240096,,,space,1.7045,0,32,32,9,1,セル　ピポ　シド,,,CartoonStims/doctor_kick_artist_r.jpg,audio/serupiposido.mp3,,,,,,,,,,,,,,,,,,,,,,,,,,,,,,,,,,,,,,,,,,,,,,,,,,,,,,,,,,,,,,,,,,,,,,,,,,
,,,,,,,,,R_1gSI9W0q1PL5wGB,2022-09-03_10h33.19.381,jpn_C03,2022.1.2,Win32,60.0240096,,,space,3.1093,0,33,33,41,1,プミ　ホレト　ルピン,,,CartoonStims/chef_punch_burglar_r.jpg,audio/pumihoretolupin.mp3,,,,,,,,,,,,,,,,,,,,,,,,,,,,,,,,,,,,,,,,,,,,,,,,,,,,,,,,,,,,,,,,,,,,,,,,,,
,,,,,,,,,R_1gSI9W0q1PL5wGB,2022-09-03_10h33.19.381,jpn_C03,2022.1.2,Win32,60.0240096,,,space,1.5508,0,34,34,8,1,セル　ピポ　ドキ,,,CartoonStims/doctor_kick_boxer_r.jpg,audio/serupipodoki.mp3,,,,,,,,,,,,,,,,,,,,,,,,,,,,,,,,,,,,,,,,,,,,,,,,,,,,,,,,,,,,,,,,,,,,,,,,,,
,,,,,,,,,R_1gSI9W0q1PL5wGB,2022-09-03_10h33.19.381,jpn_C03,2022.1.2,Win32,60.0240096,,,space,0.9973,0,35,35,26,1,パツ　ルピン　ピポ,,,CartoonStims/burglar_shoot_doctor_r.jpg,audio/patsulupinpipo.mp3,,,,,,,,,,,,,,,,,,,,,,,,,,,,,,,,,,,,,,,,,,,,,,,,,,,,,,,,,,,,,,,,,,,,,,,,,,
,,,,,,,,,R_1gSI9W0q1PL5wGB,2022-09-03_10h33.19.381,jpn_C03,2022.1.2,Win32,60.0240096,,,space,0.9655,0,36,36,4,1,セル　ホレト　ムク,,,CartoonStims/chef_kick_cowboy_r.jpg,audio/seruhoretomuku.mp3,,,,,,,,,,,,,,,,,,,,,,,,,,,,,,,,,,,,,,,,,,,,,,,,,,,,,,,,,,,,,,,,,,,,,,,,,,
,,,,,,,,,R_1gSI9W0q1PL5wGB,2022-09-03_10h33.19.381,jpn_C03,2022.1.2,Win32,60.0240096,,,space,0.9914,0,37,37,12,1,トマ　シド　ホレト,,,CartoonStims/artist_point_chef_r.jpg,audio/tomasidohoreto.mp3,,,,,,,,,,,,,,,,,,,,,,,,,,,,,,,,,,,,,,,,,,,,,,,,,,,,,,,,,,,,,,,,,,,,,,,,,,
,,,,,,,,,R_1gSI9W0q1PL5wGB,2022-09-03_10h33.19.381,jpn_C03,2022.1.2,Win32,60.0240096,,,space,1.0707,0,38,38,36,1,プミ　シド　ピポ,,,CartoonStims/artist_punch_doctor_r.jpg,audio/pumisidopipo.mp3,,,,,,,,,,,,,,,,,,,,,,,,,,,,,,,,,,,,,,,,,,,,,,,,,,,,,,,,,,,,,,,,,,,,,,,,,,
,,,,,,,,,R_1gSI9W0q1PL5wGB,2022-09-03_10h33.19.381,jpn_C03,2022.1.2,Win32,60.0240096,,,space,0.8429,0,39,39,13,1,トマ　シド　ムク,,,CartoonStims/artist_point_cowboy_r.jpg,audio/tomasidomuku.mp3,,,,,,,,,,,,,,,,,,,,,,,,,,,,,,,,,,,,,,,,,,,,,,,,,,,,,,,,,,,,,,,,,,,,,,,,,,
,,,,,,,,,R_1gSI9W0q1PL5wGB,2022-09-03_10h33.19.381,jpn_C03,2022.1.2,Win32,60.0240096,,,space,0.9165,0,40,40,6,1,セル　ムク　ピポ,,,CartoonStims/cowboy_kick_doctor_r.jpg,audio/serumukupipo.mp3,,,,,,,,,,,,,,,,,,,,,,,,,,,,,,,,,,,,,,,,,,,,,,,,,,,,,,,,,,,,,,,,,,,,,,,,,,
,,,,,,,,,R_1gSI9W0q1PL5wGB,2022-09-03_10h33.19.381,jpn_C03,2022.1.2,Win32,60.0240096,,,space,0.9514,0,41,41,28,1,パツ　ホレト　ドキ,,,CartoonStims/chef_shoot_boxer_r.jpg,audio/patsuhoretodoki.mp3,,,,,,,,,,,,,,,,,,,,,,,,,,,,,,,,,,,,,,,,,,,,,,,,,,,,,,,,,,,,,,,,,,,,,,,,,,
,,,,,,,,,R_1gSI9W0q1PL5wGB,2022-09-03_10h33.19.381,jpn_C03,2022.1.2,Win32,60.0240096,,,space,0.8405,0,42,42,20,1,トマ　ピポ　シド,,,CartoonStims/doctor_point_artist_r.jpg,audio/tomapiposido.mp3,,,,,,,,,,,,,,,,,,,,,,,,,,,,,,,,,,,,,,,,,,,,,,,,,,,,,,,,,,,,,,,,,,,,,,,,,,
,,,,,,,,,R_1gSI9W0q1PL5wGB,2022-09-03_10h33.19.381,jpn_C03,2022.1.2,Win32,60.0240096,,,space,0.8912,0,43,43,17,1,トマ　ホレト　ドキ,,,CartoonStims/chef_point_boxer_r.jpg,audio/tomahoretodoki.mp3,,,,,,,,,,,,,,,,,,,,,,,,,,,,,,,,,,,,,,,,,,,,,,,,,,,,,,,,,,,,,,,,,,,,,,,,,,
,,,,,,,,,R_1gSI9W0q1PL5wGB,2022-09-03_10h33.19.381,jpn_C03,2022.1.2,Win32,60.0240096,,,space,0.8485,0,44,44,47,1,プミ　ドキ　ピポ,,,CartoonStims/boxer_punch_doctor_r.jpg,audio/pumidokipipo.mp3,,,,,,,,,,,,,,,,,,,,,,,,,,,,,,,,,,,,,,,,,,,,,,,,,,,,,,,,,,,,,,,,,,,,,,,,,,
,,,,,,,,,R_1gSI9W0q1PL5wGB,2022-09-03_10h33.19.381,jpn_C03,2022.1.2,Win32,60.0240096,,,space,0.8754,0,45,45,5,1,セル　ホレト　ピポ,,,CartoonStims/chef_kick_doctor_r.jpg,audio/seruhoretopipo.mp3,,,,,,,,,,,,,,,,,,,,,,,,,,,,,,,,,,,,,,,,,,,,,,,,,,,,,,,,,,,,,,,,,,,,,,,,,,
,,,,,,,,,R_1gSI9W0q1PL5wGB,2022-09-03_10h33.19.381,jpn_C03,2022.1.2,Win32,60.0240096,,,space,0.7351,0,46,46,40,1,プミ　ホレト　シド,,,CartoonStims/chef_punch_artist_r.jpg,audio/pumihoretosido.mp3,,,,,,,,,,,,,,,,,,,,,,,,,,,,,,,,,,,,,,,,,,,,,,,,,,,,,,,,,,,,,,,,,,,,,,,,,,
,,,,,,,,,R_1gSI9W0q1PL5wGB,2022-09-03_10h33.19.381,jpn_C03,2022.1.2,Win32,60.0240096,,,space,0.7284,0,47,47,19,1,トマ　ムク　シド,,,CartoonStims/cowboy_point_artist_r.jpg,audio/tomamukusido.mp3,,,,,,,,,,,,,,,,,,,,,,,,,,,,,,,,,,,,,,,,,,,,,,,,,,,,,,,,,,,,,,,,,,,,,,,,,,
,,,,,,,,,R_1gSI9W0q1PL5wGB,2022-09-03_10h33.19.381,jpn_C03,2022.1.2,Win32,60.0240096,,,,,,,,,,,,,,,space,1.16,left,1,12.9344,0,0,0,0,1,,,,,,,,,,,,,,,,,,,,,,,,,,,,,,,,,,,,,,,,,,,,,,,,,,,,,,,,,,,,,,,,
,,,,,,,,,R_1gSI9W0q1PL5wGB,2022-09-03_10h33.19.381,jpn_C03,2022.1.2,Win32,60.0240096,,,,,,,,,,,,,,,,,,,,,,,,,0,0,0,2,1,CartoonStims/boxer_shoot_doctor_r.jpg,パツ　ドキ　ピポ,CartoonStims/boxer_shoot_artist_r.jpg,left,CartoonStims/boxer_shoot_doctor_r.jpg,audio/patsudokipipo.mp3,残念！ こちらが正しい画像です。,,,,,,,,,,,,,,,,,,,,,,,,,,,,,,,,,,,,,,,,,,,,,,,,,,,,
,,,,,,,,,R_1gSI9W0q1PL5wGB,2022-09-03_10h33.19.381,jpn_C03,2022.1.2,Win32,60.0240096,,,,,,,,,,,,,,,,,right,1,11.142,,,,,,,,,,,,,,,,,,0,0,0,0,1,,,,,,,,,,,,,,,,,,,,,,,,,,,,,,,,,,,,,,,,,,,,,,,
,,,,,,,,,R_1gSI9W0q1PL5wGB,2022-09-03_10h33.19.381,jpn_C03,2022.1.2,Win32,60.0240096,,,,,,,,,,,,,,,,,,,,,,,,,0,1,1,9,1,CartoonStims/chef_kick_artist_r.jpg,セル　ムク　シド,CartoonStims/cowboy_kick_artist_r.jpg,right,CartoonStims/cowboy_kick_artist_r.jpg,audio/serumukusido.mp3,残念！ こちらが正しい画像です。,,,,,,,,,,,,,,,,,,,,,,,,,,,,,,,,,,,,,,,,,,,,,,,,,,,,
,,,,,,,,,R_1gSI9W0q1PL5wGB,2022-09-03_10h33.19.381,jpn_C03,2022.1.2,Win32,60.0240096,,,,,,,,,,,,,,,,,left,0,4.8308,,,,,,,,,,,,,,,,,,,,,,,,,,,,0,0,0,0,1,,,,,,,,,,,,,,,,,,,,,,,,,,,,,,,,,,,,,
,,,,,,,,,R_1gSI9W0q1PL5wGB,2022-09-03_10h33.19.381,jpn_C03,2022.1.2,Win32,60.0240096,,,,,,,,,,,,,,,,,,,,,,,,,0,2,2,3,1,CartoonStims/cowboy_punch_doctor_r.jpg,プミ　ムク　ドキ,CartoonStims/cowboy_punch_boxer_r.jpg,right,CartoonStims/cowboy_punch_boxer_r.jpg,audio/pumimukudoki.mp3,残念！ こちらが正しい画像です。,,,,,,,,,,,,,,,,,,,,,,,,,,,,,,,,,,,,,,,,,,,,,,,,,,,,
,,,,,,,,,R_1gSI9W0q1PL5wGB,2022-09-03_10h33.19.381,jpn_C03,2022.1.2,Win32,60.0240096,,,,,,,,,,,,,,,,,left,1,3.1198,0,0,0,0,1,,,,,,,,,,,,,,,,,,,,,,,,,,,,,,,,,,,,,,,,,,,,,,,,,,,,,,,,,,,,,,,,
,,,,,,,,,R_1gSI9W0q1PL5wGB,2022-09-03_10h33.19.381,jpn_C03,2022.1.2,Win32,60.0240096,,,,,,,,,,,,,,,,,,,,,,,,,0,3,3,8,1,CartoonStims/doctor_point_cowboy_r.jpg,トマ　ピポ　ムク,CartoonStims/boxer_point_cowboy_r.jpg,left,CartoonStims/doctor_point_cowboy_r.jpg,audio/tomapipomuku.mp3,残念！ こちらが正しい画像です。,,,,,,,,,,,,,,,,,,,,,,,,,,,,,,,,,,,,,,,,,,,,,,,,,,,,
,,,,,,,,,R_1gSI9W0q1PL5wGB,2022-09-03_10h33.19.381,jpn_C03,2022.1.2,Win32,60.0240096,,,,,,,,,,,,,,,,,right,0,8.7256,,,,,,,,,,,,,,,,,,,,,,,0,0,0,0,1,,,,,,,,,,,,,,,,,,,,,,,,,,,,,,,,,,,,,,,,,,
,,,,,,,,,R_1gSI9W0q1PL5wGB,2022-09-03_10h33.19.381,jpn_C03,2022.1.2,Win32,60.0240096,,,,,,,,,,,,,,,,,,,,,,,,,0,4,4,10,1,CartoonStims/artist_shoot_burglar_r.jpg,パツ　シド　ルピン,CartoonStims/chef_shoot_burglar_r.jpg,left,CartoonStims/artist_shoot_burglar_r.jpg,audio/patsusidolupin.mp3,残念！ こちらが正しい画像です。,,,,,,,,,,,,,,,,,,,,,,,,,,,,,,,,,,,,,,,,,,,,,,,,,,,,
,,,,,,,,,R_1gSI9W0q1PL5wGB,2022-09-03_10h33.19.381,jpn_C03,2022.1.2,Win32,60.0240096,,,,,,,,,,,,,,,,,right,1,5.5004,,,,,,,,,,,,,,,,,,0,0,0,0,1,,,,,,,,,,,,,,,,,,,,,,,,,,,,,,,,,,,,,,,,,,,,,,,
,,,,,,,,,R_1gSI9W0q1PL5wGB,2022-09-03_10h33.19.381,jpn_C03,2022.1.2,Win32,60.0240096,,,,,,,,,,,,,,,,,,,,,,,,,0,5,5,7,1,CartoonStims/artist_punch_cowboy_r.jpg,セル　シド　ムク,CartoonStims/artist_kick_cowboy_r.jpg,right,CartoonStims/artist_kick_cowboy_r.jpg,audio/serusidomuku.mp3,残念！ こちらが正しい画像です。,,,,,,,,,,,,,,,,,,,,,,,,,,,,,,,,,,,,,,,,,,,,,,,,,,,,
,,,,,,,,,R_1gSI9W0q1PL5wGB,2022-09-03_10h33.19.381,jpn_C03,2022.1.2,Win32,60.0240096,,,,,,,,,,,,,,,,,right,1,3.629,,,,,,,,,,,,,,,,,,0,0,0,0,1,,,,,,,,,,,,,,,,,,,,,,,,,,,,,,,,,,,,,,,,,,,,,,,
,,,,,,,,,R_1gSI9W0q1PL5wGB,2022-09-03_10h33.19.381,jpn_C03,2022.1.2,Win32,60.0240096,,,,,,,,,,,,,,,,,,,,,,,,,0,6,6,11,1,CartoonStims/burglar_punch_cowboy_r.jpg,プミ　ホレト　ムク,CartoonStims/chef_punch_cowboy_r.jpg,right,CartoonStims/chef_punch_cowboy_r.jpg,audio/pumihoretomuku.mp3,残念！ こちらが正しい画像です。,,,,,,,,,,,,,,,,,,,,,,,,,,,,,,,,,,,,,,,,,,,,,,,,,,,,
,,,,,,,,,R_1gSI9W0q1PL5wGB,2022-09-03_10h33.19.381,jpn_C03,2022.1.2,Win32,60.0240096,,,,,,,,,,,,,,,,,left,1,4.2761,0,0,0,0,1,,,,,,,,,,,,,,,,,,,,,,,,,,,,,,,,,,,,,,,,,,,,,,,,,,,,,,,,,,,,,,,,
,,,,,,,,,R_1gSI9W0q1PL5wGB,2022-09-03_10h33.19.381,jpn_C03,2022.1.2,Win32,60.0240096,,,,,,,,,,,,,,,,,,,,,,,,,0,7,7,4,1,CartoonStims/burglar_point_boxer_r.jpg,トマ　ルピン　ドキ,CartoonStims/burglar_kick_boxer_r.jpg,left,CartoonStims/burglar_point_boxer_r.jpg,audio/tomalupindoki.mp3,残念！ こちらが正しい画像です。,,,,,,,,,,,,,,,,,,,,,,,,,,,,,,,,,,,,,,,,,,,,,,,,,,,,
,,,,,,,,,R_1gSI9W0q1PL5wGB,2022-09-03_10h33.19.381,jpn_C03,2022.1.2,Win32,60.0240096,,,,,,,,,,,,,,,,,left,1,10.7463,0,0,0,0,1,,,,,,,,,,,,,,,,,,,,,,,,,,,,,,,,,,,,,,,,,,,,,,,,,,,,,,,,,,,,,,,,
,,,,,,,,,R_1gSI9W0q1PL5wGB,2022-09-03_10h33.19.381,jpn_C03,2022.1.2,Win32,60.0240096,,,,,,,,,,,,,,,,,,,,,,,,,0,8,8,6,1,CartoonStims/doctor_punch_boxer_r.jpg,プミ　ピポ　ドキ,CartoonStims/doctor_shoot_boxer_r.jpg,left,CartoonStims/doctor_punch_boxer_r.jpg,audio/pumipipodoki.mp3,残念！ こちらが正しい画像です。,,,,,,,,,,,,,,,,,,,,,,,,,,,,,,,,,,,,,,,,,,,,,,,,,,,,
,,,,,,,,,R_1gSI9W0q1PL5wGB,2022-09-03_10h33.19.381,jpn_C03,2022.1.2,Win32,60.0240096,,,,,,,,,,,,,,,,,right,1,6.6573,,,,,,,,,,,,,,,,,,0,0,0,0,1,,,,,,,,,,,,,,,,,,,,,,,,,,,,,,,,,,,,,,,,,,,,,,,
,,,,,,,,,R_1gSI9W0q1PL5wGB,2022-09-03_10h33.19.381,jpn_C03,2022.1.2,Win32,60.0240096,,,,,,,,,,,,,,,,,,,,,,,,,0,9,9,5,1,CartoonStims/cowboy_point_chef_r.jpg,パツ　ムク　ホレト,CartoonStims/cowboy_shoot_chef_r.jpg,right,CartoonStims/cowboy_shoot_chef_r.jpg,audio/patsumukuhoreto.mp3,残念！ こちらが正しい画像です。,,,,,,,,,,,,,,,,,,,,,,,,,,,,,,,,,,,,,,,,,,,,,,,,,,,,
,,,,,,,,,R_1gSI9W0q1PL5wGB,2022-09-03_10h33.19.381,jpn_C03,2022.1.2,Win32,60.0240096,,,,,,,,,,,,,,,,,right,1,4.3874,,,,,,,,,,,,,,,,,,0,0,0,0,1,,,,,,,,,,,,,,,,,,,,,,,,,,,,,,,,,,,,,,,,,,,,,,,
,,,,,,,,,R_1gSI9W0q1PL5wGB,2022-09-03_10h33.19.381,jpn_C03,2022.1.2,Win32,60.0240096,,,,,,,,,,,,,,,,,,,,,,,,,0,10,10,1,1,CartoonStims/chef_point_burglar_r.jpg,トマ　ホレト　シド,CartoonStims/chef_point_artist_r.jpg,right,CartoonStims/chef_point_artist_r.jpg,audio/tomahoretosido.mp3,残念！ こちらが正しい画像です。,,,,,,,,,,,,,,,,,,,,,,,,,,,,,,,,,,,,,,,,,,,,,,,,,,,,
,,,,,,,,,R_1gSI9W0q1PL5wGB,2022-09-03_10h33.19.381,jpn_C03,2022.1.2,Win32,60.0240096,,,,,,,,,,,,,,,,,left,1,9.3949,0,0,0,0,1,,,,,,,,,,,,,,,,,,,,,,,,,,,,,,,,,,,,,,,,,,,,,,,,,,,,,,,,,,,,,,,,
,,,,,,,,,R_1gSI9W0q1PL5wGB,2022-09-03_10h33.19.381,jpn_C03,2022.1.2,Win32,60.0240096,,,,,,,,,,,,,,,,,,,,,,,,,0,11,11,0,1,CartoonStims/doctor_kick_burglar_r.jpg,セル　ピポ　ルピン,CartoonStims/doctor_kick_chef_r.jpg,left,CartoonStims/doctor_kick_burglar_r.jpg,audio/serupipolupin.mp3,残念！ こちらが正しい画像です。,,,,,,,,,,,,,,,,,,,,,,,,,,,,,,,,,,,,,,,,,,,,,,,,,,,,
,,,,,,,,,R_1gSI9W0q1PL5wGB,2022-09-03_10h33.19.381,jpn_C03,2022.1.2,Win32,60.0240096,,,,,,,,,,,,,,,,,,,,,,,,,,,,,,,,,,,,,,,,,,,,,,,,,,,,space,9.6835,パツ　セド　ドキ,right,73.0134,0,0,0,0,1,,,,,,,,,,,,,,,,,,,,,,,,,,,
,,,,,,,,,R_1gSI9W0q1PL5wGB,2022-09-03_10h33.19.381,jpn_C03,2022.1.2,Win32,60.0240096,,,,,,,,,,,,,CartoonStims/artist_point_boxer_r.jpg,audio/tomasidodoki.mp3,,,,,,,,,,,,,,,,,,,,,,,,,,,,,,,,,,,,,,,,,,,,,,,,0,0,0,3,1,トマ　シド　ドキ,,,,,,,,,,,,,,,,,,,,,
,,,,,,,,,R_1gSI9W0q1PL5wGB,2022-09-03_10h33.19.381,jpn_C03,2022.1.2,Win32,60.0240096,,,,,,,,,,,,,,,,,,,,,,,,,,,,,,,,,,,,,,,,,,,,,,,,,,,,,,トマ　シド　ルピン,right,11.9012,0,0,0,0,1,,,,,,,,,,,,,,,,,,,,,,,,,,,
,,,,,,,,,R_1gSI9W0q1PL5wGB,2022-09-03_10h33.19.381,jpn_C03,2022.1.2,Win32,60.0240096,,,,,,,,,,,,,CartoonStims/chef_point_burglar_r.jpg,audio/tomahoretolupin.mp3,,,,,,,,,,,,,,,,,,,,,,,,,,,,,,,,,,,,,,,,,,,,,,,,0,1,1,5,1,トマ　ホレト　ルピン,,,,,,,,,,,,,,,,,,,,,
,,,,,,,,,R_1gSI9W0q1PL5wGB,2022-09-03_10h33.19.381,jpn_C03,2022.1.2,Win32,60.0240096,,,,,,,,,,,,,,,,,,,,,,,,,,,,,,,,,,,,,,,,,,,,,,,,,,,,,,パツ　ホレト　ムク,right,13.8588,0,0,0,0,1,,,,,,,,,,,,,,,,,,,,,,,,,,,
,,,,,,,,,R_1gSI9W0q1PL5wGB,2022-09-03_10h33.19.381,jpn_C03,2022.1.2,Win32,60.0240096,,,,,,,,,,,,,CartoonStims/chef_shoot_cowboy_r.jpg,audio/patsuhoretomuku.mp3,,,,,,,,,,,,,,,,,,,,,,,,,,,,,,,,,,,,,,,,,,,,,,,,0,2,2,7,1,パツ　ホレト　ムク,,,,,,,,,,,,,,,,,,,,,
,,,,,,,,,R_1gSI9W0q1PL5wGB,2022-09-03_10h33.19.381,jpn_C03,2022.1.2,Win32,60.0240096,,,,,,,,,,,,,,,,,,,,,,,,,,,,,,,,,,,,,,,,,,,,,,,,,,,,,,セル　シド　ホレト,right,16.6785,0,0,0,0,1,,,,,,,,,,,,,,,,,,,,,,,,,,,
,,,,,,,,,R_1gSI9W0q1PL5wGB,2022-09-03_10h33.19.381,jpn_C03,2022.1.2,Win32,60.0240096,,,,,,,,,,,,,CartoonStims/doctor_kick_chef_r.jpg,audio/serupipohoreto.mp3,,,,,,,,,,,,,,,,,,,,,,,,,,,,,,,,,,,,,,,,,,,,,,,,0,3,3,1,1,セル　ピポ　ホレト,,,,,,,,,,,,,,,,,,,,,
,,,,,,,,,R_1gSI9W0q1PL5wGB,2022-09-03_10h33.19.381,jpn_C03,2022.1.2,Win32,60.0240096,,,,,,,,,,,,,,,,,,,,,,,,,,,,,,,,,,,,,,,,,,,,,,,,,,,,,,パツ　ピポ　ルピン,right,14.9505,0,0,0,0,1,,,,,,,,,,,,,,,,,,,,,,,,,,,
,,,,,,,,,R_1gSI9W0q1PL5wGB,2022-09-03_10h33.19.381,jpn_C03,2022.1.2,Win32,60.0240096,,,,,,,,,,,,,CartoonStims/artist_punch_burglar_r.jpg,audio/pumisidolupin.mp3,,,,,,,,,,,,,,,,,,,,,,,,,,,,,,,,,,,,,,,,,,,,,,,,0,4,4,9,1,プミ　シド　ルピン,,,,,,,,,,,,,,,,,,,,,
,,,,,,,,,R_1gSI9W0q1PL5wGB,2022-09-03_10h33.19.381,jpn_C03,2022.1.2,Win32,60.0240096,,,,,,,,,,,,,,,,,,,,,,,,,,,,,,,,,,,,,,,,,,,,,,,,,,,,,,パツ　ムク　シド,right,10.1438,0,0,0,0,1,,,,,,,,,,,,,,,,,,,,,,,,,,,
,,,,,,,,,R_1gSI9W0q1PL5wGB,2022-09-03_10h33.19.381,jpn_C03,2022.1.2,Win32,60.0240096,,,,,,,,,,,,,CartoonStims/cowboy_shoot_doctor_r.jpg,audio/patsumukupipo.mp3,,,,,,,,,,,,,,,,,,,,,,,,,,,,,,,,,,,,,,,,,,,,,,,,0,5,5,8,1,パツ　ムク　ピポ,,,,,,,,,,,,,,,,,,,,,
,,,,,,,,,R_1gSI9W0q1PL5wGB,2022-09-03_10h33.19.381,jpn_C03,2022.1.2,Win32,60.0240096,,,,,,,,,,,,,,,,,,,,,,,,,,,,,,,,,,,,,,,,,,,,,,,,,,,,,,トマ　ピポ　ルピン,right,22.1486,0,0,0,0,1,,,,,,,,,,,,,,,,,,,,,,,,,,,
,,,,,,,,,R_1gSI9W0q1PL5wGB,2022-09-03_10h33.19.381,jpn_C03,2022.1.2,Win32,60.0240096,,,,,,,,,,,,,CartoonStims/burglar_point_artist_r.jpg,audio/tomalupinsido.mp3,,,,,,,,,,,,,,,,,,,,,,,,,,,,,,,,,,,,,,,,,,,,,,,,0,6,6,4,1,トマ　ルピン　シド,,,,,,,,,,,,,,,,,,,,,
,,,,,,,,,R_1gSI9W0q1PL5wGB,2022-09-03_10h33.19.381,jpn_C03,2022.1.2,Win32,60.0240096,,,,,,,,,,,,,,,,,,,,,,,,,,,,,,,,,,,,,,,,,,,,,,,,,,,,,,セル　ドキ　ムク,right,13.6313,0,0,0,0,1,,,,,,,,,,,,,,,,,,,,,,,,,,,
,,,,,,,,,R_1gSI9W0q1PL5wGB,2022-09-03_10h33.19.381,jpn_C03,2022.1.2,Win32,60.0240096,,,,,,,,,,,,,CartoonStims/boxer_kick_cowboy_r.jpg,audio/serudokimuku.mp3,,,,,,,,,,,,,,,,,,,,,,,,,,,,,,,,,,,,,,,,,,,,,,,,0,7,7,2,1,セル　ドキ　ムク,,,,,,,,,,,,,,,,,,,,,
,,,,,,,,,R_1gSI9W0q1PL5wGB,2022-09-03_10h33.19.381,jpn_C03,2022.1.2,Win32,60.0240096,,,,,,,,,,,,,,,,,,,,,,,,,,,,,,,,,,,,,,,,,,,,,,,,,,,,,,パツ　ピポ　ドキ,right,14.9126,0,0,0,0,1,,,,,,,,,,,,,,,,,,,,,,,,,,,
,,,,,,,,,R_1gSI9W0q1PL5wGB,2022-09-03_10h33.19.381,jpn_C03,2022.1.2,Win32,60.0240096,,,,,,,,,,,,,CartoonStims/doctor_punch_boxer_r.jpg,audio/pumipipodoki.mp3,,,,,,,,,,,,,,,,,,,,,,,,,,,,,,,,,,,,,,,,,,,,,,,,0,8,8,10,1,プミ　ピポ　ドキ,,,,,,,,,,,,,,,,,,,,,
,,,,,,,,,R_1gSI9W0q1PL5wGB,2022-09-03_10h33.19.381,jpn_C03,2022.1.2,Win32,60.0240096,,,,,,,,,,,,,,,,,,,,,,,,,,,,,,,,,,,,,,,,,,,,,,,,,,,,,,プミ　ドキ　ピポ,right,27.5948,0,0,0,0,1,,,,,,,,,,,,,,,,,,,,,,,,,,,
,,,,,,,,,R_1gSI9W0q1PL5wGB,2022-09-03_10h33.19.381,jpn_C03,2022.1.2,Win32,60.0240096,,,,,,,,,,,,,CartoonStims/boxer_punch_artist_r.jpg,audio/pumidokisido.mp3,,,,,,,,,,,,,,,,,,,,,,,,,,,,,,,,,,,,,,,,,,,,,,,,0,9,9,11,1,プミ　ドキ　シド,,,,,,,,,,,,,,,,,,,,,
,,,,,,,,,R_1gSI9W0q1PL5wGB,2022-09-03_10h33.19.381,jpn_C03,2022.1.2,Win32,60.0240096,,,,,,,,,,,,,,,,,,,,,,,,,,,,,,,,,,,,,,,,,,,,,,,,,,,,,,パツ　ルピン　ピポ,right,16.2511,0,0,0,0,1,,,,,,,,,,,,,,,,,,,,,,,,,,,
,,,,,,,,,R_1gSI9W0q1PL5wGB,2022-09-03_10h33.19.381,jpn_C03,2022.1.2,Win32,60.0240096,,,,,,,,,,,,,CartoonStims/burglar_shoot_chef_r.jpg,audio/patsulupinhoreto.mp3,,,,,,,,,,,,,,,,,,,,,,,,,,,,,,,,,,,,,,,,,,,,,,,,0,10,10,6,1,パツ　ルピン　ホレト,,,,,,,,,,,,,,,,,,,,,
,,,,,,,,,R_1gSI9W0q1PL5wGB,2022-09-03_10h33.19.381,jpn_C03,2022.1.2,Win32,60.0240096,,,,,,,,,,,,,,,,,,,,,,,,,,,,,,,,,,,,,,,,,,,,,,,,,,,,,,セル　ムク　ルピン,right,13.0059,0,0,0,0,1,,,,,,,,,,,,,,,,,,,,,,,,,,,
,,,,,,,,,R_1gSI9W0q1PL5wGB,2022-09-03_10h33.19.381,jpn_C03,2022.1.2,Win32,60.0240096,,,,,,,,,,,,,CartoonStims/cowboy_kick_burglar_r.jpg,audio/serumukulupin.mp3,,,,,,,,,,,,,,,,,,,,,,,,,,,,,,,,,,,,,,,,,,,,,,,,0,11,11,0,1,セル　ムク　ルピン,,,,,,,,,,,,,,,,,,,,,
,,,,,,,,,R_1gSI9W0q1PL5wGB,2022-09-03_10h33.19.381,jpn_C03,2022.1.2,Win32,60.0240096,,,,,,,,,,,,,,,,,,,,,,,,,,,,,,,,,,,,,,,,,,,,,,,,,,,,,,,,,,,,,,,,,,,,,space,1.1671,0,1,1,1,1,AffExposure.xlsx,"第二のトライアルの学習では、この言語で書かれた文を見ていただきます。引き続き注意して、 聞こえた音を復唱してください。


スペースキーを押してください。",1,AffFCT.xlsx,ここからクイズが始まります。 スクリーンに表示されるテキストに合う画像を選んでください。,AffTest.xlsx,1,次にここまで学んだことをアウトプットしていただきます。 表示される画像を描写していると思う単語を、テキストボックスにタイプしてください。 答えを提出したあとに正しい正解が少しの間画面に写ります。,1,"これで第二のトライアルが終了しました。 ここで休憩をとっていただいても構いません。

休憩が終わりましたら、 スペースキーを押して続きの学習を行いましょう。",,,
,,,,,,,,,R_1gSI9W0q1PL5wGB,2022-09-03_10h33.19.381,jpn_C03,2022.1.2,Win32,60.0240096,space,2.3704,space,18.1512,0,0,0,41,1,プミ　ピク　ホレト　ルピン,,,CartoonStims/chef_punch_burglar_r_no.jpg,audio/pumipikuhoretolupin.mp3,,,,,,,,,,,,,,,,,,,,,,,,,,,,,,,,,,,,,,,,,,,,,,,,,,,,,,,,,,,,,,,,,,,,,,,,,,
,,,,,,,,,R_1gSI9W0q1PL5wGB,2022-09-03_10h33.19.381,jpn_C03,2022.1.2,Win32,60.0240096,,,space,11.2102,0,1,1,7,1,セル　ピク　ムク　ドキ,,,CartoonStims/cowboy_kick_boxer_r_no.jpg,audio/serupikumukudoki.mp3,,,,,,,,,,,,,,,,,,,,,,,,,,,,,,,,,,,,,,,,,,,,,,,,,,,,,,,,,,,,,,,,,,,,,,,,,,
,,,,,,,,,R_1gSI9W0q1PL5wGB,2022-09-03_10h33.19.381,jpn_C03,2022.1.2,Win32,60.0240096,,,space,4.7853,0,2,2,47,1,プミ　ピク　ドキ　ピポ,,,CartoonStims/boxer_punch_doctor_r_no.jpg,audio/pumipikudokipipo.mp3,,,,,,,,,,,,,,,,,,,,,,,,,,,,,,,,,,,,,,,,,,,,,,,,,,,,,,,,,,,,,,,,,,,,,,,,,,
,,,,,,,,,R_1gSI9W0q1PL5wGB,2022-09-03_10h33.19.381,jpn_C03,2022.1.2,Win32,60.0240096,,,space,4.735,0,3,3,32,1,パツ　ピク　ピポ　ルピン,,,CartoonStims/doctor_shoot_burglar_r_no.jpg,audio/patsupikupipolupin.mp3,,,,,,,,,,,,,,,,,,,,,,,,,,,,,,,,,,,,,,,,,,,,,,,,,,,,,,,,,,,,,,,,,,,,,,,,,,
,,,,,,,,,R_1gSI9W0q1PL5wGB,2022-09-03_10h33.19.381,jpn_C03,2022.1.2,Win32,60.0240096,,,space,54.2955,0,4,4,25,1,ピク　パツ　シド　ピポ,,,CartoonStims/artist_shoot_doctor_r_no.jpg,audio/pikupatsusidopipo.mp3,,,,,,,,,,,,,,,,,,,,,,,,,,,,,,,,,,,,,,,,,,,,,,,,,,,,,,,,,,,,,,,,,,,,,,,,,,
,,,,,,,,,R_1gSI9W0q1PL5wGB,2022-09-03_10h33.19.381,jpn_C03,2022.1.2,Win32,60.0240096,,,space,45.6062,0,5,5,37,1,プミ　ピク　シド　ドキ,,,CartoonStims/artist_punch_boxer_r_no.jpg,audio/pumipikusidodoki.mp3,,,,,,,,,,,,,,,,,,,,,,,,,,,,,,,,,,,,,,,,,,,,,,,,,,,,,,,,,,,,,,,,,,,,,,,,,,
,,,,,,,,,R_1gSI9W0q1PL5wGB,2022-09-03_10h33.19.381,jpn_C03,2022.1.2,Win32,60.0240096,,,space,29.4856,0,6,6,15,1,ピク　トマ　ルピン　ピポ,,,CartoonStims/burglar_point_doctor_r_no.jpg,audio/pikutomalupinpipo.mp3,,,,,,,,,,,,,,,,,,,,,,,,,,,,,,,,,,,,,,,,,,,,,,,,,,,,,,,,,,,,,,,,,,,,,,,,,,
,,,,,,,,,R_1gSI9W0q1PL5wGB,2022-09-03_10h33.19.381,jpn_C03,2022.1.2,Win32,60.0240096,,,space,11.4778,0,7,7,26,1,パツ　ピク　ルピン　ピポ,,,CartoonStims/burglar_shoot_doctor_r_no.jpg,audio/patsupikulupinpipo.mp3,,,,,,,,,,,,,,,,,,,,,,,,,,,,,,,,,,,,,,,,,,,,,,,,,,,,,,,,,,,,,,,,,,,,,,,,,,
,,,,,,,,,R_1gSI9W0q1PL5wGB,2022-09-03_10h33.19.381,jpn_C03,2022.1.2,Win32,60.0240096,,,space,13.859,0,8,8,3,1,セル　ピク　ルピン　ムク,,,CartoonStims/burglar_kick_cowboy_r_no.jpg,audio/serupikulupinmuku.mp3,,,,,,,,,,,,,,,,,,,,,,,,,,,,,,,,,,,,,,,,,,,,,,,,,,,,,,,,,,,,,,,,,,,,,,,,,,
,,,,,,,,,R_1gSI9W0q1PL5wGB,2022-09-03_10h33.19.381,jpn_C03,2022.1.2,Win32,60.0240096,,,space,14.5485,0,9,9,34,1,パツ　ピク　ドキ　ホレト,,,CartoonStims/boxer_shoot_chef_r_no.jpg,audio/patsupikudokihoreto.mp3,,,,,,,,,,,,,,,,,,,,,,,,,,,,,,,,,,,,,,,,,,,,,,,,,,,,,,,,,,,,,,,,,,,,,,,,,,
,,,,,,,,,R_1gSI9W0q1PL5wGB,2022-09-03_10h33.19.381,jpn_C03,2022.1.2,Win32,60.0240096,,,space,9.9679,0,10,10,44,1,ピク　プミ　ピポ　ホレト,,,CartoonStims/doctor_punch_chef_r_no.jpg,audio/pikupumipipohoreto.mp3,,,,,,,,,,,,,,,,,,,,,,,,,,,,,,,,,,,,,,,,,,,,,,,,,,,,,,,,,,,,,,,,,,,,,,,,,,
,,,,,,,,,R_1gSI9W0q1PL5wGB,2022-09-03_10h33.19.381,jpn_C03,2022.1.2,Win32,60.0240096,,,space,5.54,0,11,11,42,1,ピク　プミ　ムク　ルピン,,,CartoonStims/cowboy_punch_burglar_r_no.jpg,audio/pikupumimukulupin.mp3,,,,,,,,,,,,,,,,,,,,,,,,,,,,,,,,,,,,,,,,,,,,,,,,,,,,,,,,,,,,,,,,,,,,,,,,,,
,,,,,,,,,R_1gSI9W0q1PL5wGB,2022-09-03_10h33.19.381,jpn_C03,2022.1.2,Win32,60.0240096,,,space,29.5298,0,12,12,1,1,セル　ピク　シド　ホレト,,,CartoonStims/artist_kick_chef_r_no.jpg,audio/serupikusidohoreto.mp3,,,,,,,,,,,,,,,,,,,,,,,,,,,,,,,,,,,,,,,,,,,,,,,,,,,,,,,,,,,,,,,,,,,,,,,,,,
,,,,,,,,,R_1gSI9W0q1PL5wGB,2022-09-03_10h33.19.381,jpn_C03,2022.1.2,Win32,60.0240096,,,space,6.6141,0,13,13,14,1,トマ　ピク　ルピン　ムク,,,CartoonStims/burglar_point_cowboy_r_no.jpg,audio/tomapikulupinmuku.mp3,,,,,,,,,,,,,,,,,,,,,,,,,,,,,,,,,,,,,,,,,,,,,,,,,,,,,,,,,,,,,,,,,,,,,,,,,,
,,,,,,,,,R_1gSI9W0q1PL5wGB,2022-09-03_10h33.19.381,jpn_C03,2022.1.2,Win32,60.0240096,,,space,3.0111,0,14,14,24,1,パツ　ピク　シド　ムク,,,CartoonStims/artist_shoot_cowboy_r_no.jpg,audio/patsupikusidomuku.mp3,,,,,,,,,,,,,,,,,,,,,,,,,,,,,,,,,,,,,,,,,,,,,,,,,,,,,,,,,,,,,,,,,,,,,,,,,,
,,,,,,,,,R_1gSI9W0q1PL5wGB,2022-09-03_10h33.19.381,jpn_C03,2022.1.2,Win32,60.0240096,,,space,21.9362,0,15,15,29,1,ピク　パツ　ホレト　シド,,,CartoonStims/chef_shoot_artist_r_no.jpg,audio/pikupatsuhoretosido.mp3,,,,,,,,,,,,,,,,,,,,,,,,,,,,,,,,,,,,,,,,,,,,,,,,,,,,,,,,,,,,,,,,,,,,,,,,,,
,,,,,,,,,R_1gSI9W0q1PL5wGB,2022-09-03_10h33.19.381,jpn_C03,2022.1.2,Win32,60.0240096,,,space,16.474,0,16,16,0,1,ピク　セル　シド　ルピン,,,CartoonStims/artist_kick_burglar_r_no.jpg,audio/pikuserusidolupin.mp3,,,,,,,,,,,,,,,,,,,,,,,,,,,,,,,,,,,,,,,,,,,,,,,,,,,,,,,,,,,,,,,,,,,,,,,,,,
,,,,,,,,,R_1gSI9W0q1PL5wGB,2022-09-03_10h33.19.381,jpn_C03,2022.1.2,Win32,60.0240096,,,space,5.3933,0,17,17,10,1,セル　ピク　ドキ　シド,,,CartoonStims/boxer_kick_artist_r_no.jpg,audio/serupikudokisido.mp3,,,,,,,,,,,,,,,,,,,,,,,,,,,,,,,,,,,,,,,,,,,,,,,,,,,,,,,,,,,,,,,,,,,,,,,,,,
,,,,,,,,,R_1gSI9W0q1PL5wGB,2022-09-03_10h33.19.381,jpn_C03,2022.1.2,Win32,60.0240096,,,space,6.1608,0,18,18,8,1,ピク　セル　ピポ　ドキ,,,CartoonStims/doctor_kick_boxer_r_no.jpg,audio/pikuserupipodoki.mp3,,,,,,,,,,,,,,,,,,,,,,,,,,,,,,,,,,,,,,,,,,,,,,,,,,,,,,,,,,,,,,,,,,,,,,,,,,
,,,,,,,,,R_1gSI9W0q1PL5wGB,2022-09-03_10h33.19.381,jpn_C03,2022.1.2,Win32,60.0240096,,,space,8.7449,0,19,19,27,1,ピク　パツ　ルピン　ドキ,,,CartoonStims/burglar_shoot_boxer_r_no.jpg,audio/pikupatsulupindoki.mp3,,,,,,,,,,,,,,,,,,,,,,,,,,,,,,,,,,,,,,,,,,,,,,,,,,,,,,,,,,,,,,,,,,,,,,,,,,
,,,,,,,,,R_1gSI9W0q1PL5wGB,2022-09-03_10h33.19.381,jpn_C03,2022.1.2,Win32,60.0240096,,,space,26.097,0,20,20,40,1,プミ　ピク　ホレト　シド,,,CartoonStims/chef_punch_artist_r_no.jpg,audio/pumipikuhoretosido.mp3,,,,,,,,,,,,,,,,,,,,,,,,,,,,,,,,,,,,,,,,,,,,,,,,,,,,,,,,,,,,,,,,,,,,,,,,,,
,,,,,,,,,R_1gSI9W0q1PL5wGB,2022-09-03_10h33.19.381,jpn_C03,2022.1.2,Win32,60.0240096,,,space,5.7728,0,21,21,16,1,トマ　ピク　ホレト　ピポ,,,CartoonStims/chef_point_doctor_r_no.jpg,audio/tomapikuhoretopipo.mp3,,,,,,,,,,,,,,,,,,,,,,,,,,,,,,,,,,,,,,,,,,,,,,,,,,,,,,,,,,,,,,,,,,,,,,,,,,
,,,,,,,,,R_1gSI9W0q1PL5wGB,2022-09-03_10h33.19.381,jpn_C03,2022.1.2,Win32,60.0240096,,,space,6.9006,0,22,22,13,1,トマ　ピク　シド　ムク,,,CartoonStims/artist_point_cowboy_r_no.jpg,audio/tomapikusidomuku.mp3,,,,,,,,,,,,,,,,,,,,,,,,,,,,,,,,,,,,,,,,,,,,,,,,,,,,,,,,,,,,,,,,,,,,,,,,,,
,,,,,,,,,R_1gSI9W0q1PL5wGB,2022-09-03_10h33.19.381,jpn_C03,2022.1.2,Win32,60.0240096,,,space,6.3945,0,23,23,12,1,トマ　ピク　シド　ホレト,,,CartoonStims/artist_point_chef_r_no.jpg,audio/tomapikusidohoreto.mp3,,,,,,,,,,,,,,,,,,,,,,,,,,,,,,,,,,,,,,,,,,,,,,,,,,,,,,,,,,,,,,,,,,,,,,,,,,
,,,,,,,,,R_1gSI9W0q1PL5wGB,2022-09-03_10h33.19.381,jpn_C03,2022.1.2,Win32,60.0240096,,,space,7.737,0,24,24,45,1,プミ　ピク　ピポ　ムク,,,CartoonStims/doctor_punch_cowboy_r_no.jpg,audio/pumipikupipomuku.mp3,,,,,,,,,,,,,,,,,,,,,,,,,,,,,,,,,,,,,,,,,,,,,,,,,,,,,,,,,,,,,,,,,,,,,,,,,,
,,,,,,,,,R_1gSI9W0q1PL5wGB,2022-09-03_10h33.19.381,jpn_C03,2022.1.2,Win32,60.0240096,,,space,5.9692,0,25,25,43,1,プミ　ピク　ムク　ホレト,,,CartoonStims/cowboy_punch_chef_r_no.jpg,audio/pumipikumukuhoreto.mp3,,,,,,,,,,,,,,,,,,,,,,,,,,,,,,,,,,,,,,,,,,,,,,,,,,,,,,,,,,,,,,,,,,,,,,,,,,
,,,,,,,,,R_1gSI9W0q1PL5wGB,2022-09-03_10h33.19.381,jpn_C03,2022.1.2,Win32,60.0240096,,,space,8.9884,0,26,26,5,1,セル　ピク　ホレト　ピポ,,,CartoonStims/chef_kick_doctor_r_no.jpg,audio/serupikuhoretopipo.mp3,,,,,,,,,,,,,,,,,,,,,,,,,,,,,,,,,,,,,,,,,,,,,,,,,,,,,,,,,,,,,,,,,,,,,,,,,,
,,,,,,,,,R_1gSI9W0q1PL5wGB,2022-09-03_10h33.19.381,jpn_C03,2022.1.2,Win32,60.0240096,,,space,12.1176,0,27,27,17,1,トマ　ピク　ホレト　ドキ,,,CartoonStims/chef_point_boxer_r_no.jpg,audio/tomapikuhoretodoki.mp3,,,,,,,,,,,,,,,,,,,,,,,,,,,,,,,,,,,,,,,,,,,,,,,,,,,,,,,,,,,,,,,,,,,,,,,,,,
,,,,,,,,,R_1gSI9W0q1PL5wGB,2022-09-03_10h33.19.381,jpn_C03,2022.1.2,Win32,60.0240096,,,space,3.6705,0,28,28,11,1,セル　ピク　ドキ　ルピン,,,CartoonStims/boxer_kick_burglar_r_no.jpg,audio/serupikudokilupin.mp3,,,,,,,,,,,,,,,,,,,,,,,,,,,,,,,,,,,,,,,,,,,,,,,,,,,,,,,,,,,,,,,,,,,,,,,,,,
,,,,,,,,,R_1gSI9W0q1PL5wGB,2022-09-03_10h33.19.381,jpn_C03,2022.1.2,Win32,60.0240096,,,space,8.8149,0,29,29,18,1,トマ　ピク　ムク　ドキ,,,CartoonStims/cowboy_point_boxer_r_no.jpg,audio/tomapikumukudoki.mp3,,,,,,,,,,,,,,,,,,,,,,,,,,,,,,,,,,,,,,,,,,,,,,,,,,,,,,,,,,,,,,,,,,,,,,,,,,
,,,,,,,,,R_1gSI9W0q1PL5wGB,2022-09-03_10h33.19.381,jpn_C03,2022.1.2,Win32,60.0240096,,,space,8.9036,0,30,30,31,1,パツ　ピク　ムク　ルピン,,,CartoonStims/cowboy_shoot_burglar_r_no.jpg,audio/patsupikumukulupin.mp3,,,,,,,,,,,,,,,,,,,,,,,,,,,,,,,,,,,,,,,,,,,,,,,,,,,,,,,,,,,,,,,,,,,,,,,,,,
,,,,,,,,,R_1gSI9W0q1PL5wGB,2022-09-03_10h33.19.381,jpn_C03,2022.1.2,Win32,60.0240096,,,space,3.5023,0,31,31,21,1,トマ　ピク　ピポ　ルピン,,,CartoonStims/doctor_point_burglar_r_no.jpg,audio/tomapikupipolupin.mp3,,,,,,,,,,,,,,,,,,,,,,,,,,,,,,,,,,,,,,,,,,,,,,,,,,,,,,,,,,,,,,,,,,,,,,,,,,
,,,,,,,,,R_1gSI9W0q1PL5wGB,2022-09-03_10h33.19.381,jpn_C03,2022.1.2,Win32,60.0240096,,,space,5.3574,0,32,32,33,1,パツ　ピク　ピポ　ホレト,,,CartoonStims/doctor_shoot_chef_r_no.jpg,audio/patsupikupipohoreto.mp3,,,,,,,,,,,,,,,,,,,,,,,,,,,,,,,,,,,,,,,,,,,,,,,,,,,,,,,,,,,,,,,,,,,,,,,,,,
,,,,,,,,,R_1gSI9W0q1PL5wGB,2022-09-03_10h33.19.381,jpn_C03,2022.1.2,Win32,60.0240096,,,space,4.5878,0,33,33,19,1,ピク　トマ　ムク　シド,,,CartoonStims/cowboy_point_artist_r_no.jpg,audio/pikutomamukusido.mp3,,,,,,,,,,,,,,,,,,,,,,,,,,,,,,,,,,,,,,,,,,,,,,,,,,,,,,,,,,,,,,,,,,,,,,,,,,
,,,,,,,,,R_1gSI9W0q1PL5wGB,2022-09-03_10h33.19.381,jpn_C03,2022.1.2,Win32,60.0240096,,,space,2.1483,0,34,34,39,1,プミ　ピク　ルピン　シド,,,CartoonStims/burglar_punch_artist_r_no.jpg,audio/pumipikulupinsido.mp3,,,,,,,,,,,,,,,,,,,,,,,,,,,,,,,,,,,,,,,,,,,,,,,,,,,,,,,,,,,,,,,,,,,,,,,,,,
,,,,,,,,,R_1gSI9W0q1PL5wGB,2022-09-03_10h33.19.381,jpn_C03,2022.1.2,Win32,60.0240096,,,space,1.1916,0,35,35,22,1,トマ　ピク　ドキ　ルピン,,,CartoonStims/boxer_point_burglar_r_no.jpg,audio/tomapikudokilupin.mp3,,,,,,,,,,,,,,,,,,,,,,,,,,,,,,,,,,,,,,,,,,,,,,,,,,,,,,,,,,,,,,,,,,,,,,,,,,
,,,,,,,,,R_1gSI9W0q1PL5wGB,2022-09-03_10h33.19.381,jpn_C03,2022.1.2,Win32,60.0240096,,,space,7.12,0,36,36,38,1,プミ　ピク　ルピン　ドキ,,,CartoonStims/burglar_punch_boxer_r_no.jpg,audio/pumipikulupindoki.mp3,,,,,,,,,,,,,,,,,,,,,,,,,,,,,,,,,,,,,,,,,,,,,,,,,,,,,,,,,,,,,,,,,,,,,,,,,,
,,,,,,,,,R_1gSI9W0q1PL5wGB,2022-09-03_10h33.19.381,jpn_C03,2022.1.2,Win32,60.0240096,,,space,3.0905,0,37,37,23,1,ピク　トマ　ドキ　ホレト,,,CartoonStims/boxer_point_chef_r_no.jpg,audio/pikutomadokihoreto.mp3,,,,,,,,,,,,,,,,,,,,,,,,,,,,,,,,,,,,,,,,,,,,,,,,,,,,,,,,,,,,,,,,,,,,,,,,,,
,,,,,,,,,R_1gSI9W0q1PL5wGB,2022-09-03_10h33.19.381,jpn_C03,2022.1.2,Win32,60.0240096,,,space,2.7822,0,38,38,35,1,パツ　ピク　ドキ　ムク,,,CartoonStims/boxer_shoot_cowboy_r_no.jpg,audio/patsupikudokimuku.mp3,,,,,,,,,,,,,,,,,,,,,,,,,,,,,,,,,,,,,,,,,,,,,,,,,,,,,,,,,,,,,,,,,,,,,,,,,,
,,,,,,,,,R_1gSI9W0q1PL5wGB,2022-09-03_10h33.19.381,jpn_C03,2022.1.2,Win32,60.0240096,,,space,3.1344,0,39,39,20,1,トマ　ピク　ピポ　シド,,,CartoonStims/doctor_point_artist_r_no.jpg,audio/tomapikupiposido.mp3,,,,,,,,,,,,,,,,,,,,,,,,,,,,,,,,,,,,,,,,,,,,,,,,,,,,,,,,,,,,,,,,,,,,,,,,,,
,,,,,,,,,R_1gSI9W0q1PL5wGB,2022-09-03_10h33.19.381,jpn_C03,2022.1.2,Win32,60.0240096,,,space,3.1048,0,40,40,28,1,パツ　ピク　ホレト　ドキ,,,CartoonStims/chef_shoot_boxer_r_no.jpg,audio/patsupikuhoretodoki.mp3,,,,,,,,,,,,,,,,,,,,,,,,,,,,,,,,,,,,,,,,,,,,,,,,,,,,,,,,,,,,,,,,,,,,,,,,,,
,,,,,,,,,R_1gSI9W0q1PL5wGB,2022-09-03_10h33.19.381,jpn_C03,2022.1.2,Win32,60.0240096,,,space,22.7199,0,41,41,36,1,プミ　ピク　シド　ピポ,,,CartoonStims/artist_punch_doctor_r_no.jpg,audio/pumipikusidopipo.mp3,,,,,,,,,,,,,,,,,,,,,,,,,,,,,,,,,,,,,,,,,,,,,,,,,,,,,,,,,,,,,,,,,,,,,,,,,,
,,,,,,,,,R_1gSI9W0q1PL5wGB,2022-09-03_10h33.19.381,jpn_C03,2022.1.2,Win32,60.0240096,,,space,7.5398,0,42,42,2,1,セル　ピク　ルピン　ホレト,,,CartoonStims/burglar_kick_chef_r_no.jpg,audio/serupikulupinhoreto.mp3,,,,,,,,,,,,,,,,,,,,,,,,,,,,,,,,,,,,,,,,,,,,,,,,,,,,,,,,,,,,,,,,,,,,,,,,,,
,,,,,,,,,R_1gSI9W0q1PL5wGB,2022-09-03_10h33.19.381,jpn_C03,2022.1.2,Win32,60.0240096,,,space,4.7894,0,43,43,30,1,パツ　ピク　ムク　シド,,,CartoonStims/cowboy_shoot_artist_r_no.jpg,audio/patsupikumukusido.mp3,,,,,,,,,,,,,,,,,,,,,,,,,,,,,,,,,,,,,,,,,,,,,,,,,,,,,,,,,,,,,,,,,,,,,,,,,,
,,,,,,,,,R_1gSI9W0q1PL5wGB,2022-09-03_10h33.19.381,jpn_C03,2022.1.2,Win32,60.0240096,,,space,3.9927,0,44,44,46,1,ピク　プミ　ドキ　ムク,,,CartoonStims/boxer_punch_cowboy_r_no.jpg,audio/pikupumidokimuku.mp3,,,,,,,,,,,,,,,,,,,,,,,,,,,,,,,,,,,,,,,,,,,,,,,,,,,,,,,,,,,,,,,,,,,,,,,,,,
,,,,,,,,,R_1gSI9W0q1PL5wGB,2022-09-03_10h33.19.381,jpn_C03,2022.1.2,Win32,60.0240096,,,space,1.8169,0,45,45,9,1,セル　ピク　ピポ　シド,,,CartoonStims/doctor_kick_artist_r_no.jpg,audio/serupikupiposido.mp3,,,,,,,,,,,,,,,,,,,,,,,,,,,,,,,,,,,,,,,,,,,,,,,,,,,,,,,,,,,,,,,,,,,,,,,,,,
,,,,,,,,,R_1gSI9W0q1PL5wGB,2022-09-03_10h33.19.381,jpn_C03,2022.1.2,Win32,60.0240096,,,space,3.495,0,46,46,4,1,ピク　セル　ホレト　ムク,,,CartoonStims/chef_kick_cowboy_r_no.jpg,audio/pikuseruhoretomuku.mp3,,,,,,,,,,,,,,,,,,,,,,,,,,,,,,,,,,,,,,,,,,,,,,,,,,,,,,,,,,,,,,,,,,,,,,,,,,
,,,,,,,,,R_1gSI9W0q1PL5wGB,2022-09-03_10h33.19.381,jpn_C03,2022.1.2,Win32,60.0240096,,,space,2.69,0,47,47,6,1,セル　ピク　ムク　ピポ,,,CartoonStims/cowboy_kick_doctor_r_no.jpg,audio/serupikumukupipo.mp3,,,,,,,,,,,,,,,,,,,,,,,,,,,,,,,,,,,,,,,,,,,,,,,,,,,,,,,,,,,,,,,,,,,,,,,,,,
,,,,,,,,,R_1gSI9W0q1PL5wGB,2022-09-03_10h33.19.381,jpn_C03,2022.1.2,Win32,60.0240096,,,,,,,,,,,,,,,space,0.1242,left,0,20.3563,,,,,,,,,,,,,,,,,,,,,,,,,,,,0,0,0,0,1,,,,,,,,,,,,,,,,,,,,,,,,,,,,,,,,,,,,,
,,,,,,,,,R_1gSI9W0q1PL5wGB,2022-09-03_10h33.19.381,jpn_C03,2022.1.2,Win32,60.0240096,,,,,,,,,,,,,,,,,,,,,,,,,0,0,0,1,1,CartoonStims/chef_punch_cowboy_r.jpg,プミ　ピク　ホレト　ムク,CartoonStims/chef_kick_cowboy_r.jpg,right,CartoonStims/chef_kick_cowboy_r.jpg,audio/pumipikuhoretomuku.mp3,"残念！ こちらが正しい画像です。

否定文は起きていないことを示しているのを思い出してください。",,,,,,,,,,,,,,,,,,,,,,,,,,,,,,,,,,,,,,,,,,,,,,,,,,,,
,,,,,,,,,R_1gSI9W0q1PL5wGB,2022-09-03_10h33.19.381,jpn_C03,2022.1.2,Win32,60.0240096,,,,,,,,,,,,,,,,,left,0,30.1072,,,,,,,,,,,,,,,,,,,,,,,,,,,,0,0,0,0,1,,,,,,,,,,,,,,,,,,,,,,,,,,,,,,,,,,,,,
,,,,,,,,,R_1gSI9W0q1PL5wGB,2022-09-03_10h33.19.381,jpn_C03,2022.1.2,Win32,60.0240096,,,,,,,,,,,,,,,,,,,,,,,,,0,1,1,7,1,CartoonStims/cowboy_point_chef_r.jpg,ピク　トマ　ムク　ホレト,CartoonStims/cowboy_kick_chef_r.jpg,right,CartoonStims/cowboy_kick_chef_r.jpg,audio/pikutomamukuhoreto.mp3,"残念！ こちらが正しい画像です。

否定文は起きていないことを示しているのを思い出してください。",,,,,,,,,,,,,,,,,,,,,,,,,,,,,,,,,,,,,,,,,,,,,,,,,,,,
,,,,,,,,,R_1gSI9W0q1PL5wGB,2022-09-03_10h33.19.381,jpn_C03,2022.1.2,Win32,60.0240096,,,,,,,,,,,,,,,,,right,1,17.4214,,,,,,,,,,,,,,,,,,0,0,0,0,1,,,,,,,,,,,,,,,,,,,,,,,,,,,,,,,,,,,,,,,,,,,,,,,
,,,,,,,,,R_1gSI9W0q1PL5wGB,2022-09-03_10h33.19.381,jpn_C03,2022.1.2,Win32,60.0240096,,,,,,,,,,,,,,,,,,,,,,,,,0,2,2,9,1,CartoonStims/boxer_shoot_doctor_r.jpg,パツ　ピク　ドキ　ピポ,CartoonStims/boxer_point_doctor_r.jpg,right,CartoonStims/boxer_point_doctor_r.jpg,audio/patsupikudokipipo.mp3,"残念！ こちらが正しい画像です。

否定文は起きていないことを示しているのを思い出してください。",,,,,,,,,,,,,,,,,,,,,,,,,,,,,,,,,,,,,,,,,,,,,,,,,,,,
,,,,,,,,,R_1gSI9W0q1PL5wGB,2022-09-03_10h33.19.381,jpn_C03,2022.1.2,Win32,60.0240096,,,,,,,,,,,,,,,,,right,1,3.2519,,,,,,,,,,,,,,,,,,0,0,0,0,1,,,,,,,,,,,,,,,,,,,,,,,,,,,,,,,,,,,,,,,,,,,,,,,
,,,,,,,,,R_1gSI9W0q1PL5wGB,2022-09-03_10h33.19.381,jpn_C03,2022.1.2,Win32,60.0240096,,,,,,,,,,,,,,,,,,,,,,,,,0,3,3,11,1,CartoonStims/chef_shoot_burglar_r.jpg,パツ　ピク　ホレト　ルピン,CartoonStims/chef_kick_burglar_r.jpg,right,CartoonStims/chef_kick_burglar_r.jpg,audio/patsupikuhoretolupin.mp3,"残念！ こちらが正しい画像です。

否定文は起きていないことを示しているのを思い出してください。",,,,,,,,,,,,,,,,,,,,,,,,,,,,,,,,,,,,,,,,,,,,,,,,,,,,
,,,,,,,,,R_1gSI9W0q1PL5wGB,2022-09-03_10h33.19.381,jpn_C03,2022.1.2,Win32,60.0240096,,,,,,,,,,,,,,,,,left,1,20.5597,0,0,0,0,1,,,,,,,,,,,,,,,,,,,,,,,,,,,,,,,,,,,,,,,,,,,,,,,,,,,,,,,,,,,,,,,,
,,,,,,,,,R_1gSI9W0q1PL5wGB,2022-09-03_10h33.19.381,jpn_C03,2022.1.2,Win32,60.0240096,,,,,,,,,,,,,,,,,,,,,,,,,0,4,4,0,1,CartoonStims/artist_shoot_burglar_r.jpg,ピク　プミ　シド　ルピン,CartoonStims/artist_punch_burglar_r.jpg,left,CartoonStims/artist_shoot_burglar_r.jpg,audio/pikupumisidolupin.mp3,"残念！ こちらが正しい画像です。

否定文は起きていないことを示しているのを思い出してください。",,,,,,,,,,,,,,,,,,,,,,,,,,,,,,,,,,,,,,,,,,,,,,,,,,,,
,,,,,,,,,R_1gSI9W0q1PL5wGB,2022-09-03_10h33.19.381,jpn_C03,2022.1.2,Win32,60.0240096,,,,,,,,,,,,,,,,,right,0,2.5807,,,,,,,,,,,,,,,,,,,,,,,0,0,0,0,1,,,,,,,,,,,,,,,,,,,,,,,,,,,,,,,,,,,,,,,,,,
,,,,,,,,,R_1gSI9W0q1PL5wGB,2022-09-03_10h33.19.381,jpn_C03,2022.1.2,Win32,60.0240096,,,,,,,,,,,,,,,,,,,,,,,,,0,5,5,2,1,CartoonStims/doctor_point_boxer_r.jpg,プミ　ピク　ピポ　ドキ,CartoonStims/doctor_punch_boxer_r.jpg,left,CartoonStims/doctor_point_boxer_r.jpg,audio/pumipikupipodoki.mp3,"残念！ こちらが正しい画像です。

否定文は起きていないことを示しているのを思い出してください。",,,,,,,,,,,,,,,,,,,,,,,,,,,,,,,,,,,,,,,,,,,,,,,,,,,,
,,,,,,,,,R_1gSI9W0q1PL5wGB,2022-09-03_10h33.19.381,jpn_C03,2022.1.2,Win32,60.0240096,,,,,,,,,,,,,,,,,left,1,15.8794,0,0,0,0,1,,,,,,,,,,,,,,,,,,,,,,,,,,,,,,,,,,,,,,,,,,,,,,,,,,,,,,,,,,,,,,,,
,,,,,,,,,R_1gSI9W0q1PL5wGB,2022-09-03_10h33.19.381,jpn_C03,2022.1.2,Win32,60.0240096,,,,,,,,,,,,,,,,,,,,,,,,,0,6,6,6,1,CartoonStims/artist_shoot_boxer_r.jpg,トマ　ピク　シド　ドキ,CartoonStims/artist_point_boxer_r.jpg,left,CartoonStims/artist_shoot_boxer_r.jpg,audio/tomapikusidodoki.mp3,"残念！ こちらが正しい画像です。

否定文は起きていないことを示しているのを思い出してください。",,,,,,,,,,,,,,,,,,,,,,,,,,,,,,,,,,,,,,,,,,,,,,,,,,,,
,,,,,,,,,R_1gSI9W0q1PL5wGB,2022-09-03_10h33.19.381,jpn_C03,2022.1.2,Win32,60.0240096,,,,,,,,,,,,,,,,,right,1,24.816,,,,,,,,,,,,,,,,,,0,0,0,0,1,,,,,,,,,,,,,,,,,,,,,,,,,,,,,,,,,,,,,,,,,,,,,,,
,,,,,,,,,R_1gSI9W0q1PL5wGB,2022-09-03_10h33.19.381,jpn_C03,2022.1.2,Win32,60.0240096,,,,,,,,,,,,,,,,,,,,,,,,,0,7,7,5,1,CartoonStims/boxer_kick_cowboy_r.jpg,セル　ピク　ドキ　ムク,CartoonStims/boxer_punch_cowboy_r.jpg,right,CartoonStims/boxer_punch_cowboy_r.jpg,audio/serupikudokimuku.mp3,"残念！ こちらが正しい画像です。

否定文は起きていないことを示しているのを思い出してください。",,,,,,,,,,,,,,,,,,,,,,,,,,,,,,,,,,,,,,,,,,,,,,,,,,,,
,,,,,,,,,R_1gSI9W0q1PL5wGB,2022-09-03_10h33.19.381,jpn_C03,2022.1.2,Win32,60.0240096,,,,,,,,,,,,,,,,,left,1,64.6849,0,0,0,0,1,,,,,,,,,,,,,,,,,,,,,,,,,,,,,,,,,,,,,,,,,,,,,,,,,,,,,,,,,,,,,,,,
,,,,,,,,,R_1gSI9W0q1PL5wGB,2022-09-03_10h33.19.381,jpn_C03,2022.1.2,Win32,60.0240096,,,,,,,,,,,,,,,,,,,,,,,,,0,8,8,4,1,CartoonStims/burglar_shoot_doctor_r.jpg,セル　ピク　ルピン　ピポ,CartoonStims/burglar_kick_doctor_r.jpg,left,CartoonStims/burglar_shoot_doctor_r.jpg,audio/serupikulupinpipo.mp3,"残念！ こちらが正しい画像です。

否定文は起きていないことを示しているのを思い出してください。",,,,,,,,,,,,,,,,,,,,,,,,,,,,,,,,,,,,,,,,,,,,,,,,,,,,
,,,,,,,,,R_1gSI9W0q1PL5wGB,2022-09-03_10h33.19.381,jpn_C03,2022.1.2,Win32,60.0240096,,,,,,,,,,,,,,,,,right,1,13.01,,,,,,,,,,,,,,,,,,0,0,0,0,1,,,,,,,,,,,,,,,,,,,,,,,,,,,,,,,,,,,,,,,,,,,,,,,
,,,,,,,,,R_1gSI9W0q1PL5wGB,2022-09-03_10h33.19.381,jpn_C03,2022.1.2,Win32,60.0240096,,,,,,,,,,,,,,,,,,,,,,,,,0,9,9,3,1,CartoonStims/chef_kick_artist_r.jpg,ピク　セル　ホレト　シド,CartoonStims/chef_point_artist_r.jpg,right,CartoonStims/chef_point_artist_r.jpg,audio/pikuseruhoretosido.mp3,"残念！ こちらが正しい画像です。

否定文は起きていないことを示しているのを思い出してください。",,,,,,,,,,,,,,,,,,,,,,,,,,,,,,,,,,,,,,,,,,,,,,,,,,,,
,,,,,,,,,R_1gSI9W0q1PL5wGB,2022-09-03_10h33.19.381,jpn_C03,2022.1.2,Win32,60.0240096,,,,,,,,,,,,,,,,,right,0,19.5037,,,,,,,,,,,,,,,,,,,,,,,0,0,0,0,1,,,,,,,,,,,,,,,,,,,,,,,,,,,,,,,,,,,,,,,,,,
,,,,,,,,,R_1gSI9W0q1PL5wGB,2022-09-03_10h33.19.381,jpn_C03,2022.1.2,Win32,60.0240096,,,,,,,,,,,,,,,,,,,,,,,,,0,10,10,10,1,CartoonStims/doctor_punch_cowboy_r.jpg,ピク　パツ　ピポ　ムク,CartoonStims/doctor_shoot_cowboy_r.jpg,left,CartoonStims/doctor_punch_cowboy_r.jpg,audio/pikupatsupipomuku.mp3,"残念！ こちらが正しい画像です。

否定文は起きていないことを示しているのを思い出してください。",,,,,,,,,,,,,,,,,,,,,,,,,,,,,,,,,,,,,,,,,,,,,,,,,,,,
,,,,,,,,,R_1gSI9W0q1PL5wGB,2022-09-03_10h33.19.381,jpn_C03,2022.1.2,Win32,60.0240096,,,,,,,,,,,,,,,,,left,1,8.3236,0,0,0,0,1,,,,,,,,,,,,,,,,,,,,,,,,,,,,,,,,,,,,,,,,,,,,,,,,,,,,,,,,,,,,,,,,
,,,,,,,,,R_1gSI9W0q1PL5wGB,2022-09-03_10h33.19.381,jpn_C03,2022.1.2,Win32,60.0240096,,,,,,,,,,,,,,,,,,,,,,,,,0,11,11,8,1,CartoonStims/burglar_punch_artist_r.jpg,トマ　ピク　ルピン　シド,CartoonStims/burglar_point_artist_r.jpg,left,CartoonStims/burglar_punch_artist_r.jpg,audio/tomapikulupinsido.mp3,"残念！ こちらが正しい画像です。

否定文は起きていないことを示しているのを思い出してください。",,,,,,,,,,,,,,,,,,,,,,,,,,,,,,,,,,,,,,,,,,,,,,,,,,,,
,,,,,,,,,R_1gSI9W0q1PL5wGB,2022-09-03_10h33.19.381,jpn_C03,2022.1.2,Win32,60.0240096,,,,,,,,,,,,,CartoonStims/doctor_kick_chef_r.jpg,,,,,,,,,,,,,,,,,,,,,,,,,,,,,,,,,,,,,,,space,2.7815,トマ　ピク　ピポ　シド,right,31.9173,,,,,,0,0,0,25,1,,,,,,,,,,,,,,,,,,,,セル　ピポ　ホレト,セル　ピポ　ホレト,0
,,,,,,,,,R_1gSI9W0q1PL5wGB,2022-09-03_10h33.19.381,jpn_C03,2022.1.2,Win32,60.0240096,,,,,,,,,,,,,CartoonStims/boxer_shoot_burglar_r_no.jpg,,,,,,,,,,,,,,,,,,,,,,,,,,,,,,,,,,,,,,,,,ピク　パツ　ドキ　ルピン,right,29.7051,,,,,,0,1,1,17,1,,,,,,,,,,,,,,,,,,,,ピク　パツ　ドキ　ルピン,パツ　ピク　ドキ　ルピン,1
,,,,,,,,,R_1gSI9W0q1PL5wGB,2022-09-03_10h33.19.381,jpn_C03,2022.1.2,Win32,60.0240096,,,,,,,,,,,,,CartoonStims/doctor_shoot_artist_r_no.jpg,,,,,,,,,,,,,,,,,,,,,,,,,,,,,,,,,,,,,,,,,ピク　パツ　ピポ　シド,right,29.3494,,,,,,0,2,2,16,1,,,,,,,,,,,,,,,,,,,,ピク　パツ　ピポ　シド,パツ　ピク　ピポ　シド,1
,,,,,,,,,R_1gSI9W0q1PL5wGB,2022-09-03_10h33.19.381,jpn_C03,2022.1.2,Win32,60.0240096,,,,,,,,,,,,,CartoonStims/boxer_punch_artist_r.jpg,,,,,,,,,,,,,,,,,,,,,,,,,,,,,,,,,,,,,,,,,プミ　ドキ　シド,right,12.6269,,,,,,0,3,3,35,1,,,,,,,,,,,,,,,,,,,,プミ　ドキ　シド,プミ　ドキ　シド,0
,,,,,,,,,R_1gSI9W0q1PL5wGB,2022-09-03_10h33.19.381,jpn_C03,2022.1.2,Win32,60.0240096,,,,,,,,,,,,,CartoonStims/doctor_punch_boxer_r.jpg,,,,,,,,,,,,,,,,,,,,,,,,,,,,,,,,,,,,,,,,,プミ　ピポ　ドキ,right,8.3695,,,,,,0,4,4,34,1,,,,,,,,,,,,,,,,,,,,プミ　ピポ　ドキ,プミ　ピポ　ドキ,0
,,,,,,,,,R_1gSI9W0q1PL5wGB,2022-09-03_10h33.19.381,jpn_C03,2022.1.2,Win32,60.0240096,,,,,,,,,,,,,CartoonStims/burglar_shoot_chef_r.jpg,,,,,,,,,,,,,,,,,,,,,,,,,,,,,,,,,,,,,,,,,パツ　ルピン　ホレト,right,9.0521,,,,,,0,5,5,30,1,,,,,,,,,,,,,,,,,,,,パツ　ルピン　ホレト,パツ　ルピン　ホレト,0
,,,,,,,,,R_1gSI9W0q1PL5wGB,2022-09-03_10h33.19.381,jpn_C03,2022.1.2,Win32,60.0240096,,,,,,,,,,,,,CartoonStims/artist_shoot_chef_r_no.jpg,,,,,,,,,,,,,,,,,,,,,,,,,,,,,,,,,,,,,,,,,パツ　プミ　シド　ホレト,right,11.4822,,,,,,0,6,6,12,1,,,,,,,,,,,,,,,,,,,,ピク　パツ　シド　ホレト,パツ　ピク　シド　ホレト,1
,,,,,,,,,R_1gSI9W0q1PL5wGB,2022-09-03_10h33.19.381,jpn_C03,2022.1.2,Win32,60.0240096,,,,,,,,,,,,,CartoonStims/boxer_punch_chef_r_no.jpg,,,,,,,,,,,,,,,,,,,,,,,,,,,,,,,,,,,,,,,,,プミ　ピポ　ドキ　ホレト,right,60.7556,,,,,,0,7,7,23,1,,,,,,,,,,,,,,,,,,,,ピク　プミ　ドキ　ホレト,プミ　ピク　ドキ　ホレト,1
,,,,,,,,,R_1gSI9W0q1PL5wGB,2022-09-03_10h33.19.381,jpn_C03,2022.1.2,Win32,60.0240096,,,,,,,,,,,,,CartoonStims/doctor_punch_burglar_r_no.jpg,,,,,,,,,,,,,,,,,,,,,,,,,,,,,,,,,,,,,,,,,パツ　プミ　ピポ　ルピン,right,58.0566,,,,,,0,8,8,22,1,,,,,,,,,,,,,,,,,,,,ピク　プミ　ピポ　ルピン,プミ　ピク　ピポ　ルピン,1
,,,,,,,,,R_1gSI9W0q1PL5wGB,2022-09-03_10h33.19.381,jpn_C03,2022.1.2,Win32,60.0240096,,,,,,,,,,,,,CartoonStims/cowboy_shoot_doctor_r.jpg,,,,,,,,,,,,,,,,,,,,,,,,,,,,,,,,,,,,,,,,,パツ　ムク　ピポ,right,8.3134,,,,,,0,9,9,32,1,,,,,,,,,,,,,,,,,,,,パツ　ムク　ピポ,パツ　ムク　ピポ,0
,,,,,,,,,R_1gSI9W0q1PL5wGB,2022-09-03_10h33.19.381,jpn_C03,2022.1.2,Win32,60.0240096,,,,,,,,,,,,,CartoonStims/burglar_punch_doctor_r_no.jpg,,,,,,,,,,,,,,,,,,,,,,,,,,,,,,,,,,,,,,,,,パツ　プミ　ルピン　ピポ,right,12.3535,,,,,,0,10,10,19,1,,,,,,,,,,,,,,,,,,,,ピク　プミ　ルピン　ピポ,プミ　ピク　ルピン　ピポ,1
,,,,,,,,,R_1gSI9W0q1PL5wGB,2022-09-03_10h33.19.381,jpn_C03,2022.1.2,Win32,60.0240096,,,,,,,,,,,,,CartoonStims/artist_point_burglar_r_no.jpg,,,,,,,,,,,,,,,,,,,,,,,,,,,,,,,,,,,,,,,,,ピポ　ピポ　セド　ルピン,right,44.5141,,,,,,0,11,11,6,1,,,,,,,,,,,,,,,,,,,,ピク　トマ　シド　ルピン,トマ　ピク　シド　ルピン,1
,,,,,,,,,R_1gSI9W0q1PL5wGB,2022-09-03_10h33.19.381,jpn_C03,2022.1.2,Win32,60.0240096,,,,,,,,,,,,,CartoonStims/chef_shoot_doctor_r_no.jpg,,,,,,,,,,,,,,,,,,,,,,,,,,,,,,,,,,,,,,,,,パツ　ピポ　ホレト　ピポ,right,18.9683,,,,,,0,12,12,14,1,,,,,,,,,,,,,,,,,,,,ピク　パツ　ホレト　ピポ,パツ　ピク　ホレト　ピポ,1
,,,,,,,,,R_1gSI9W0q1PL5wGB,2022-09-03_10h33.19.381,jpn_C03,2022.1.2,Win32,60.0240096,,,,,,,,,,,,,CartoonStims/burglar_point_chef_r_no.jpg,,,,,,,,,,,,,,,,,,,,,,,,,,,,,,,,,,,,,,,,,セド　ピポ　ルピン　ホレト,right,38.6168,,,,,,0,13,13,7,1,,,,,,,,,,,,,,,,,,,,ピク　トマ　ルピン　ホレト,トマ　ピク　ルピン　ホレト,1
,,,,,,,,,R_1gSI9W0q1PL5wGB,2022-09-03_10h33.19.381,jpn_C03,2022.1.2,Win32,60.0240096,,,,,,,,,,,,,CartoonStims/doctor_kick_cowboy_r_no.jpg,,,,,,,,,,,,,,,,,,,,,,,,,,,,,,,,,,,,,,,,,セル　プミ　ピポ　ムク,right,22.9101,,,,,,0,14,14,4,1,,,,,,,,,,,,,,,,,,,,ピク　セル　ピポ　ムク,セル　ピク　ピポ　ムク,1
,,,,,,,,,R_1gSI9W0q1PL5wGB,2022-09-03_10h33.19.381,jpn_C03,2022.1.2,Win32,60.0240096,,,,,,,,,,,,,CartoonStims/chef_punch_boxer_r_no.jpg,,,,,,,,,,,,,,,,,,,,,,,,,,,,,,,,,,,,,,,,,パツ　プミ　ホレト　ドキ,right,9.0424,,,,,,0,15,15,20,1,,,,,,,,,,,,,,,,,,,,ピク　プミ　ホレト　ドキ,プミ　ピク　ホレト　ドキ,1
,,,,,,,,,R_1gSI9W0q1PL5wGB,2022-09-03_10h33.19.381,jpn_C03,2022.1.2,Win32,60.0240096,,,,,,,,,,,,,CartoonStims/artist_kick_boxer_r_no.jpg,,,,,,,,,,,,,,,,,,,,,,,,,,,,,,,,,,,,,,,,,セル　プミ　セド　ドキ,right,12.1021,,,,,,0,16,16,0,1,,,,,,,,,,,,,,,,,,,,ピク　セル　シド　ドキ,セル　ピク　シド　ドキ,1
,,,,,,,,,R_1gSI9W0q1PL5wGB,2022-09-03_10h33.19.381,jpn_C03,2022.1.2,Win32,60.0240096,,,,,,,,,,,,,CartoonStims/cowboy_kick_chef_r_no.jpg,,,,,,,,,,,,,,,,,,,,,,,,,,,,,,,,,,,,,,,,,パツ　プミ　セド　ホレト,right,13.5977,,,,,,0,17,17,3,1,,,,,,,,,,,,,,,,,,,,ピク　セル　ムク　ホレト,セル　ピク　ムク　ホレト,1
,,,,,,,,,R_1gSI9W0q1PL5wGB,2022-09-03_10h33.19.381,jpn_C03,2022.1.2,Win32,60.0240096,,,,,,,,,,,,,CartoonStims/boxer_point_artist_r_no.jpg,,,,,,,,,,,,,,,,,,,,,,,,,,,,,,,,,,,,,,,,,ピコ　ピポ　ドキ　セド,right,27.5644,,,,,,0,18,18,11,1,,,,,,,,,,,,,,,,,,,,ピク　トマ　ドキ　シド,トマ　ピク　ドキ　シド,1
,,,,,,,,,R_1gSI9W0q1PL5wGB,2022-09-03_10h33.19.381,jpn_C03,2022.1.2,Win32,60.0240096,,,,,,,,,,,,,CartoonStims/burglar_point_artist_r.jpg,,,,,,,,,,,,,,,,,,,,,,,,,,,,,,,,,,,,,,,,,ピコ　ルピン　セド,right,8.4429,,,,,,0,19,19,28,1,,,,,,,,,,,,,,,,,,,,トマ　ルピン　シド,トマ　ルピン　シド,0
,,,,,,,,,R_1gSI9W0q1PL5wGB,2022-09-03_10h33.19.381,jpn_C03,2022.1.2,Win32,60.0240096,,,,,,,,,,,,,CartoonStims/chef_point_cowboy_r_no.jpg,,,,,,,,,,,,,,,,,,,,,,,,,,,,,,,,,,,,,,,,,ピコ　ピポ　ホレト　ムク,right,16.8706,,,,,,0,20,20,8,1,,,,,,,,,,,,,,,,,,,,ピク　トマ　ホレト　ムク,トマ　ピク　ホレト　ムク,1
,,,,,,,,,R_1gSI9W0q1PL5wGB,2022-09-03_10h33.19.381,jpn_C03,2022.1.2,Win32,60.0240096,,,,,,,,,,,,,CartoonStims/boxer_kick_doctor_r_no.jpg,,,,,,,,,,,,,,,,,,,,,,,,,,,,,,,,,,,,,,,,,セル　ピコ　ドキ　ピポ,right,52.457,,,,,,0,21,21,5,1,,,,,,,,,,,,,,,,,,,,ピク　セル　ドキ　ピポ,セル　ピク　ドキ　ピポ,1
,,,,,,,,,R_1gSI9W0q1PL5wGB,2022-09-03_10h33.19.381,jpn_C03,2022.1.2,Win32,60.0240096,,,,,,,,,,,,,CartoonStims/cowboy_shoot_boxer_r_no.jpg,,,,,,,,,,,,,,,,,,,,,,,,,,,,,,,,,,,,,,,,,パツ　ピコ　ムク　ドキ,right,13.8477,,,,,,0,22,22,15,1,,,,,,,,,,,,,,,,,,,,ピク　パツ　ムク　ドキ,パツ　ピク　ムク　ドキ,1
,,,,,,,,,R_1gSI9W0q1PL5wGB,2022-09-03_10h33.19.381,jpn_C03,2022.1.2,Win32,60.0240096,,,,,,,,,,,,,CartoonStims/boxer_kick_cowboy_r.jpg,,,,,,,,,,,,,,,,,,,,,,,,,,,,,,,,,,,,,,,,,セル　ドキ　ムク,right,12.4005,,,,,,0,23,23,26,1,,,,,,,,,,,,,,,,,,,,セル　ドキ　ムク,セル　ドキ　ムク,0
,,,,,,,,,R_1gSI9W0q1PL5wGB,2022-09-03_10h33.19.381,jpn_C03,2022.1.2,Win32,60.0240096,,,,,,,,,,,,,CartoonStims/chef_kick_burglar_r_no.jpg,,,,,,,,,,,,,,,,,,,,,,,,,,,,,,,,,,,,,,,,,セル　ピコ　ホレト　ルピン,right,17.645,,,,,,0,24,24,2,1,,,,,,,,,,,,,,,,,,,,ピク　セル　ホレト　ルピン,セル　ピク　ホレト　ルピン,1
,,,,,,,,,R_1gSI9W0q1PL5wGB,2022-09-03_10h33.19.381,jpn_C03,2022.1.2,Win32,60.0240096,,,,,,,,,,,,,CartoonStims/chef_point_burglar_r.jpg,,,,,,,,,,,,,,,,,,,,,,,,,,,,,,,,,,,,,,,,,ムキ　ピポ　ルピン,right,62.0789,,,,,,0,25,25,29,1,,,,,,,,,,,,,,,,,,,,トマ　ホレト　ルピン,トマ　ホレト　ルピン,0
,,,,,,,,,R_1gSI9W0q1PL5wGB,2022-09-03_10h33.19.381,jpn_C03,2022.1.2,Win32,60.0240096,,,,,,,,,,,,,CartoonStims/cowboy_point_doctor_r_no.jpg,,,,,,,,,,,,,,,,,,,,,,,,,,,,,,,,,,,,,,,,,ムキ　ピコ　ムク　ピポ,right,19.4599,,,,,,0,26,26,9,1,,,,,,,,,,,,,,,,,,,,ピク　トマ　ムク　ピポ,トマ　ピク　ムク　ピポ,1
,,,,,,,,,R_1gSI9W0q1PL5wGB,2022-09-03_10h33.19.381,jpn_C03,2022.1.2,Win32,60.0240096,,,,,,,,,,,,,CartoonStims/burglar_shoot_cowboy_r_no.jpg,,,,,,,,,,,,,,,,,,,,,,,,,,,,,,,,,,,,,,,,,パツ　ピコ　ルピン　ムク,right,8.3223,,,,,,0,27,27,13,1,,,,,,,,,,,,,,,,,,,,ピク　パツ　ルピン　ムク,パツ　ピク　ルピン　ムク,1
,,,,,,,,,R_1gSI9W0q1PL5wGB,2022-09-03_10h33.19.381,jpn_C03,2022.1.2,Win32,60.0240096,,,,,,,,,,,,,CartoonStims/doctor_point_boxer_r_no.jpg,,,,,,,,,,,,,,,,,,,,,,,,,,,,,,,,,,,,,,,,,,right,0.1008,,,,,,0,28,28,10,1,,,,,,,,,,,,,,,,,,,,ピク　トマ　ピポ　ドキ,トマ　ピク　ピポ　ドキ,1
,,,,,,,,,R_1gSI9W0q1PL5wGB,2022-09-03_10h33.19.381,jpn_C03,2022.1.2,Win32,60.0240096,,,,,,,,,,,,,CartoonStims/cowboy_kick_burglar_r.jpg,,,,,,,,,,,,,,,,,,,,,,,,,,,,,,,,,,,,,,,,,セル　ムク　ルピン,right,33.4017,,,,,,0,29,29,24,1,,,,,,,,,,,,,,,,,,,,セル　ムク　ルピン,セル　ムク　ルピン,0
,,,,,,,,,R_1gSI9W0q1PL5wGB,2022-09-03_10h33.19.381,jpn_C03,2022.1.2,Win32,60.0240096,,,,,,,,,,,,,CartoonStims/burglar_kick_artist_r_no.jpg,,,,,,,,,,,,,,,,,,,,,,,,,,,,,,,,,,,,,,,,,セル　ピコ　ルピン,right,7.6731,,,,,,0,30,30,1,1,,,,,,,,,,,,,,,,,,,,ピク　セル　ルピン　シド,セル　ピク　ルピン　シド,1
,,,,,,,,,R_1gSI9W0q1PL5wGB,2022-09-03_10h33.19.381,jpn_C03,2022.1.2,Win32,60.0240096,,,,,,,,,,,,,CartoonStims/cowboy_punch_artist_r_no.jpg,,,,,,,,,,,,,,,,,,,,,,,,,,,,,,,,,,,,,,,,,パツ　ムキ　ムク　セド,right,52.1899,,,,,,0,31,31,21,1,,,,,,,,,,,,,,,,,,,,ピク　プミ　ムク　シド,プミ　ピク　ムク　シド,1
,,,,,,,,,R_1gSI9W0q1PL5wGB,2022-09-03_10h33.19.381,jpn_C03,2022.1.2,Win32,60.0240096,,,,,,,,,,,,,CartoonStims/artist_point_boxer_r.jpg,,,,,,,,,,,,,,,,,,,,,,,,,,,,,,,,,,,,,,,,,ムキ　セド　ドキ,right,12.2724,,,,,,0,32,32,27,1,,,,,,,,,,,,,,,,,,,,トマ　シド　ドキ,トマ　シド　ドキ,0
,,,,,,,,,R_1gSI9W0q1PL5wGB,2022-09-03_10h33.19.381,jpn_C03,2022.1.2,Win32,60.0240096,,,,,,,,,,,,,CartoonStims/chef_shoot_cowboy_r.jpg,,,,,,,,,,,,,,,,,,,,,,,,,,,,,,,,,,,,,,,,,パツ　ホレト　ムク,right,13.1742,,,,,,0,33,33,31,1,,,,,,,,,,,,,,,,,,,,パツ　ホレト　ムク,パツ　ホレト　ムク,0
,,,,,,,,,R_1gSI9W0q1PL5wGB,2022-09-03_10h33.19.381,jpn_C03,2022.1.2,Win32,60.0240096,,,,,,,,,,,,,CartoonStims/artist_punch_cowboy_r_no.jpg,,,,,,,,,,,,,,,,,,,,,,,,,,,,,,,,,,,,,,,,,パツ　ピコ　セド　ムク,right,12.5665,,,,,,0,34,34,18,1,,,,,,,,,,,,,,,,,,,,ピク　プミ　シド　ムク,プミ　ピク　シド　ムク,1
,,,,,,,,,R_1gSI9W0q1PL5wGB,2022-09-03_10h33.19.381,jpn_C03,2022.1.2,Win32,60.0240096,,,,,,,,,,,,,CartoonStims/artist_punch_burglar_r.jpg,,,,,,,,,,,,,,,,,,,,,,,,,,,,,,,,,,,,,,,,,パツ　セド　ルピン,right,13.6435,,,,,,0,35,35,33,1,,,,,,,,,,,,,,,,,,,,プミ　シド　ルピン,プミ　シド　ルピン,0
,,,,,,,,,R_1gSI9W0q1PL5wGB,2022-09-03_10h33.19.381,jpn_C03,2022.1.2,Win32,60.0240096,,,,,,,,,,,,,,,,,,,,,,,,,,,,,,,,,,,,,,,,,,,,,,,,,,,,,,,,,,,,,,,,,,,,,space,1.2591,0,2,2,2,1,VNegCondition.xlsx,"ここではこの言語における否定の文を学習していただきます。引き続き注意して、 聞こえた音を復唱してください。

スペースキーを押してください。",1,VNegFCT.xlsx,ここからクイズが始まります。 スクリーンに表示されるテキストに合うイメージを選んでください。,NegTest.xlsx,1,最後にここまで学んだことをアウトプットしていただきます。 テキストボックスにあるイメージを描写するテキストを入力してください。 このタスクでは、 答え合わせは行いません。,0,これですべての実験が終わりました。 お疲れさまです。 この後はアンケートに答えていただきます。,,,