key_resp_instr_a.keys,key_resp_instr_a.rt,key_resp_instr_b.keys,key_resp_instr_b.rt,dummy.thisRepN,dummy.thisTrialN,dummy.thisN,dummy.thisIndex,dummy.ran,participant,date,expName,psychopyVersion,OS,frameRate,key_resp_instr1.keys,key_resp_instr1.rt,key_resp.keys,key_resp.rt,exp_loop.thisRepN,exp_loop.thisTrialN,exp_loop.thisN,exp_loop.thisIndex,exp_loop.ran,Word,English,Flip,Path,Audio,key_resp_instr2.keys,key_resp_instr2.rt,key_resp_fct.keys,key_resp_fct.corr,key_resp_fct.rt,trials_3.thisRepN,trials_3.thisTrialN,trials_3.thisN,trials_3.thisIndex,trials_3.ran,fct_loop.thisRepN,fct_loop.thisTrialN,fct_loop.thisN,fct_loop.thisIndex,fct_loop.ran,left_img,word,right_img,correctans,correct_img,audio,incorrect_feedback,trials_2.thisRepN,trials_2.thisTrialN,trials_2.thisN,trials_2.thisIndex,trials_2.ran,trials.thisRepN,trials.thisTrialN,trials.thisN,trials.thisIndex,trials.ran,trials_4.thisRepN,trials_4.thisTrialN,trials_4.thisN,trials_4.thisIndex,trials_4.ran,key_resp_instr3.keys,key_resp_instr3.rt,textbox.text,key_resp_2.keys,key_resp_2.rt,fb_yn.thisRepN,fb_yn.thisTrialN,fb_yn.thisN,fb_yn.thisIndex,fb_yn.ran,gather_loop.thisRepN,gather_loop.thisTrialN,gather_loop.thisN,gather_loop.thisIndex,gather_loop.ran,Text,Wordbank,key_resp_instr4.keys,key_resp_instr4.rt,master_loop.thisRepN,master_loop.thisTrialN,master_loop.thisN,master_loop.thisIndex,master_loop.ran,exposure_file,instr_1,exp_reps,fct_file,instr_2,gather_file,gather_reps,instr_3,fReps,instr_4,NegVSentence,VNegSentence,NegTF
space,7.3329,space,10.7766,0,0,0,0,1,R_2uwzMKyW3X19woa,2022-07-03_21h40.18.074,jpn_C02,2022.1.2,Win32,59.96282305,,,,,,,,,,,,,,,,,,,,,,,,,,,,,,,,,,,,,,,,,,,,,,,,,,,,,,,,,,,,,,,,,,,,,,,,,,,,,,,,,,,,,,,,
,,,,,,,,,R_2uwzMKyW3X19woa,2022-07-03_21h40.18.074,jpn_C02,2022.1.2,Win32,59.96282305,space,7.4691,space,6.0502,0,0,0,5,1,ドキ,boxer,,CartoonStims/boxer_r.jpg,audio/doki.mp3,,,,,,,,,,,,,,,,,,,,,,,,,,,,,,,,,,,,,,,,,,,,,,,,,,,,,,,,,,,,,,,,,,,,,,,,,,
,,,,,,,,,R_2uwzMKyW3X19woa,2022-07-03_21h40.18.074,jpn_C02,2022.1.2,Win32,59.96282305,,,space,5.2269,0,1,1,1,1,ルピン,burglar,,CartoonStims/burglar_r.jpg,audio/lupin.mp3,,,,,,,,,,,,,,,,,,,,,,,,,,,,,,,,,,,,,,,,,,,,,,,,,,,,,,,,,,,,,,,,,,,,,,,,,,
,,,,,,,,,R_2uwzMKyW3X19woa,2022-07-03_21h40.18.074,jpn_C02,2022.1.2,Win32,59.96282305,,,space,3.7664,0,2,2,3,1,ムク,cowboy,,CartoonStims/cowboy_r.jpg,audio/muku.mp3,,,,,,,,,,,,,,,,,,,,,,,,,,,,,,,,,,,,,,,,,,,,,,,,,,,,,,,,,,,,,,,,,,,,,,,,,,
,,,,,,,,,R_2uwzMKyW3X19woa,2022-07-03_21h40.18.074,jpn_C02,2022.1.2,Win32,59.96282305,,,space,7.9508,0,3,3,0,1,シド,artist,,CartoonStims/artist_r.jpg,audio/sido.mp3,,,,,,,,,,,,,,,,,,,,,,,,,,,,,,,,,,,,,,,,,,,,,,,,,,,,,,,,,,,,,,,,,,,,,,,,,,
,,,,,,,,,R_2uwzMKyW3X19woa,2022-07-03_21h40.18.074,jpn_C02,2022.1.2,Win32,59.96282305,,,space,3.5625,0,4,4,4,1,ピポ,doctor,,CartoonStims/doctor_r.jpg,audio/pipo.mp3,,,,,,,,,,,,,,,,,,,,,,,,,,,,,,,,,,,,,,,,,,,,,,,,,,,,,,,,,,,,,,,,,,,,,,,,,,
,,,,,,,,,R_2uwzMKyW3X19woa,2022-07-03_21h40.18.074,jpn_C02,2022.1.2,Win32,59.96282305,,,space,3.8383,0,5,5,2,1,ホレト,chef,,CartoonStims/chef_r.jpg,audio/horeto.mp3,,,,,,,,,,,,,,,,,,,,,,,,,,,,,,,,,,,,,,,,,,,,,,,,,,,,,,,,,,,,,,,,,,,,,,,,,,
,,,,,,,,,R_2uwzMKyW3X19woa,2022-07-03_21h40.18.074,jpn_C02,2022.1.2,Win32,59.96282305,,,space,1.0017,1,0,6,2,1,ホレト,chef,,CartoonStims/chef_r.jpg,audio/horeto.mp3,,,,,,,,,,,,,,,,,,,,,,,,,,,,,,,,,,,,,,,,,,,,,,,,,,,,,,,,,,,,,,,,,,,,,,,,,,
,,,,,,,,,R_2uwzMKyW3X19woa,2022-07-03_21h40.18.074,jpn_C02,2022.1.2,Win32,59.96282305,,,space,0.7184,1,1,7,4,1,ピポ,doctor,,CartoonStims/doctor_r.jpg,audio/pipo.mp3,,,,,,,,,,,,,,,,,,,,,,,,,,,,,,,,,,,,,,,,,,,,,,,,,,,,,,,,,,,,,,,,,,,,,,,,,,
,,,,,,,,,R_2uwzMKyW3X19woa,2022-07-03_21h40.18.074,jpn_C02,2022.1.2,Win32,59.96282305,,,space,0.4514,1,2,8,1,1,ルピン,burglar,,CartoonStims/burglar_r.jpg,audio/lupin.mp3,,,,,,,,,,,,,,,,,,,,,,,,,,,,,,,,,,,,,,,,,,,,,,,,,,,,,,,,,,,,,,,,,,,,,,,,,,
,,,,,,,,,R_2uwzMKyW3X19woa,2022-07-03_21h40.18.074,jpn_C02,2022.1.2,Win32,59.96282305,,,space,0.4017,1,3,9,5,1,ドキ,boxer,,CartoonStims/boxer_r.jpg,audio/doki.mp3,,,,,,,,,,,,,,,,,,,,,,,,,,,,,,,,,,,,,,,,,,,,,,,,,,,,,,,,,,,,,,,,,,,,,,,,,,
,,,,,,,,,R_2uwzMKyW3X19woa,2022-07-03_21h40.18.074,jpn_C02,2022.1.2,Win32,59.96282305,,,space,4.7652,1,4,10,0,1,シド,artist,,CartoonStims/artist_r.jpg,audio/sido.mp3,,,,,,,,,,,,,,,,,,,,,,,,,,,,,,,,,,,,,,,,,,,,,,,,,,,,,,,,,,,,,,,,,,,,,,,,,,
,,,,,,,,,R_2uwzMKyW3X19woa,2022-07-03_21h40.18.074,jpn_C02,2022.1.2,Win32,59.96282305,,,space,0.4025,1,5,11,3,1,ムク,cowboy,,CartoonStims/cowboy_r.jpg,audio/muku.mp3,,,,,,,,,,,,,,,,,,,,,,,,,,,,,,,,,,,,,,,,,,,,,,,,,,,,,,,,,,,,,,,,,,,,,,,,,,
,,,,,,,,,R_2uwzMKyW3X19woa,2022-07-03_21h40.18.074,jpn_C02,2022.1.2,Win32,59.96282305,,,space,0.9189,2,0,12,0,1,シド,artist,,CartoonStims/artist_r.jpg,audio/sido.mp3,,,,,,,,,,,,,,,,,,,,,,,,,,,,,,,,,,,,,,,,,,,,,,,,,,,,,,,,,,,,,,,,,,,,,,,,,,
,,,,,,,,,R_2uwzMKyW3X19woa,2022-07-03_21h40.18.074,jpn_C02,2022.1.2,Win32,59.96282305,,,space,0.3199,2,1,13,4,1,ピポ,doctor,,CartoonStims/doctor_r.jpg,audio/pipo.mp3,,,,,,,,,,,,,,,,,,,,,,,,,,,,,,,,,,,,,,,,,,,,,,,,,,,,,,,,,,,,,,,,,,,,,,,,,,
,,,,,,,,,R_2uwzMKyW3X19woa,2022-07-03_21h40.18.074,jpn_C02,2022.1.2,Win32,59.96282305,,,space,0.519,2,2,14,5,1,ドキ,boxer,,CartoonStims/boxer_r.jpg,audio/doki.mp3,,,,,,,,,,,,,,,,,,,,,,,,,,,,,,,,,,,,,,,,,,,,,,,,,,,,,,,,,,,,,,,,,,,,,,,,,,
,,,,,,,,,R_2uwzMKyW3X19woa,2022-07-03_21h40.18.074,jpn_C02,2022.1.2,Win32,59.96282305,,,space,0.4544,2,3,15,2,1,ホレト,chef,,CartoonStims/chef_r.jpg,audio/horeto.mp3,,,,,,,,,,,,,,,,,,,,,,,,,,,,,,,,,,,,,,,,,,,,,,,,,,,,,,,,,,,,,,,,,,,,,,,,,,
,,,,,,,,,R_2uwzMKyW3X19woa,2022-07-03_21h40.18.074,jpn_C02,2022.1.2,Win32,59.96282305,,,space,0.0988,2,4,16,3,1,ムク,cowboy,,CartoonStims/cowboy_r.jpg,audio/muku.mp3,,,,,,,,,,,,,,,,,,,,,,,,,,,,,,,,,,,,,,,,,,,,,,,,,,,,,,,,,,,,,,,,,,,,,,,,,,
,,,,,,,,,R_2uwzMKyW3X19woa,2022-07-03_21h40.18.074,jpn_C02,2022.1.2,Win32,59.96282305,,,space,0.2847,2,5,17,1,1,ルピン,burglar,,CartoonStims/burglar_r.jpg,audio/lupin.mp3,,,,,,,,,,,,,,,,,,,,,,,,,,,,,,,,,,,,,,,,,,,,,,,,,,,,,,,,,,,,,,,,,,,,,,,,,,
,,,,,,,,,R_2uwzMKyW3X19woa,2022-07-03_21h40.18.074,jpn_C02,2022.1.2,Win32,59.96282305,,,,,,,,,,,,,,,space,0.2319,right,0,19.8798,0,0,0,0,1,,,,,,,,,,,,,,,,,,,,,,,,,,,,,,,,,,,,,,,,,,,,,,,,,,,,,,,,,,,,,,,,
,,,,,,,,,R_2uwzMKyW3X19woa,2022-07-03_21h40.18.074,jpn_C02,2022.1.2,Win32,59.96282305,,,,,,,,,,,,,,,,,,,,,,,,,0,0,0,2,1,CartoonStims/chef_r.jpg,ホレト,CartoonStims/cowboy_r.jpg,left,CartoonStims/chef_r.jpg,audio/horeto.mp3,残念！ こちらが正しい画像です。,,,,,,,,,,,,,,,,,,,,,,,,,,,,,,,,,,,,,,,,,,,,,,,,,,,,
,,,,,,,,,R_2uwzMKyW3X19woa,2022-07-03_21h40.18.074,jpn_C02,2022.1.2,Win32,59.96282305,,,,,,,,,,,,,,,,,right,1,3.1859,,,,,,,,,,,,,,,,,,0,0,0,0,1,,,,,,,,,,,,,,,,,,,,,,,,,,,,,,,,,,,,,,,,,,,,,,,
,,,,,,,,,R_2uwzMKyW3X19woa,2022-07-03_21h40.18.074,jpn_C02,2022.1.2,Win32,59.96282305,,,,,,,,,,,,,,,,,,,,,,,,,0,1,1,11,1,CartoonStims/burglar_r.jpg,ドキ,CartoonStims/boxer_r.jpg,right,CartoonStims/boxer_r.jpg,audio/doki.mp3,残念！ こちらが正しい画像です。,,,,,,,,,,,,,,,,,,,,,,,,,,,,,,,,,,,,,,,,,,,,,,,,,,,,
,,,,,,,,,R_2uwzMKyW3X19woa,2022-07-03_21h40.18.074,jpn_C02,2022.1.2,Win32,59.96282305,,,,,,,,,,,,,,,,,right,1,2.8905,,,,,,,,,,,,,,,,,,0,0,0,0,1,,,,,,,,,,,,,,,,,,,,,,,,,,,,,,,,,,,,,,,,,,,,,,,
,,,,,,,,,R_2uwzMKyW3X19woa,2022-07-03_21h40.18.074,jpn_C02,2022.1.2,Win32,59.96282305,,,,,,,,,,,,,,,,,,,,,,,,,0,2,2,6,1,CartoonStims/chef_r.jpg,シド,CartoonStims/artist_r.jpg,right,CartoonStims/artist_r.jpg,audio/sido.mp3,残念！ こちらが正しい画像です。,,,,,,,,,,,,,,,,,,,,,,,,,,,,,,,,,,,,,,,,,,,,,,,,,,,,
,,,,,,,,,R_2uwzMKyW3X19woa,2022-07-03_21h40.18.074,jpn_C02,2022.1.2,Win32,59.96282305,,,,,,,,,,,,,,,,,left,1,0.9823,,,,,,,,,,,,,,,,,,,,,,,0,0,0,0,1,,,,,,,,,,,,,,,,,,,,,,,,,,,,,,,,,,,,,,,,,,
,,,,,,,,,R_2uwzMKyW3X19woa,2022-07-03_21h40.18.074,jpn_C02,2022.1.2,Win32,59.96282305,,,,,,,,,,,,,,,,,,,,,,,,,0,3,3,1,1,CartoonStims/burglar_r.jpg,ルピン,CartoonStims/chef_r.jpg,left,CartoonStims/burglar_r.jpg,audio/lupin.mp3,残念！ こちらが正しい画像です。,,,,,,,,,,,,,,,,,,,,,,,,,,,,,,,,,,,,,,,,,,,,,,,,,,,,
,,,,,,,,,R_2uwzMKyW3X19woa,2022-07-03_21h40.18.074,jpn_C02,2022.1.2,Win32,59.96282305,,,,,,,,,,,,,,,,,left,1,0.7085,,,,,,,,,,,,,,,,,,,,,,,0,0,0,0,1,,,,,,,,,,,,,,,,,,,,,,,,,,,,,,,,,,,,,,,,,,
,,,,,,,,,R_2uwzMKyW3X19woa,2022-07-03_21h40.18.074,jpn_C02,2022.1.2,Win32,59.96282305,,,,,,,,,,,,,,,,,,,,,,,,,0,4,4,5,1,CartoonStims/boxer_r.jpg,ドキ,CartoonStims/artist_r.jpg,left,CartoonStims/boxer_r.jpg,audio/doki.mp3,残念！ こちらが正しい画像です。,,,,,,,,,,,,,,,,,,,,,,,,,,,,,,,,,,,,,,,,,,,,,,,,,,,,
,,,,,,,,,R_2uwzMKyW3X19woa,2022-07-03_21h40.18.074,jpn_C02,2022.1.2,Win32,59.96282305,,,,,,,,,,,,,,,,,right,1,1.2075,,,,,,,,,,,,,,,,,,0,0,0,0,1,,,,,,,,,,,,,,,,,,,,,,,,,,,,,,,,,,,,,,,,,,,,,,,
,,,,,,,,,R_2uwzMKyW3X19woa,2022-07-03_21h40.18.074,jpn_C02,2022.1.2,Win32,59.96282305,,,,,,,,,,,,,,,,,,,,,,,,,0,5,5,9,1,CartoonStims/boxer_r.jpg,ムク,CartoonStims/cowboy_r.jpg,right,CartoonStims/cowboy_r.jpg,audio/muku.mp3,残念！ こちらが正しい画像です。,,,,,,,,,,,,,,,,,,,,,,,,,,,,,,,,,,,,,,,,,,,,,,,,,,,,
,,,,,,,,,R_2uwzMKyW3X19woa,2022-07-03_21h40.18.074,jpn_C02,2022.1.2,Win32,59.96282305,,,,,,,,,,,,,,,,,left,0,2.0087,,,,,,,,,,,,,,,,,,,,,,,,,,,,0,0,0,0,1,,,,,,,,,,,,,,,,,,,,,,,,,,,,,,,,,,,,,
,,,,,,,,,R_2uwzMKyW3X19woa,2022-07-03_21h40.18.074,jpn_C02,2022.1.2,Win32,59.96282305,,,,,,,,,,,,,,,,,,,,,,,,,0,6,6,10,1,CartoonStims/artist_r.jpg,ピポ,CartoonStims/doctor_r.jpg,right,CartoonStims/doctor_r.jpg,audio/pipo.mp3,残念！ こちらが正しい画像です。,,,,,,,,,,,,,,,,,,,,,,,,,,,,,,,,,,,,,,,,,,,,,,,,,,,,
,,,,,,,,,R_2uwzMKyW3X19woa,2022-07-03_21h40.18.074,jpn_C02,2022.1.2,Win32,59.96282305,,,,,,,,,,,,,,,,,right,1,2.2373,,,,,,,,,,,,,,,,,,0,0,0,0,1,,,,,,,,,,,,,,,,,,,,,,,,,,,,,,,,,,,,,,,,,,,,,,,
,,,,,,,,,R_2uwzMKyW3X19woa,2022-07-03_21h40.18.074,jpn_C02,2022.1.2,Win32,59.96282305,,,,,,,,,,,,,,,,,,,,,,,,,0,7,7,8,1,CartoonStims/doctor_r.jpg,ホレト,CartoonStims/chef_r.jpg,right,CartoonStims/chef_r.jpg,audio/horeto.mp3,残念！ こちらが正しい画像です。,,,,,,,,,,,,,,,,,,,,,,,,,,,,,,,,,,,,,,,,,,,,,,,,,,,,
,,,,,,,,,R_2uwzMKyW3X19woa,2022-07-03_21h40.18.074,jpn_C02,2022.1.2,Win32,59.96282305,,,,,,,,,,,,,,,,,right,1,0.6521,,,,,,,,,,,,,,,,,,0,0,0,0,1,,,,,,,,,,,,,,,,,,,,,,,,,,,,,,,,,,,,,,,,,,,,,,,
,,,,,,,,,R_2uwzMKyW3X19woa,2022-07-03_21h40.18.074,jpn_C02,2022.1.2,Win32,59.96282305,,,,,,,,,,,,,,,,,,,,,,,,,0,8,8,7,1,CartoonStims/cowboy_r.jpg,ルピン,CartoonStims/burglar_r.jpg,right,CartoonStims/burglar_r.jpg,audio/lupin.mp3,残念！ こちらが正しい画像です。,,,,,,,,,,,,,,,,,,,,,,,,,,,,,,,,,,,,,,,,,,,,,,,,,,,,
,,,,,,,,,R_2uwzMKyW3X19woa,2022-07-03_21h40.18.074,jpn_C02,2022.1.2,Win32,59.96282305,,,,,,,,,,,,,,,,,left,1,1.3137,,,,,,,,,,,,,,,,,,,,,,,0,0,0,0,1,,,,,,,,,,,,,,,,,,,,,,,,,,,,,,,,,,,,,,,,,,
,,,,,,,,,R_2uwzMKyW3X19woa,2022-07-03_21h40.18.074,jpn_C02,2022.1.2,Win32,59.96282305,,,,,,,,,,,,,,,,,,,,,,,,,0,9,9,4,1,CartoonStims/doctor_r.jpg,ピポ,CartoonStims/boxer_r.jpg,left,CartoonStims/doctor_r.jpg,audio/pipo.mp3,残念！ こちらが正しい画像です。,,,,,,,,,,,,,,,,,,,,,,,,,,,,,,,,,,,,,,,,,,,,,,,,,,,,
,,,,,,,,,R_2uwzMKyW3X19woa,2022-07-03_21h40.18.074,jpn_C02,2022.1.2,Win32,59.96282305,,,,,,,,,,,,,,,,,right,0,1.9028,0,0,0,0,1,,,,,,,,,,,,,,,,,,,,,,,,,,,,,,,,,,,,,,,,,,,,,,,,,,,,,,,,,,,,,,,,
,,,,,,,,,R_2uwzMKyW3X19woa,2022-07-03_21h40.18.074,jpn_C02,2022.1.2,Win32,59.96282305,,,,,,,,,,,,,,,,,,,,,,,,,0,10,10,3,1,CartoonStims/cowboy_r.jpg,ムク,CartoonStims/doctor_r.jpg,left,CartoonStims/cowboy_r.jpg,audio/muku.mp3,残念！ こちらが正しい画像です。,,,,,,,,,,,,,,,,,,,,,,,,,,,,,,,,,,,,,,,,,,,,,,,,,,,,
,,,,,,,,,R_2uwzMKyW3X19woa,2022-07-03_21h40.18.074,jpn_C02,2022.1.2,Win32,59.96282305,,,,,,,,,,,,,,,,,left,1,1.3712,,,,,,,,,,,,,,,,,,,,,,,0,0,0,0,1,,,,,,,,,,,,,,,,,,,,,,,,,,,,,,,,,,,,,,,,,,
,,,,,,,,,R_2uwzMKyW3X19woa,2022-07-03_21h40.18.074,jpn_C02,2022.1.2,Win32,59.96282305,,,,,,,,,,,,,,,,,,,,,,,,,0,11,11,0,1,CartoonStims/artist_r.jpg,シド,CartoonStims/burglar_r.jpg,left,CartoonStims/artist_r.jpg,audio/sido.mp3,残念！ こちらが正しい画像です。,,,,,,,,,,,,,,,,,,,,,,,,,,,,,,,,,,,,,,,,,,,,,,,,,,,,
,,,,,,,,,R_2uwzMKyW3X19woa,2022-07-03_21h40.18.074,jpn_C02,2022.1.2,Win32,59.96282305,,,,,,,,,,,,,,,,,,,,,,,,,,,,,,,,,,,,,,,,,,,,,,,,,,,,space,4.5399,シド,right,54.2793,0,0,0,0,1,,,,,,,,,,,,,,,,,,,,,,,,,,,
,,,,,,,,,R_2uwzMKyW3X19woa,2022-07-03_21h40.18.074,jpn_C02,2022.1.2,Win32,59.96282305,,,,,,,,,,,,,CartoonStims/doctor_r.jpg,audio/pipo.mp3,,,,,,,,,,,,,,,,,,,,,,,,,,,,,,,,,,,,,,,,,,,,,,,,0,0,0,4,1,ピポ,,,,,,,,,,,,,,,,,,,,,
,,,,,,,,,R_2uwzMKyW3X19woa,2022-07-03_21h40.18.074,jpn_C02,2022.1.2,Win32,59.96282305,,,,,,,,,,,,,,,,,,,,,,,,,,,,,,,,,,,,,,,,,,,,,,,,,,,,,,ドキ,right,8.8541,0,0,0,0,1,,,,,,,,,,,,,,,,,,,,,,,,,,,
,,,,,,,,,R_2uwzMKyW3X19woa,2022-07-03_21h40.18.074,jpn_C02,2022.1.2,Win32,59.96282305,,,,,,,,,,,,,CartoonStims/boxer_r.jpg,audio/doki.mp3,,,,,,,,,,,,,,,,,,,,,,,,,,,,,,,,,,,,,,,,,,,,,,,,0,1,1,5,1,ドキ,,,,,,,,,,,,,,,,,,,,,
,,,,,,,,,R_2uwzMKyW3X19woa,2022-07-03_21h40.18.074,jpn_C02,2022.1.2,Win32,59.96282305,,,,,,,,,,,,,,,,,,,,,,,,,,,,,,,,,,,,,,,,,,,,,,,,,,,,,,ムク,right,14.805,0,0,0,0,1,,,,,,,,,,,,,,,,,,,,,,,,,,,
,,,,,,,,,R_2uwzMKyW3X19woa,2022-07-03_21h40.18.074,jpn_C02,2022.1.2,Win32,59.96282305,,,,,,,,,,,,,CartoonStims/cowboy_r.jpg,audio/muku.mp3,,,,,,,,,,,,,,,,,,,,,,,,,,,,,,,,,,,,,,,,,,,,,,,,0,2,2,3,1,ムク,,,,,,,,,,,,,,,,,,,,,
,,,,,,,,,R_2uwzMKyW3X19woa,2022-07-03_21h40.18.074,jpn_C02,2022.1.2,Win32,59.96282305,,,,,,,,,,,,,,,,,,,,,,,,,,,,,,,,,,,,,,,,,,,,,,,,,,,,,,ルピン,right,8.0531,0,0,0,0,1,,,,,,,,,,,,,,,,,,,,,,,,,,,
,,,,,,,,,R_2uwzMKyW3X19woa,2022-07-03_21h40.18.074,jpn_C02,2022.1.2,Win32,59.96282305,,,,,,,,,,,,,CartoonStims/burglar_r.jpg,audio/lupin.mp3,,,,,,,,,,,,,,,,,,,,,,,,,,,,,,,,,,,,,,,,,,,,,,,,0,3,3,1,1,ルピン,,,,,,,,,,,,,,,,,,,,,
,,,,,,,,,R_2uwzMKyW3X19woa,2022-07-03_21h40.18.074,jpn_C02,2022.1.2,Win32,59.96282305,,,,,,,,,,,,,,,,,,,,,,,,,,,,,,,,,,,,,,,,,,,,,,,,,,,,,,コレホ,right,14.5,0,0,0,0,1,,,,,,,,,,,,,,,,,,,,,,,,,,,
,,,,,,,,,R_2uwzMKyW3X19woa,2022-07-03_21h40.18.074,jpn_C02,2022.1.2,Win32,59.96282305,,,,,,,,,,,,,CartoonStims/chef_r.jpg,audio/horeto.mp3,,,,,,,,,,,,,,,,,,,,,,,,,,,,,,,,,,,,,,,,,,,,,,,,0,4,4,2,1,ホレト,,,,,,,,,,,,,,,,,,,,,
,,,,,,,,,R_2uwzMKyW3X19woa,2022-07-03_21h40.18.074,jpn_C02,2022.1.2,Win32,59.96282305,,,,,,,,,,,,,,,,,,,,,,,,,,,,,,,,,,,,,,,,,,,,,,,,,,,,,,ムク,right,13.4222,0,0,0,0,1,,,,,,,,,,,,,,,,,,,,,,,,,,,
,,,,,,,,,R_2uwzMKyW3X19woa,2022-07-03_21h40.18.074,jpn_C02,2022.1.2,Win32,59.96282305,,,,,,,,,,,,,CartoonStims/artist_r.jpg,audio/sido.mp3,,,,,,,,,,,,,,,,,,,,,,,,,,,,,,,,,,,,,,,,,,,,,,,,0,5,5,0,1,シド,,,,,,,,,,,,,,,,,,,,,
,,,,,,,,,R_2uwzMKyW3X19woa,2022-07-03_21h40.18.074,jpn_C02,2022.1.2,Win32,59.96282305,,,,,,,,,,,,,,,,,,,,,,,,,,,,,,,,,,,,,,,,,,,,,,,,,,,,,,ムク,right,3.9488,0,0,0,0,1,,,,,,,,,,,,,,,,,,,,,,,,,,,
,,,,,,,,,R_2uwzMKyW3X19woa,2022-07-03_21h40.18.074,jpn_C02,2022.1.2,Win32,59.96282305,,,,,,,,,,,,,CartoonStims/doctor_r.jpg,audio/pipo.mp3,,,,,,,,,,,,,,,,,,,,,,,,,,,,,,,,,,,,,,,,,,,,,,,,1,0,6,4,1,ピポ,,,,,,,,,,,,,,,,,,,,,
,,,,,,,,,R_2uwzMKyW3X19woa,2022-07-03_21h40.18.074,jpn_C02,2022.1.2,Win32,59.96282305,,,,,,,,,,,,,,,,,,,,,,,,,,,,,,,,,,,,,,,,,,,,,,,,,,,,,,シド,right,9.1586,0,0,0,0,1,,,,,,,,,,,,,,,,,,,,,,,,,,,
,,,,,,,,,R_2uwzMKyW3X19woa,2022-07-03_21h40.18.074,jpn_C02,2022.1.2,Win32,59.96282305,,,,,,,,,,,,,CartoonStims/artist_r.jpg,audio/sido.mp3,,,,,,,,,,,,,,,,,,,,,,,,,,,,,,,,,,,,,,,,,,,,,,,,1,1,7,0,1,シド,,,,,,,,,,,,,,,,,,,,,
,,,,,,,,,R_2uwzMKyW3X19woa,2022-07-03_21h40.18.074,jpn_C02,2022.1.2,Win32,59.96282305,,,,,,,,,,,,,,,,,,,,,,,,,,,,,,,,,,,,,,,,,,,,,,,,,,,,,,ムク,right,4.2549,0,0,0,0,1,,,,,,,,,,,,,,,,,,,,,,,,,,,
,,,,,,,,,R_2uwzMKyW3X19woa,2022-07-03_21h40.18.074,jpn_C02,2022.1.2,Win32,59.96282305,,,,,,,,,,,,,CartoonStims/cowboy_r.jpg,audio/muku.mp3,,,,,,,,,,,,,,,,,,,,,,,,,,,,,,,,,,,,,,,,,,,,,,,,1,2,8,3,1,ムク,,,,,,,,,,,,,,,,,,,,,
,,,,,,,,,R_2uwzMKyW3X19woa,2022-07-03_21h40.18.074,jpn_C02,2022.1.2,Win32,59.96282305,,,,,,,,,,,,,,,,,,,,,,,,,,,,,,,,,,,,,,,,,,,,,,,,,,,,,,ルピン,right,6.7544,0,0,0,0,1,,,,,,,,,,,,,,,,,,,,,,,,,,,
,,,,,,,,,R_2uwzMKyW3X19woa,2022-07-03_21h40.18.074,jpn_C02,2022.1.2,Win32,59.96282305,,,,,,,,,,,,,CartoonStims/burglar_r.jpg,audio/lupin.mp3,,,,,,,,,,,,,,,,,,,,,,,,,,,,,,,,,,,,,,,,,,,,,,,,1,3,9,1,1,ルピン,,,,,,,,,,,,,,,,,,,,,
,,,,,,,,,R_2uwzMKyW3X19woa,2022-07-03_21h40.18.074,jpn_C02,2022.1.2,Win32,59.96282305,,,,,,,,,,,,,,,,,,,,,,,,,,,,,,,,,,,,,,,,,,,,,,,,,,,,,,ドキ,right,6.1975,0,0,0,0,1,,,,,,,,,,,,,,,,,,,,,,,,,,,
,,,,,,,,,R_2uwzMKyW3X19woa,2022-07-03_21h40.18.074,jpn_C02,2022.1.2,Win32,59.96282305,,,,,,,,,,,,,CartoonStims/boxer_r.jpg,audio/doki.mp3,,,,,,,,,,,,,,,,,,,,,,,,,,,,,,,,,,,,,,,,,,,,,,,,1,4,10,5,1,ドキ,,,,,,,,,,,,,,,,,,,,,
,,,,,,,,,R_2uwzMKyW3X19woa,2022-07-03_21h40.18.074,jpn_C02,2022.1.2,Win32,59.96282305,,,,,,,,,,,,,,,,,,,,,,,,,,,,,,,,,,,,,,,,,,,,,,,,,,,,,,ホレト,right,11.7159,0,0,0,0,1,,,,,,,,,,,,,,,,,,,,,,,,,,,
,,,,,,,,,R_2uwzMKyW3X19woa,2022-07-03_21h40.18.074,jpn_C02,2022.1.2,Win32,59.96282305,,,,,,,,,,,,,CartoonStims/chef_r.jpg,audio/horeto.mp3,,,,,,,,,,,,,,,,,,,,,,,,,,,,,,,,,,,,,,,,,,,,,,,,1,5,11,2,1,ホレト,,,,,,,,,,,,,,,,,,,,,
,,,,,,,,,R_2uwzMKyW3X19woa,2022-07-03_21h40.18.074,jpn_C02,2022.1.2,Win32,59.96282305,,,,,,,,,,,,,,,,,,,,,,,,,,,,,,,,,,,,,,,,,,,,,,,,,,,,,,,,,,,,,,,,,,,,,space,2.5012,0,0,0,0,1,NounExposure.xlsx,"最初のトライアルでは、 画像が表示され、 その画像の下に単語が出てきます。 またこの単語の音も聞くことができます。 この音を大きな声で復唱してください。 そしてこの画像がどのような単語を示しているのか, 考えてみてください。 その後、 続きのボタンを押すと次の単語の学習が始まります。

スペースキーを押して、学習を始めましょう。",3,NounFCT.xlsx,ここから語彙のクイズが始まります。スクリーンに表示される単語に合う画像をキーボードの右と左の矢印キーを使って選択してください。,NounTest.xlsx,2,次に、これまで学習してきたことをアウトプットしていただきます。 表示される画像を描写していると思う単語を、テキストボックスにタイプしてください。,1,"ここまでが最初のトライアルです。ここで休憩をとっても構いません。

休憩が済みましたら、スペースキーを押して続きを始めましょう。",,,
,,,,,,,,,R_2uwzMKyW3X19woa,2022-07-03_21h40.18.074,jpn_C02,2022.1.2,Win32,59.96282305,space,10.1175,space,18.6827,0,0,0,3,1,セル　ルピン　ムク,,,CartoonStims/burglar_kick_cowboy_r.jpg,audio/serulupinmuku.mp3,,,,,,,,,,,,,,,,,,,,,,,,,,,,,,,,,,,,,,,,,,,,,,,,,,,,,,,,,,,,,,,,,,,,,,,,,,
,,,,,,,,,R_2uwzMKyW3X19woa,2022-07-03_21h40.18.074,jpn_C02,2022.1.2,Win32,59.96282305,,,space,10.3345,0,1,1,31,1,パツ　ムク　ルピン,,,CartoonStims/cowboy_shoot_burglar_r.jpg,audio/patsumukulupin.mp3,,,,,,,,,,,,,,,,,,,,,,,,,,,,,,,,,,,,,,,,,,,,,,,,,,,,,,,,,,,,,,,,,,,,,,,,,,
,,,,,,,,,R_2uwzMKyW3X19woa,2022-07-03_21h40.18.074,jpn_C02,2022.1.2,Win32,59.96282305,,,space,3.1188,0,2,2,30,1,パツ　ムク　シド,,,CartoonStims/cowboy_shoot_artist_r.jpg,audio/patsumukusido.mp3,,,,,,,,,,,,,,,,,,,,,,,,,,,,,,,,,,,,,,,,,,,,,,,,,,,,,,,,,,,,,,,,,,,,,,,,,,
,,,,,,,,,R_2uwzMKyW3X19woa,2022-07-03_21h40.18.074,jpn_C02,2022.1.2,Win32,59.96282305,,,space,6.2009,0,3,3,35,1,パツ　ドキ　ムク,,,CartoonStims/boxer_shoot_cowboy_r.jpg,audio/patsudokimuku.mp3,,,,,,,,,,,,,,,,,,,,,,,,,,,,,,,,,,,,,,,,,,,,,,,,,,,,,,,,,,,,,,,,,,,,,,,,,,
,,,,,,,,,R_2uwzMKyW3X19woa,2022-07-03_21h40.18.074,jpn_C02,2022.1.2,Win32,59.96282305,,,space,11.1354,0,4,4,23,1,トマ　ドキ　ホレト,,,CartoonStims/boxer_point_chef_r.jpg,audio/tomadokihoreto.mp3,,,,,,,,,,,,,,,,,,,,,,,,,,,,,,,,,,,,,,,,,,,,,,,,,,,,,,,,,,,,,,,,,,,,,,,,,,
,,,,,,,,,R_2uwzMKyW3X19woa,2022-07-03_21h40.18.074,jpn_C02,2022.1.2,Win32,59.96282305,,,space,2.1569,0,5,5,5,1,セル　ホレト　ピポ,,,CartoonStims/chef_kick_doctor_r.jpg,audio/seruhoretopipo.mp3,,,,,,,,,,,,,,,,,,,,,,,,,,,,,,,,,,,,,,,,,,,,,,,,,,,,,,,,,,,,,,,,,,,,,,,,,,
,,,,,,,,,R_2uwzMKyW3X19woa,2022-07-03_21h40.18.074,jpn_C02,2022.1.2,Win32,59.96282305,,,space,1.1091,0,6,6,7,1,セル　ムク　ドキ,,,CartoonStims/cowboy_kick_boxer_r.jpg,audio/serumukudoki.mp3,,,,,,,,,,,,,,,,,,,,,,,,,,,,,,,,,,,,,,,,,,,,,,,,,,,,,,,,,,,,,,,,,,,,,,,,,,
,,,,,,,,,R_2uwzMKyW3X19woa,2022-07-03_21h40.18.074,jpn_C02,2022.1.2,Win32,59.96282305,,,space,2.0347,0,7,7,26,1,パツ　ルピン　ピポ,,,CartoonStims/burglar_shoot_doctor_r.jpg,audio/patsulupinpipo.mp3,,,,,,,,,,,,,,,,,,,,,,,,,,,,,,,,,,,,,,,,,,,,,,,,,,,,,,,,,,,,,,,,,,,,,,,,,,
,,,,,,,,,R_2uwzMKyW3X19woa,2022-07-03_21h40.18.074,jpn_C02,2022.1.2,Win32,59.96282305,,,space,0.2008,0,8,8,11,1,セル　ドキ　ルピン,,,CartoonStims/boxer_kick_burglar_r.jpg,audio/serudokilupin.mp3,,,,,,,,,,,,,,,,,,,,,,,,,,,,,,,,,,,,,,,,,,,,,,,,,,,,,,,,,,,,,,,,,,,,,,,,,,
,,,,,,,,,R_2uwzMKyW3X19woa,2022-07-03_21h40.18.074,jpn_C02,2022.1.2,Win32,59.96282305,,,space,0.1468,0,9,9,8,1,セル　ピポ　ドキ,,,CartoonStims/doctor_kick_boxer_r.jpg,audio/serupipodoki.mp3,,,,,,,,,,,,,,,,,,,,,,,,,,,,,,,,,,,,,,,,,,,,,,,,,,,,,,,,,,,,,,,,,,,,,,,,,,
,,,,,,,,,R_2uwzMKyW3X19woa,2022-07-03_21h40.18.074,jpn_C02,2022.1.2,Win32,59.96282305,,,space,0.2043,0,10,10,28,1,パツ　ホレト　ドキ,,,CartoonStims/chef_shoot_boxer_r.jpg,audio/patsuhoretodoki.mp3,,,,,,,,,,,,,,,,,,,,,,,,,,,,,,,,,,,,,,,,,,,,,,,,,,,,,,,,,,,,,,,,,,,,,,,,,,
,,,,,,,,,R_2uwzMKyW3X19woa,2022-07-03_21h40.18.074,jpn_C02,2022.1.2,Win32,59.96282305,,,space,0.2023,0,11,11,6,1,セル　ムク　ピポ,,,CartoonStims/cowboy_kick_doctor_r.jpg,audio/serumukupipo.mp3,,,,,,,,,,,,,,,,,,,,,,,,,,,,,,,,,,,,,,,,,,,,,,,,,,,,,,,,,,,,,,,,,,,,,,,,,,
,,,,,,,,,R_2uwzMKyW3X19woa,2022-07-03_21h40.18.074,jpn_C02,2022.1.2,Win32,59.96282305,,,space,0.0347,0,12,12,2,1,セル 　ルピン 　ホレト,,,CartoonStims/burglar_kick_chef_r.jpg,audio/serulupinhoreto.mp3,,,,,,,,,,,,,,,,,,,,,,,,,,,,,,,,,,,,,,,,,,,,,,,,,,,,,,,,,,,,,,,,,,,,,,,,,,
,,,,,,,,,R_2uwzMKyW3X19woa,2022-07-03_21h40.18.074,jpn_C02,2022.1.2,Win32,59.96282305,,,space,0.9867,0,13,13,22,1,トマ　ドキ　ルピン,,,CartoonStims/boxer_point_burglar_r.jpg,audio/tomadokilupin.mp3,,,,,,,,,,,,,,,,,,,,,,,,,,,,,,,,,,,,,,,,,,,,,,,,,,,,,,,,,,,,,,,,,,,,,,,,,,
,,,,,,,,,R_2uwzMKyW3X19woa,2022-07-03_21h40.18.074,jpn_C02,2022.1.2,Win32,59.96282305,,,space,0.1515,0,14,14,0,1,セル　シド　ルピン,,,CartoonStims/artist_kick_burglar_r.jpg,audio/serusidolupin.mp3,,,,,,,,,,,,,,,,,,,,,,,,,,,,,,,,,,,,,,,,,,,,,,,,,,,,,,,,,,,,,,,,,,,,,,,,,,
,,,,,,,,,R_2uwzMKyW3X19woa,2022-07-03_21h40.18.074,jpn_C02,2022.1.2,Win32,59.96282305,,,space,0.1502,0,15,15,4,1,セル　ホレト　ムク,,,CartoonStims/chef_kick_cowboy_r.jpg,audio/seruhoretomuku.mp3,,,,,,,,,,,,,,,,,,,,,,,,,,,,,,,,,,,,,,,,,,,,,,,,,,,,,,,,,,,,,,,,,,,,,,,,,,
,,,,,,,,,R_2uwzMKyW3X19woa,2022-07-03_21h40.18.074,jpn_C02,2022.1.2,Win32,59.96282305,,,space,3.9854,0,16,16,42,1,プミ　ムク　ルピン,,,CartoonStims/cowboy_punch_burglar_r.jpg,audio/pumimukulupin.mp3,,,,,,,,,,,,,,,,,,,,,,,,,,,,,,,,,,,,,,,,,,,,,,,,,,,,,,,,,,,,,,,,,,,,,,,,,,
,,,,,,,,,R_2uwzMKyW3X19woa,2022-07-03_21h40.18.074,jpn_C02,2022.1.2,Win32,59.96282305,,,space,0.2024,0,17,17,18,1,トマ　ムク　ドキ,,,CartoonStims/cowboy_point_boxer_r.jpg,audio/tomamukudoki.mp3,,,,,,,,,,,,,,,,,,,,,,,,,,,,,,,,,,,,,,,,,,,,,,,,,,,,,,,,,,,,,,,,,,,,,,,,,,
,,,,,,,,,R_2uwzMKyW3X19woa,2022-07-03_21h40.18.074,jpn_C02,2022.1.2,Win32,59.96282305,,,space,0.6349,0,18,18,25,1,パツ　シド　ピポ,,,CartoonStims/artist_shoot_doctor_r.jpg,audio/patsusidopipo.mp3,,,,,,,,,,,,,,,,,,,,,,,,,,,,,,,,,,,,,,,,,,,,,,,,,,,,,,,,,,,,,,,,,,,,,,,,,,
,,,,,,,,,R_2uwzMKyW3X19woa,2022-07-03_21h40.18.074,jpn_C02,2022.1.2,Win32,59.96282305,,,space,1.9022,0,19,19,38,1,プミ　ルピン　ドキ,,,CartoonStims/burglar_punch_boxer_r.jpg,audio/pumilupindoki.mp3,,,,,,,,,,,,,,,,,,,,,,,,,,,,,,,,,,,,,,,,,,,,,,,,,,,,,,,,,,,,,,,,,,,,,,,,,,
,,,,,,,,,R_2uwzMKyW3X19woa,2022-07-03_21h40.18.074,jpn_C02,2022.1.2,Win32,59.96282305,,,space,1.3788,0,20,20,33,1,パツ　ピポ　ホレト,,,CartoonStims/doctor_shoot_chef_r.jpg,audio/patsupipohoreto.mp3,,,,,,,,,,,,,,,,,,,,,,,,,,,,,,,,,,,,,,,,,,,,,,,,,,,,,,,,,,,,,,,,,,,,,,,,,,
,,,,,,,,,R_2uwzMKyW3X19woa,2022-07-03_21h40.18.074,jpn_C02,2022.1.2,Win32,59.96282305,,,space,2.1234,0,21,21,17,1,トマ　ホレト　ドキ,,,CartoonStims/chef_point_boxer_r.jpg,audio/tomahoretodoki.mp3,,,,,,,,,,,,,,,,,,,,,,,,,,,,,,,,,,,,,,,,,,,,,,,,,,,,,,,,,,,,,,,,,,,,,,,,,,
,,,,,,,,,R_2uwzMKyW3X19woa,2022-07-03_21h40.18.074,jpn_C02,2022.1.2,Win32,59.96282305,,,space,0.0069,0,22,22,19,1,トマ　ムク　シド,,,CartoonStims/cowboy_point_artist_r.jpg,audio/tomamukusido.mp3,,,,,,,,,,,,,,,,,,,,,,,,,,,,,,,,,,,,,,,,,,,,,,,,,,,,,,,,,,,,,,,,,,,,,,,,,,
,,,,,,,,,R_2uwzMKyW3X19woa,2022-07-03_21h40.18.074,jpn_C02,2022.1.2,Win32,59.96282305,,,space,0.0854,0,23,23,34,1,パツ　ドキ　ホレト,,,CartoonStims/boxer_shoot_chef_r.jpg,audio/patsudokihoreto.mp3,,,,,,,,,,,,,,,,,,,,,,,,,,,,,,,,,,,,,,,,,,,,,,,,,,,,,,,,,,,,,,,,,,,,,,,,,,
,,,,,,,,,R_2uwzMKyW3X19woa,2022-07-03_21h40.18.074,jpn_C02,2022.1.2,Win32,59.96282305,,,space,0.7857,0,24,24,9,1,セル　ピポ　シド,,,CartoonStims/doctor_kick_artist_r.jpg,audio/serupiposido.mp3,,,,,,,,,,,,,,,,,,,,,,,,,,,,,,,,,,,,,,,,,,,,,,,,,,,,,,,,,,,,,,,,,,,,,,,,,,
,,,,,,,,,R_2uwzMKyW3X19woa,2022-07-03_21h40.18.074,jpn_C02,2022.1.2,Win32,59.96282305,,,space,0.1235,0,25,25,46,1,プミ　ドキ　ムク,,,CartoonStims/boxer_punch_cowboy_r.jpg,audio/pumidokimuku.mp3,,,,,,,,,,,,,,,,,,,,,,,,,,,,,,,,,,,,,,,,,,,,,,,,,,,,,,,,,,,,,,,,,,,,,,,,,,
,,,,,,,,,R_2uwzMKyW3X19woa,2022-07-03_21h40.18.074,jpn_C02,2022.1.2,Win32,59.96282305,,,space,0.8191,0,26,26,21,1,トマ　ピポ　ルピン,,,CartoonStims/doctor_point_burglar_r.jpg,audio/tomapipolupin.mp3,,,,,,,,,,,,,,,,,,,,,,,,,,,,,,,,,,,,,,,,,,,,,,,,,,,,,,,,,,,,,,,,,,,,,,,,,,
,,,,,,,,,R_2uwzMKyW3X19woa,2022-07-03_21h40.18.074,jpn_C02,2022.1.2,Win32,59.96282305,,,space,2.0693,0,27,27,45,1,プミ　ピポ　ムク,,,CartoonStims/doctor_punch_cowboy_r.jpg,audio/pumipipomuku.mp3,,,,,,,,,,,,,,,,,,,,,,,,,,,,,,,,,,,,,,,,,,,,,,,,,,,,,,,,,,,,,,,,,,,,,,,,,,
,,,,,,,,,R_2uwzMKyW3X19woa,2022-07-03_21h40.18.074,jpn_C02,2022.1.2,Win32,59.96282305,,,space,0.9715,0,28,28,1,1,セル 　シド 　ホレト,,,CartoonStims/artist_kick_chef_r.jpg,audio/serusidohoreto.mp3,,,,,,,,,,,,,,,,,,,,,,,,,,,,,,,,,,,,,,,,,,,,,,,,,,,,,,,,,,,,,,,,,,,,,,,,,,
,,,,,,,,,R_2uwzMKyW3X19woa,2022-07-03_21h40.18.074,jpn_C02,2022.1.2,Win32,59.96282305,,,space,0.0314,0,29,29,14,1,トマ　ルピン　ムク,,,CartoonStims/burglar_point_cowboy_r.jpg,audio/tomalupinmuku.mp3,,,,,,,,,,,,,,,,,,,,,,,,,,,,,,,,,,,,,,,,,,,,,,,,,,,,,,,,,,,,,,,,,,,,,,,,,,
,,,,,,,,,R_2uwzMKyW3X19woa,2022-07-03_21h40.18.074,jpn_C02,2022.1.2,Win32,59.96282305,,,space,0.1206,0,30,30,37,1,プミ　シド　ドキ,,,CartoonStims/artist_punch_boxer_r.jpg,audio/pumisidodoki.mp3,,,,,,,,,,,,,,,,,,,,,,,,,,,,,,,,,,,,,,,,,,,,,,,,,,,,,,,,,,,,,,,,,,,,,,,,,,
,,,,,,,,,R_2uwzMKyW3X19woa,2022-07-03_21h40.18.074,jpn_C02,2022.1.2,Win32,59.96282305,,,space,0.0127,0,31,31,41,1,プミ　ホレト　ルピン,,,CartoonStims/chef_punch_burglar_r.jpg,audio/pumihoretolupin.mp3,,,,,,,,,,,,,,,,,,,,,,,,,,,,,,,,,,,,,,,,,,,,,,,,,,,,,,,,,,,,,,,,,,,,,,,,,,
,,,,,,,,,R_2uwzMKyW3X19woa,2022-07-03_21h40.18.074,jpn_C02,2022.1.2,Win32,59.96282305,,,space,0.0548,0,32,32,36,1,プミ　シド　ピポ,,,CartoonStims/artist_punch_doctor_r.jpg,audio/pumisidopipo.mp3,,,,,,,,,,,,,,,,,,,,,,,,,,,,,,,,,,,,,,,,,,,,,,,,,,,,,,,,,,,,,,,,,,,,,,,,,,
,,,,,,,,,R_2uwzMKyW3X19woa,2022-07-03_21h40.18.074,jpn_C02,2022.1.2,Win32,59.96282305,,,space,0.7253,0,33,33,20,1,トマ　ピポ　シド,,,CartoonStims/doctor_point_artist_r.jpg,audio/tomapiposido.mp3,,,,,,,,,,,,,,,,,,,,,,,,,,,,,,,,,,,,,,,,,,,,,,,,,,,,,,,,,,,,,,,,,,,,,,,,,,
,,,,,,,,,R_2uwzMKyW3X19woa,2022-07-03_21h40.18.074,jpn_C02,2022.1.2,Win32,59.96282305,,,space,6.4926,0,34,34,15,1,トマ　ルピン　ピポ,,,CartoonStims/burglar_point_doctor_r.jpg,audio/tomalupinpipo.mp3,,,,,,,,,,,,,,,,,,,,,,,,,,,,,,,,,,,,,,,,,,,,,,,,,,,,,,,,,,,,,,,,,,,,,,,,,,
,,,,,,,,,R_2uwzMKyW3X19woa,2022-07-03_21h40.18.074,jpn_C02,2022.1.2,Win32,59.96282305,,,space,0.8118,0,35,35,29,1,パツ　ホレト　シド,,,CartoonStims/chef_shoot_artist_r.jpg,audio/patsuhoretosido.mp3,,,,,,,,,,,,,,,,,,,,,,,,,,,,,,,,,,,,,,,,,,,,,,,,,,,,,,,,,,,,,,,,,,,,,,,,,,
,,,,,,,,,R_2uwzMKyW3X19woa,2022-07-03_21h40.18.074,jpn_C02,2022.1.2,Win32,59.96282305,,,space,1.4683,0,36,36,44,1,プミ　ピポ　ホレト,,,CartoonStims/doctor_punch_chef_r.jpg,audio/pumipipohoreto.mp3,,,,,,,,,,,,,,,,,,,,,,,,,,,,,,,,,,,,,,,,,,,,,,,,,,,,,,,,,,,,,,,,,,,,,,,,,,
,,,,,,,,,R_2uwzMKyW3X19woa,2022-07-03_21h40.18.074,jpn_C02,2022.1.2,Win32,59.96282305,,,space,0.852,0,37,37,32,1,パツ　ピポ　ルピン,,,CartoonStims/doctor_shoot_burglar_r.jpg,audio/patsupipolupin.mp3,,,,,,,,,,,,,,,,,,,,,,,,,,,,,,,,,,,,,,,,,,,,,,,,,,,,,,,,,,,,,,,,,,,,,,,,,,
,,,,,,,,,R_2uwzMKyW3X19woa,2022-07-03_21h40.18.074,jpn_C02,2022.1.2,Win32,59.96282305,,,space,0.3365,0,38,38,16,1,トマ　ホレト　ピポ,,,CartoonStims/chef_point_doctor_r.jpg,audio/tomahoretopipo.mp3,,,,,,,,,,,,,,,,,,,,,,,,,,,,,,,,,,,,,,,,,,,,,,,,,,,,,,,,,,,,,,,,,,,,,,,,,,
,,,,,,,,,R_2uwzMKyW3X19woa,2022-07-03_21h40.18.074,jpn_C02,2022.1.2,Win32,59.96282305,,,space,0.4758,0,39,39,24,1,パツ　シド　ムク,,,CartoonStims/artist_shoot_cowboy_r.jpg,audio/patsusidomuku.mp3,,,,,,,,,,,,,,,,,,,,,,,,,,,,,,,,,,,,,,,,,,,,,,,,,,,,,,,,,,,,,,,,,,,,,,,,,,
,,,,,,,,,R_2uwzMKyW3X19woa,2022-07-03_21h40.18.074,jpn_C02,2022.1.2,Win32,59.96282305,,,space,0.981,0,40,40,43,1,プミ　ムク　ホレト,,,CartoonStims/cowboy_punch_chef_r.jpg,audio/pumimukuhoreto.mp3,,,,,,,,,,,,,,,,,,,,,,,,,,,,,,,,,,,,,,,,,,,,,,,,,,,,,,,,,,,,,,,,,,,,,,,,,,
,,,,,,,,,R_2uwzMKyW3X19woa,2022-07-03_21h40.18.074,jpn_C02,2022.1.2,Win32,59.96282305,,,space,0.7232,0,41,41,40,1,プミ　ホレト　シド,,,CartoonStims/chef_punch_artist_r.jpg,audio/pumihoretosido.mp3,,,,,,,,,,,,,,,,,,,,,,,,,,,,,,,,,,,,,,,,,,,,,,,,,,,,,,,,,,,,,,,,,,,,,,,,,,
,,,,,,,,,R_2uwzMKyW3X19woa,2022-07-03_21h40.18.074,jpn_C02,2022.1.2,Win32,59.96282305,,,space,0.1233,0,42,42,47,1,プミ　ドキ　ピポ,,,CartoonStims/boxer_punch_doctor_r.jpg,audio/pumidokipipo.mp3,,,,,,,,,,,,,,,,,,,,,,,,,,,,,,,,,,,,,,,,,,,,,,,,,,,,,,,,,,,,,,,,,,,,,,,,,,
,,,,,,,,,R_2uwzMKyW3X19woa,2022-07-03_21h40.18.074,jpn_C02,2022.1.2,Win32,59.96282305,,,space,0.0691,0,43,43,13,1,トマ　シド　ムク,,,CartoonStims/artist_point_cowboy_r.jpg,audio/tomasidomuku.mp3,,,,,,,,,,,,,,,,,,,,,,,,,,,,,,,,,,,,,,,,,,,,,,,,,,,,,,,,,,,,,,,,,,,,,,,,,,
,,,,,,,,,R_2uwzMKyW3X19woa,2022-07-03_21h40.18.074,jpn_C02,2022.1.2,Win32,59.96282305,,,space,0.0848,0,44,44,27,1,パツ　ルピン　ドキ,,,CartoonStims/burglar_shoot_boxer_r.jpg,audio/patsulupindoki.mp3,,,,,,,,,,,,,,,,,,,,,,,,,,,,,,,,,,,,,,,,,,,,,,,,,,,,,,,,,,,,,,,,,,,,,,,,,,
,,,,,,,,,R_2uwzMKyW3X19woa,2022-07-03_21h40.18.074,jpn_C02,2022.1.2,Win32,59.96282305,,,space,0.001,0,45,45,39,1,プミ　ルピン　シド,,,CartoonStims/burglar_punch_artist_r.jpg,audio/pumilupinsido.mp3,,,,,,,,,,,,,,,,,,,,,,,,,,,,,,,,,,,,,,,,,,,,,,,,,,,,,,,,,,,,,,,,,,,,,,,,,,
,,,,,,,,,R_2uwzMKyW3X19woa,2022-07-03_21h40.18.074,jpn_C02,2022.1.2,Win32,59.96282305,,,space,0.3024,0,46,46,10,1,セル　ドキ　シド,,,CartoonStims/boxer_kick_artist_r.jpg,audio/serudokisido.mp3,,,,,,,,,,,,,,,,,,,,,,,,,,,,,,,,,,,,,,,,,,,,,,,,,,,,,,,,,,,,,,,,,,,,,,,,,,
,,,,,,,,,R_2uwzMKyW3X19woa,2022-07-03_21h40.18.074,jpn_C02,2022.1.2,Win32,59.96282305,,,space,0.2656,0,47,47,12,1,トマ　シド　ホレト,,,CartoonStims/artist_point_chef_r.jpg,audio/tomasidohoreto.mp3,,,,,,,,,,,,,,,,,,,,,,,,,,,,,,,,,,,,,,,,,,,,,,,,,,,,,,,,,,,,,,,,,,,,,,,,,,
,,,,,,,,,R_2uwzMKyW3X19woa,2022-07-03_21h40.18.074,jpn_C02,2022.1.2,Win32,59.96282305,,,,,,,,,,,,,,,space,3.4471,left,1,9.6847,,,,,,,,,,,,,,,,,,,,,,,0,0,0,0,1,,,,,,,,,,,,,,,,,,,,,,,,,,,,,,,,,,,,,,,,,,
,,,,,,,,,R_2uwzMKyW3X19woa,2022-07-03_21h40.18.074,jpn_C02,2022.1.2,Win32,59.96282305,,,,,,,,,,,,,,,,,,,,,,,,,0,0,0,6,1,CartoonStims/doctor_punch_boxer_r.jpg,プミ　ピポ　ドキ,CartoonStims/doctor_shoot_boxer_r.jpg,left,CartoonStims/doctor_punch_boxer_r.jpg,audio/pumipipodoki.mp3,残念！ こちらが正しい画像です。,,,,,,,,,,,,,,,,,,,,,,,,,,,,,,,,,,,,,,,,,,,,,,,,,,,,
,,,,,,,,,R_2uwzMKyW3X19woa,2022-07-03_21h40.18.074,jpn_C02,2022.1.2,Win32,59.96282305,,,,,,,,,,,,,,,,,left,0,7.6353,,,,,,,,,,,,,,,,,,,,,,,,,,,,0,0,0,0,1,,,,,,,,,,,,,,,,,,,,,,,,,,,,,,,,,,,,,
,,,,,,,,,R_2uwzMKyW3X19woa,2022-07-03_21h40.18.074,jpn_C02,2022.1.2,Win32,59.96282305,,,,,,,,,,,,,,,,,,,,,,,,,0,1,1,9,1,CartoonStims/chef_kick_artist_r.jpg,セル　ムク　シド,CartoonStims/cowboy_kick_artist_r.jpg,right,CartoonStims/cowboy_kick_artist_r.jpg,audio/serumukusido.mp3,残念！ こちらが正しい画像です。,,,,,,,,,,,,,,,,,,,,,,,,,,,,,,,,,,,,,,,,,,,,,,,,,,,,
,,,,,,,,,R_2uwzMKyW3X19woa,2022-07-03_21h40.18.074,jpn_C02,2022.1.2,Win32,59.96282305,,,,,,,,,,,,,,,,,left,1,2.7677,,,,,,,,,,,,,,,,,,,,,,,0,0,0,0,1,,,,,,,,,,,,,,,,,,,,,,,,,,,,,,,,,,,,,,,,,,
,,,,,,,,,R_2uwzMKyW3X19woa,2022-07-03_21h40.18.074,jpn_C02,2022.1.2,Win32,59.96282305,,,,,,,,,,,,,,,,,,,,,,,,,0,2,2,4,1,CartoonStims/burglar_point_boxer_r.jpg,トマ　ルピン　ドキ,CartoonStims/burglar_kick_boxer_r.jpg,left,CartoonStims/burglar_point_boxer_r.jpg,audio/tomalupindoki.mp3,残念！ こちらが正しい画像です。,,,,,,,,,,,,,,,,,,,,,,,,,,,,,,,,,,,,,,,,,,,,,,,,,,,,
,,,,,,,,,R_2uwzMKyW3X19woa,2022-07-03_21h40.18.074,jpn_C02,2022.1.2,Win32,59.96282305,,,,,,,,,,,,,,,,,left,1,3.7367,,,,,,,,,,,,,,,,,,,,,,,0,0,0,0,1,,,,,,,,,,,,,,,,,,,,,,,,,,,,,,,,,,,,,,,,,,
,,,,,,,,,R_2uwzMKyW3X19woa,2022-07-03_21h40.18.074,jpn_C02,2022.1.2,Win32,59.96282305,,,,,,,,,,,,,,,,,,,,,,,,,0,3,3,2,1,CartoonStims/boxer_shoot_doctor_r.jpg,パツ　ドキ　ピポ,CartoonStims/boxer_shoot_artist_r.jpg,left,CartoonStims/boxer_shoot_doctor_r.jpg,audio/patsudokipipo.mp3,残念！ こちらが正しい画像です。,,,,,,,,,,,,,,,,,,,,,,,,,,,,,,,,,,,,,,,,,,,,,,,,,,,,
,,,,,,,,,R_2uwzMKyW3X19woa,2022-07-03_21h40.18.074,jpn_C02,2022.1.2,Win32,59.96282305,,,,,,,,,,,,,,,,,right,1,2.8859,,,,,,,,,,,,,,,,,,0,0,0,0,1,,,,,,,,,,,,,,,,,,,,,,,,,,,,,,,,,,,,,,,,,,,,,,,
,,,,,,,,,R_2uwzMKyW3X19woa,2022-07-03_21h40.18.074,jpn_C02,2022.1.2,Win32,59.96282305,,,,,,,,,,,,,,,,,,,,,,,,,0,4,4,5,1,CartoonStims/cowboy_point_chef_r.jpg,パツ　ムク　ホレト,CartoonStims/cowboy_shoot_chef_r.jpg,right,CartoonStims/cowboy_shoot_chef_r.jpg,audio/patsumukuhoreto.mp3,残念！ こちらが正しい画像です。,,,,,,,,,,,,,,,,,,,,,,,,,,,,,,,,,,,,,,,,,,,,,,,,,,,,
,,,,,,,,,R_2uwzMKyW3X19woa,2022-07-03_21h40.18.074,jpn_C02,2022.1.2,Win32,59.96282305,,,,,,,,,,,,,,,,,left,1,4.7084,,,,,,,,,,,,,,,,,,,,,,,0,0,0,0,1,,,,,,,,,,,,,,,,,,,,,,,,,,,,,,,,,,,,,,,,,,
,,,,,,,,,R_2uwzMKyW3X19woa,2022-07-03_21h40.18.074,jpn_C02,2022.1.2,Win32,59.96282305,,,,,,,,,,,,,,,,,,,,,,,,,0,5,5,0,1,CartoonStims/doctor_kick_burglar_r.jpg,セル　ピポ　ルピン,CartoonStims/doctor_kick_chef_r.jpg,left,CartoonStims/doctor_kick_burglar_r.jpg,audio/serupipolupin.mp3,残念！ こちらが正しい画像です。,,,,,,,,,,,,,,,,,,,,,,,,,,,,,,,,,,,,,,,,,,,,,,,,,,,,
,,,,,,,,,R_2uwzMKyW3X19woa,2022-07-03_21h40.18.074,jpn_C02,2022.1.2,Win32,59.96282305,,,,,,,,,,,,,,,,,left,1,2.6195,,,,,,,,,,,,,,,,,,,,,,,0,0,0,0,1,,,,,,,,,,,,,,,,,,,,,,,,,,,,,,,,,,,,,,,,,,
,,,,,,,,,R_2uwzMKyW3X19woa,2022-07-03_21h40.18.074,jpn_C02,2022.1.2,Win32,59.96282305,,,,,,,,,,,,,,,,,,,,,,,,,0,6,6,8,1,CartoonStims/doctor_point_cowboy_r.jpg,トマ　ピポ　ムク,CartoonStims/boxer_point_cowboy_r.jpg,left,CartoonStims/doctor_point_cowboy_r.jpg,audio/tomapipomuku.mp3,残念！ こちらが正しい画像です。,,,,,,,,,,,,,,,,,,,,,,,,,,,,,,,,,,,,,,,,,,,,,,,,,,,,
,,,,,,,,,R_2uwzMKyW3X19woa,2022-07-03_21h40.18.074,jpn_C02,2022.1.2,Win32,59.96282305,,,,,,,,,,,,,,,,,right,1,3.6953,,,,,,,,,,,,,,,,,,0,0,0,0,1,,,,,,,,,,,,,,,,,,,,,,,,,,,,,,,,,,,,,,,,,,,,,,,
,,,,,,,,,R_2uwzMKyW3X19woa,2022-07-03_21h40.18.074,jpn_C02,2022.1.2,Win32,59.96282305,,,,,,,,,,,,,,,,,,,,,,,,,0,7,7,11,1,CartoonStims/burglar_punch_cowboy_r.jpg,プミ　ホレト　ムク,CartoonStims/chef_punch_cowboy_r.jpg,right,CartoonStims/chef_punch_cowboy_r.jpg,audio/pumihoretomuku.mp3,残念！ こちらが正しい画像です。,,,,,,,,,,,,,,,,,,,,,,,,,,,,,,,,,,,,,,,,,,,,,,,,,,,,
,,,,,,,,,R_2uwzMKyW3X19woa,2022-07-03_21h40.18.074,jpn_C02,2022.1.2,Win32,59.96282305,,,,,,,,,,,,,,,,,right,1,8.8193,,,,,,,,,,,,,,,,,,0,0,0,0,1,,,,,,,,,,,,,,,,,,,,,,,,,,,,,,,,,,,,,,,,,,,,,,,
,,,,,,,,,R_2uwzMKyW3X19woa,2022-07-03_21h40.18.074,jpn_C02,2022.1.2,Win32,59.96282305,,,,,,,,,,,,,,,,,,,,,,,,,0,8,8,7,1,CartoonStims/artist_punch_cowboy_r.jpg,セル　シド　ムク,CartoonStims/artist_kick_cowboy_r.jpg,right,CartoonStims/artist_kick_cowboy_r.jpg,audio/serusidomuku.mp3,残念！ こちらが正しい画像です。,,,,,,,,,,,,,,,,,,,,,,,,,,,,,,,,,,,,,,,,,,,,,,,,,,,,
,,,,,,,,,R_2uwzMKyW3X19woa,2022-07-03_21h40.18.074,jpn_C02,2022.1.2,Win32,59.96282305,,,,,,,,,,,,,,,,,left,1,6.0975,,,,,,,,,,,,,,,,,,,,,,,0,0,0,0,1,,,,,,,,,,,,,,,,,,,,,,,,,,,,,,,,,,,,,,,,,,
,,,,,,,,,R_2uwzMKyW3X19woa,2022-07-03_21h40.18.074,jpn_C02,2022.1.2,Win32,59.96282305,,,,,,,,,,,,,,,,,,,,,,,,,0,9,9,10,1,CartoonStims/artist_shoot_burglar_r.jpg,パツ　シド　ルピン,CartoonStims/chef_shoot_burglar_r.jpg,left,CartoonStims/artist_shoot_burglar_r.jpg,audio/patsusidolupin.mp3,残念！ こちらが正しい画像です。,,,,,,,,,,,,,,,,,,,,,,,,,,,,,,,,,,,,,,,,,,,,,,,,,,,,
,,,,,,,,,R_2uwzMKyW3X19woa,2022-07-03_21h40.18.074,jpn_C02,2022.1.2,Win32,59.96282305,,,,,,,,,,,,,,,,,right,1,4.4224,,,,,,,,,,,,,,,,,,0,0,0,0,1,,,,,,,,,,,,,,,,,,,,,,,,,,,,,,,,,,,,,,,,,,,,,,,
,,,,,,,,,R_2uwzMKyW3X19woa,2022-07-03_21h40.18.074,jpn_C02,2022.1.2,Win32,59.96282305,,,,,,,,,,,,,,,,,,,,,,,,,0,10,10,3,1,CartoonStims/cowboy_punch_doctor_r.jpg,プミ　ムク　ドキ,CartoonStims/cowboy_punch_boxer_r.jpg,right,CartoonStims/cowboy_punch_boxer_r.jpg,audio/pumimukudoki.mp3,残念！ こちらが正しい画像です。,,,,,,,,,,,,,,,,,,,,,,,,,,,,,,,,,,,,,,,,,,,,,,,,,,,,
,,,,,,,,,R_2uwzMKyW3X19woa,2022-07-03_21h40.18.074,jpn_C02,2022.1.2,Win32,59.96282305,,,,,,,,,,,,,,,,,right,1,1.1191,,,,,,,,,,,,,,,,,,0,0,0,0,1,,,,,,,,,,,,,,,,,,,,,,,,,,,,,,,,,,,,,,,,,,,,,,,
,,,,,,,,,R_2uwzMKyW3X19woa,2022-07-03_21h40.18.074,jpn_C02,2022.1.2,Win32,59.96282305,,,,,,,,,,,,,,,,,,,,,,,,,0,11,11,1,1,CartoonStims/chef_point_burglar_r.jpg,トマ　ホレト　シド,CartoonStims/chef_point_artist_r.jpg,right,CartoonStims/chef_point_artist_r.jpg,audio/tomahoretosido.mp3,残念！ こちらが正しい画像です。,,,,,,,,,,,,,,,,,,,,,,,,,,,,,,,,,,,,,,,,,,,,,,,,,,,,
,,,,,,,,,R_2uwzMKyW3X19woa,2022-07-03_21h40.18.074,jpn_C02,2022.1.2,Win32,59.96282305,,,,,,,,,,,,,,,,,,,,,,,,,,,,,,,,,,,,,,,,,,,,,,,,,,,,space,6.1023,セル　シド　ルピン,right,48.7828,0,0,0,0,1,,,,,,,,,,,,,,,,,,,,,,,,,,,
,,,,,,,,,R_2uwzMKyW3X19woa,2022-07-03_21h40.18.074,jpn_C02,2022.1.2,Win32,59.96282305,,,,,,,,,,,,,CartoonStims/cowboy_kick_burglar_r.jpg,audio/serumukulupin.mp3,,,,,,,,,,,,,,,,,,,,,,,,,,,,,,,,,,,,,,,,,,,,,,,,0,0,0,0,1,セル　ムク　ルピン,,,,,,,,,,,,,,,,,,,,,
,,,,,,,,,R_2uwzMKyW3X19woa,2022-07-03_21h40.18.074,jpn_C02,2022.1.2,Win32,59.96282305,,,,,,,,,,,,,,,,,,,,,,,,,,,,,,,,,,,,,,,,,,,,,,,,,,,,,,パツ　ムク　ピポ,right,42.0847,0,0,0,0,1,,,,,,,,,,,,,,,,,,,,,,,,,,,
,,,,,,,,,R_2uwzMKyW3X19woa,2022-07-03_21h40.18.074,jpn_C02,2022.1.2,Win32,59.96282305,,,,,,,,,,,,,CartoonStims/cowboy_shoot_doctor_r.jpg,audio/patsumukupipo.mp3,,,,,,,,,,,,,,,,,,,,,,,,,,,,,,,,,,,,,,,,,,,,,,,,0,1,1,8,1,パツ　ムク　ピポ,,,,,,,,,,,,,,,,,,,,,
,,,,,,,,,R_2uwzMKyW3X19woa,2022-07-03_21h40.18.074,jpn_C02,2022.1.2,Win32,59.96282305,,,,,,,,,,,,,,,,,,,,,,,,,,,,,,,,,,,,,,,,,,,,,,,,,,,,,,プミ　ドキ　コレホ,right,38.6374,0,0,0,0,1,,,,,,,,,,,,,,,,,,,,,,,,,,,
,,,,,,,,,R_2uwzMKyW3X19woa,2022-07-03_21h40.18.074,jpn_C02,2022.1.2,Win32,59.96282305,,,,,,,,,,,,,CartoonStims/boxer_punch_artist_r.jpg,audio/pumidokisido.mp3,,,,,,,,,,,,,,,,,,,,,,,,,,,,,,,,,,,,,,,,,,,,,,,,0,2,2,11,1,プミ　ドキ　シド,,,,,,,,,,,,,,,,,,,,,
,,,,,,,,,R_2uwzMKyW3X19woa,2022-07-03_21h40.18.074,jpn_C02,2022.1.2,Win32,59.96282305,,,,,,,,,,,,,,,,,,,,,,,,,,,,,,,,,,,,,,,,,,,,,,,,,,,,,,トマ　ルピン　シド,right,28.9933,0,0,0,0,1,,,,,,,,,,,,,,,,,,,,,,,,,,,
,,,,,,,,,R_2uwzMKyW3X19woa,2022-07-03_21h40.18.074,jpn_C02,2022.1.2,Win32,59.96282305,,,,,,,,,,,,,CartoonStims/burglar_point_artist_r.jpg,audio/tomalupinsido.mp3,,,,,,,,,,,,,,,,,,,,,,,,,,,,,,,,,,,,,,,,,,,,,,,,0,3,3,4,1,トマ　ルピン　シド,,,,,,,,,,,,,,,,,,,,,
,,,,,,,,,R_2uwzMKyW3X19woa,2022-07-03_21h40.18.074,jpn_C02,2022.1.2,Win32,59.96282305,,,,,,,,,,,,,,,,,,,,,,,,,,,,,,,,,,,,,,,,,,,,,,,,,,,,,,パツ　ピポ　コレホ,right,30.1135,0,0,0,0,1,,,,,,,,,,,,,,,,,,,,,,,,,,,
,,,,,,,,,R_2uwzMKyW3X19woa,2022-07-03_21h40.18.074,jpn_C02,2022.1.2,Win32,59.96282305,,,,,,,,,,,,,CartoonStims/doctor_kick_chef_r.jpg,audio/serupipohoreto.mp3,,,,,,,,,,,,,,,,,,,,,,,,,,,,,,,,,,,,,,,,,,,,,,,,0,4,4,1,1,セル　ピポ　ホレト,,,,,,,,,,,,,,,,,,,,,
,,,,,,,,,R_2uwzMKyW3X19woa,2022-07-03_21h40.18.074,jpn_C02,2022.1.2,Win32,59.96282305,,,,,,,,,,,,,,,,,,,,,,,,,,,,,,,,,,,,,,,,,,,,,,,,,,,,,,トマ　ムク　ドキ,right,32.6717,0,0,0,0,1,,,,,,,,,,,,,,,,,,,,,,,,,,,
,,,,,,,,,R_2uwzMKyW3X19woa,2022-07-03_21h40.18.074,jpn_C02,2022.1.2,Win32,59.96282305,,,,,,,,,,,,,CartoonStims/artist_point_boxer_r.jpg,audio/tomasidodoki.mp3,,,,,,,,,,,,,,,,,,,,,,,,,,,,,,,,,,,,,,,,,,,,,,,,0,5,5,3,1,トマ　シド　ドキ,,,,,,,,,,,,,,,,,,,,,
,,,,,,,,,R_2uwzMKyW3X19woa,2022-07-03_21h40.18.074,jpn_C02,2022.1.2,Win32,59.96282305,,,,,,,,,,,,,,,,,,,,,,,,,,,,,,,,,,,,,,,,,,,,,,,,,,,,,,パツ　ムク　シド,right,35.3039,0,0,0,0,1,,,,,,,,,,,,,,,,,,,,,,,,,,,
,,,,,,,,,R_2uwzMKyW3X19woa,2022-07-03_21h40.18.074,jpn_C02,2022.1.2,Win32,59.96282305,,,,,,,,,,,,,CartoonStims/chef_shoot_cowboy_r.jpg,audio/patsuhoretomuku.mp3,,,,,,,,,,,,,,,,,,,,,,,,,,,,,,,,,,,,,,,,,,,,,,,,0,6,6,7,1,パツ　ホレト　ムク,,,,,,,,,,,,,,,,,,,,,
,,,,,,,,,R_2uwzMKyW3X19woa,2022-07-03_21h40.18.074,jpn_C02,2022.1.2,Win32,59.96282305,,,,,,,,,,,,,,,,,,,,,,,,,,,,,,,,,,,,,,,,,,,,,,,,,,,,,,ドキ　,right,43.394,0,0,0,0,1,,,,,,,,,,,,,,,,,,,,,,,,,,,
,,,,,,,,,R_2uwzMKyW3X19woa,2022-07-03_21h40.18.074,jpn_C02,2022.1.2,Win32,59.96282305,,,,,,,,,,,,,CartoonStims/boxer_kick_cowboy_r.jpg,audio/serudokimuku.mp3,,,,,,,,,,,,,,,,,,,,,,,,,,,,,,,,,,,,,,,,,,,,,,,,0,7,7,2,1,セル　ドキ　ムク,,,,,,,,,,,,,,,,,,,,,
,,,,,,,,,R_2uwzMKyW3X19woa,2022-07-03_21h40.18.074,jpn_C02,2022.1.2,Win32,59.96282305,,,,,,,,,,,,,,,,,,,,,,,,,,,,,,,,,,,,,,,,,,,,,,,,,,,,,,パツ　シド　ルピン　　,right,59.247,0,0,0,0,1,,,,,,,,,,,,,,,,,,,,,,,,,,,
,,,,,,,,,R_2uwzMKyW3X19woa,2022-07-03_21h40.18.074,jpn_C02,2022.1.2,Win32,59.96282305,,,,,,,,,,,,,CartoonStims/artist_punch_burglar_r.jpg,audio/pumisidolupin.mp3,,,,,,,,,,,,,,,,,,,,,,,,,,,,,,,,,,,,,,,,,,,,,,,,0,8,8,9,1,プミ　シド　ルピン,,,,,,,,,,,,,,,,,,,,,
,,,,,,,,,R_2uwzMKyW3X19woa,2022-07-03_21h40.18.074,jpn_C02,2022.1.2,Win32,59.96282305,,,,,,,,,,,,,,,,,,,,,,,,,,,,,,,,,,,,,,,,,,,,,,,,,,,,,,プミ　ピポ　ドキ,right,21.9528,0,0,0,0,1,,,,,,,,,,,,,,,,,,,,,,,,,,,
,,,,,,,,,R_2uwzMKyW3X19woa,2022-07-03_21h40.18.074,jpn_C02,2022.1.2,Win32,59.96282305,,,,,,,,,,,,,CartoonStims/doctor_punch_boxer_r.jpg,audio/pumipipodoki.mp3,,,,,,,,,,,,,,,,,,,,,,,,,,,,,,,,,,,,,,,,,,,,,,,,0,9,9,10,1,プミ　ピポ　ドキ,,,,,,,,,,,,,,,,,,,,,
,,,,,,,,,R_2uwzMKyW3X19woa,2022-07-03_21h40.18.074,jpn_C02,2022.1.2,Win32,59.96282305,,,,,,,,,,,,,,,,,,,,,,,,,,,,,,,,,,,,,,,,,,,,,,,,,,,,,,パツ　ルピン　コレホ,right,34.7735,0,0,0,0,1,,,,,,,,,,,,,,,,,,,,,,,,,,,
,,,,,,,,,R_2uwzMKyW3X19woa,2022-07-03_21h40.18.074,jpn_C02,2022.1.2,Win32,59.96282305,,,,,,,,,,,,,CartoonStims/burglar_shoot_chef_r.jpg,audio/patsulupinhoreto.mp3,,,,,,,,,,,,,,,,,,,,,,,,,,,,,,,,,,,,,,,,,,,,,,,,0,10,10,6,1,パツ　ルピン　ホレト,,,,,,,,,,,,,,,,,,,,,
,,,,,,,,,R_2uwzMKyW3X19woa,2022-07-03_21h40.18.074,jpn_C02,2022.1.2,Win32,59.96282305,,,,,,,,,,,,,,,,,,,,,,,,,,,,,,,,,,,,,,,,,,,,,,,,,,,,,,ホレト　ルピン,right,36.8351,0,0,0,0,1,,,,,,,,,,,,,,,,,,,,,,,,,,,
,,,,,,,,,R_2uwzMKyW3X19woa,2022-07-03_21h40.18.074,jpn_C02,2022.1.2,Win32,59.96282305,,,,,,,,,,,,,CartoonStims/chef_point_burglar_r.jpg,audio/tomahoretolupin.mp3,,,,,,,,,,,,,,,,,,,,,,,,,,,,,,,,,,,,,,,,,,,,,,,,0,11,11,5,1,トマ　ホレト　ルピン,,,,,,,,,,,,,,,,,,,,,
,,,,,,,,,R_2uwzMKyW3X19woa,2022-07-03_21h40.18.074,jpn_C02,2022.1.2,Win32,59.96282305,,,,,,,,,,,,,,,,,,,,,,,,,,,,,,,,,,,,,,,,,,,,,,,,,,,,,,,,,,,,,,,,,,,,,space,3.718,0,1,1,1,1,AffExposure.xlsx,"第二のトライアルの学習では、この言語で書かれた文を見ていただきます。引き続き注意して、 聞こえた音を復唱してください。


スペースキーを押してください。",1,AffFCT.xlsx,ここからクイズが始まります。 スクリーンに表示されるテキストに合う画像を選んでください。,AffTest.xlsx,1,次にここまで学んだことをアウトプットしていただきます。 表示される画像を描写していると思う単語を、テキストボックスにタイプしてください。 答えを提出したあとに正しい正解が少しの間画面に写ります。,1,"これで第二のトライアルが終了しました。 ここで休憩をとっていただいても構いません。

休憩が終わりましたら、 スペースキーを押して続きの学習を行いましょう。",,,
,,,,,,,,,R_2uwzMKyW3X19woa,2022-07-03_21h40.18.074,jpn_C02,2022.1.2,Win32,59.96282305,space,0.9085,space,8.703,0,0,0,41,1,ピク　プミ　ホレト　ルピン,,,CartoonStims/chef_punch_burglar_r_no.jpg,audio/pikupumihoretolupin.mp3,,,,,,,,,,,,,,,,,,,,,,,,,,,,,,,,,,,,,,,,,,,,,,,,,,,,,,,,,,,,,,,,,,,,,,,,,,
,,,,,,,,,R_2uwzMKyW3X19woa,2022-07-03_21h40.18.074,jpn_C02,2022.1.2,Win32,59.96282305,,,space,9.179,0,1,1,42,1,プミ　ピク　ムク　ルピン,,,CartoonStims/cowboy_punch_burglar_r_no.jpg,audio/pumipikumukulupin.mp3,,,,,,,,,,,,,,,,,,,,,,,,,,,,,,,,,,,,,,,,,,,,,,,,,,,,,,,,,,,,,,,,,,,,,,,,,,
,,,,,,,,,R_2uwzMKyW3X19woa,2022-07-03_21h40.18.074,jpn_C02,2022.1.2,Win32,59.96282305,,,space,7.6342,0,2,2,1,1,ピク　セル　シド　ホレト,,,CartoonStims/artist_kick_chef_r_no.jpg,audio/pikuserusidohoreto.mp3,,,,,,,,,,,,,,,,,,,,,,,,,,,,,,,,,,,,,,,,,,,,,,,,,,,,,,,,,,,,,,,,,,,,,,,,,,
,,,,,,,,,R_2uwzMKyW3X19woa,2022-07-03_21h40.18.074,jpn_C02,2022.1.2,Win32,59.96282305,,,space,9.7329,0,3,3,17,1,ピク　トマ　ホレト　ドキ,,,CartoonStims/chef_point_boxer_r_no.jpg,audio/pikutomahoretodoki.mp3,,,,,,,,,,,,,,,,,,,,,,,,,,,,,,,,,,,,,,,,,,,,,,,,,,,,,,,,,,,,,,,,,,,,,,,,,,
,,,,,,,,,R_2uwzMKyW3X19woa,2022-07-03_21h40.18.074,jpn_C02,2022.1.2,Win32,59.96282305,,,space,5.635,0,4,4,34,1,ピク　パツ　ドキ　ホレト,,,CartoonStims/boxer_shoot_chef_r_no.jpg,audio/pikupatsudokihoreto.mp3,,,,,,,,,,,,,,,,,,,,,,,,,,,,,,,,,,,,,,,,,,,,,,,,,,,,,,,,,,,,,,,,,,,,,,,,,,
,,,,,,,,,R_2uwzMKyW3X19woa,2022-07-03_21h40.18.074,jpn_C02,2022.1.2,Win32,59.96282305,,,space,4.0533,0,5,5,37,1,ピク　プミ　シド　ドキ,,,CartoonStims/artist_punch_boxer_r_no.jpg,audio/pikupumisidodoki.mp3,,,,,,,,,,,,,,,,,,,,,,,,,,,,,,,,,,,,,,,,,,,,,,,,,,,,,,,,,,,,,,,,,,,,,,,,,,
,,,,,,,,,R_2uwzMKyW3X19woa,2022-07-03_21h40.18.074,jpn_C02,2022.1.2,Win32,59.96282305,,,space,2.6027,0,6,6,20,1,ピク　トマ　ピポ　シド,,,CartoonStims/doctor_point_artist_r_no.jpg,audio/pikutomapiposido.mp3,,,,,,,,,,,,,,,,,,,,,,,,,,,,,,,,,,,,,,,,,,,,,,,,,,,,,,,,,,,,,,,,,,,,,,,,,,
,,,,,,,,,R_2uwzMKyW3X19woa,2022-07-03_21h40.18.074,jpn_C02,2022.1.2,Win32,59.96282305,,,space,0.9534,0,7,7,16,1,ピク　トマ　ホレト　ピポ,,,CartoonStims/chef_point_doctor_r_no.jpg,audio/pikutomahoretopipo.mp3,,,,,,,,,,,,,,,,,,,,,,,,,,,,,,,,,,,,,,,,,,,,,,,,,,,,,,,,,,,,,,,,,,,,,,,,,,
,,,,,,,,,R_2uwzMKyW3X19woa,2022-07-03_21h40.18.074,jpn_C02,2022.1.2,Win32,59.96282305,,,space,8.2988,0,8,8,3,1,ピク　セル　ルピン　ムク,,,CartoonStims/burglar_kick_cowboy_r_no.jpg,audio/pikuserulupinmuku.mp3,,,,,,,,,,,,,,,,,,,,,,,,,,,,,,,,,,,,,,,,,,,,,,,,,,,,,,,,,,,,,,,,,,,,,,,,,,
,,,,,,,,,R_2uwzMKyW3X19woa,2022-07-03_21h40.18.074,jpn_C02,2022.1.2,Win32,59.96282305,,,space,2.9844,0,9,9,22,1,ピク　トマ　ドキ　ルピン,,,CartoonStims/boxer_point_burglar_r_no.jpg,audio/pikutomadokilupin.mp3,,,,,,,,,,,,,,,,,,,,,,,,,,,,,,,,,,,,,,,,,,,,,,,,,,,,,,,,,,,,,,,,,,,,,,,,,,
,,,,,,,,,R_2uwzMKyW3X19woa,2022-07-03_21h40.18.074,jpn_C02,2022.1.2,Win32,59.96282305,,,space,4.7377,0,10,10,23,1,トマ　ピク　ドキ　ホレト,,,CartoonStims/boxer_point_chef_r_no.jpg,audio/tomapikudokihoreto.mp3,,,,,,,,,,,,,,,,,,,,,,,,,,,,,,,,,,,,,,,,,,,,,,,,,,,,,,,,,,,,,,,,,,,,,,,,,,
,,,,,,,,,R_2uwzMKyW3X19woa,2022-07-03_21h40.18.074,jpn_C02,2022.1.2,Win32,59.96282305,,,space,3.5856,0,11,11,10,1,ピク　セル　ドキ　シド,,,CartoonStims/boxer_kick_artist_r_no.jpg,audio/pikuserudokisido.mp3,,,,,,,,,,,,,,,,,,,,,,,,,,,,,,,,,,,,,,,,,,,,,,,,,,,,,,,,,,,,,,,,,,,,,,,,,,
,,,,,,,,,R_2uwzMKyW3X19woa,2022-07-03_21h40.18.074,jpn_C02,2022.1.2,Win32,59.96282305,,,space,1.5689,0,12,12,6,1,ピク　セル　ムク　ピポ,,,CartoonStims/cowboy_kick_doctor_r_no.jpg,audio/pikuserumukupipo.mp3,,,,,,,,,,,,,,,,,,,,,,,,,,,,,,,,,,,,,,,,,,,,,,,,,,,,,,,,,,,,,,,,,,,,,,,,,,
,,,,,,,,,R_2uwzMKyW3X19woa,2022-07-03_21h40.18.074,jpn_C02,2022.1.2,Win32,59.96282305,,,space,2.054,0,13,13,43,1,ピク　プミ　ムク　ホレト,,,CartoonStims/cowboy_punch_chef_r_no.jpg,audio/pikupumimukuhoreto.mp3,,,,,,,,,,,,,,,,,,,,,,,,,,,,,,,,,,,,,,,,,,,,,,,,,,,,,,,,,,,,,,,,,,,,,,,,,,
,,,,,,,,,R_2uwzMKyW3X19woa,2022-07-03_21h40.18.074,jpn_C02,2022.1.2,Win32,59.96282305,,,space,1.3134,0,14,14,7,1,ピク　セル　ムク　ドキ,,,CartoonStims/cowboy_kick_boxer_r_no.jpg,audio/pikuserumukudoki.mp3,,,,,,,,,,,,,,,,,,,,,,,,,,,,,,,,,,,,,,,,,,,,,,,,,,,,,,,,,,,,,,,,,,,,,,,,,,
,,,,,,,,,R_2uwzMKyW3X19woa,2022-07-03_21h40.18.074,jpn_C02,2022.1.2,Win32,59.96282305,,,space,1.8032,0,15,15,31,1,ピク　パツ　ムク　ルピン,,,CartoonStims/cowboy_shoot_burglar_r_no.jpg,audio/pikupatsumukulupin.mp3,,,,,,,,,,,,,,,,,,,,,,,,,,,,,,,,,,,,,,,,,,,,,,,,,,,,,,,,,,,,,,,,,,,,,,,,,,
,,,,,,,,,R_2uwzMKyW3X19woa,2022-07-03_21h40.18.074,jpn_C02,2022.1.2,Win32,59.96282305,,,space,0.6696,0,16,16,2,1,ピク　セル　ルピン　ホレト,,,CartoonStims/burglar_kick_chef_r_no.jpg,audio/pikuserulupinhoreto.mp3,,,,,,,,,,,,,,,,,,,,,,,,,,,,,,,,,,,,,,,,,,,,,,,,,,,,,,,,,,,,,,,,,,,,,,,,,,
,,,,,,,,,R_2uwzMKyW3X19woa,2022-07-03_21h40.18.074,jpn_C02,2022.1.2,Win32,59.96282305,,,space,15.9535,0,17,17,44,1,プミ　ピク　ピポ　ホレト,,,CartoonStims/doctor_punch_chef_r_no.jpg,audio/pumipikupipohoreto.mp3,,,,,,,,,,,,,,,,,,,,,,,,,,,,,,,,,,,,,,,,,,,,,,,,,,,,,,,,,,,,,,,,,,,,,,,,,,
,,,,,,,,,R_2uwzMKyW3X19woa,2022-07-03_21h40.18.074,jpn_C02,2022.1.2,Win32,59.96282305,,,space,3.0062,0,18,18,26,1,ピク　パツ　ルピン　ピポ,,,CartoonStims/burglar_shoot_doctor_r_no.jpg,audio/pikupatsulupinpipo.mp3,,,,,,,,,,,,,,,,,,,,,,,,,,,,,,,,,,,,,,,,,,,,,,,,,,,,,,,,,,,,,,,,,,,,,,,,,,
,,,,,,,,,R_2uwzMKyW3X19woa,2022-07-03_21h40.18.074,jpn_C02,2022.1.2,Win32,59.96282305,,,space,17.4743,0,19,19,4,1,セル　ピク　ホレト　ムク,,,CartoonStims/chef_kick_cowboy_r_no.jpg,audio/serupikuhoretomuku.mp3,,,,,,,,,,,,,,,,,,,,,,,,,,,,,,,,,,,,,,,,,,,,,,,,,,,,,,,,,,,,,,,,,,,,,,,,,,
,,,,,,,,,R_2uwzMKyW3X19woa,2022-07-03_21h40.18.074,jpn_C02,2022.1.2,Win32,59.96282305,,,space,15.1487,0,20,20,38,1,ピク　プミ　ルピン　ドキ,,,CartoonStims/burglar_punch_boxer_r_no.jpg,audio/pikupumilupindoki.mp3,,,,,,,,,,,,,,,,,,,,,,,,,,,,,,,,,,,,,,,,,,,,,,,,,,,,,,,,,,,,,,,,,,,,,,,,,,
,,,,,,,,,R_2uwzMKyW3X19woa,2022-07-03_21h40.18.074,jpn_C02,2022.1.2,Win32,59.96282305,,,space,18.1631,0,21,21,9,1,ピク　セル　ピポ　シド,,,CartoonStims/doctor_kick_artist_r_no.jpg,audio/pikuserupiposido.mp3,,,,,,,,,,,,,,,,,,,,,,,,,,,,,,,,,,,,,,,,,,,,,,,,,,,,,,,,,,,,,,,,,,,,,,,,,,
,,,,,,,,,R_2uwzMKyW3X19woa,2022-07-03_21h40.18.074,jpn_C02,2022.1.2,Win32,59.96282305,,,space,2.0679,0,22,22,33,1,ピク　パツ　ピポ　ホレト,,,CartoonStims/doctor_shoot_chef_r_no.jpg,audio/pikupatsupipohoreto.mp3,,,,,,,,,,,,,,,,,,,,,,,,,,,,,,,,,,,,,,,,,,,,,,,,,,,,,,,,,,,,,,,,,,,,,,,,,,
,,,,,,,,,R_2uwzMKyW3X19woa,2022-07-03_21h40.18.074,jpn_C02,2022.1.2,Win32,59.96282305,,,space,2.9904,0,23,23,12,1,ピク　トマ　シド　ホレト,,,CartoonStims/artist_point_chef_r_no.jpg,audio/pikutomasidohoreto.mp3,,,,,,,,,,,,,,,,,,,,,,,,,,,,,,,,,,,,,,,,,,,,,,,,,,,,,,,,,,,,,,,,,,,,,,,,,,
,,,,,,,,,R_2uwzMKyW3X19woa,2022-07-03_21h40.18.074,jpn_C02,2022.1.2,Win32,59.96282305,,,space,1.1515,0,24,24,30,1,ピク　パツ　ムク　シド,,,CartoonStims/cowboy_shoot_artist_r_no.jpg,audio/pikupatsumukusido.mp3,,,,,,,,,,,,,,,,,,,,,,,,,,,,,,,,,,,,,,,,,,,,,,,,,,,,,,,,,,,,,,,,,,,,,,,,,,
,,,,,,,,,R_2uwzMKyW3X19woa,2022-07-03_21h40.18.074,jpn_C02,2022.1.2,Win32,59.96282305,,,space,1.3842,0,25,25,47,1,ピク　プミ　ドキ　ピポ,,,CartoonStims/boxer_punch_doctor_r_no.jpg,audio/pikupumidokipipo.mp3,,,,,,,,,,,,,,,,,,,,,,,,,,,,,,,,,,,,,,,,,,,,,,,,,,,,,,,,,,,,,,,,,,,,,,,,,,
,,,,,,,,,R_2uwzMKyW3X19woa,2022-07-03_21h40.18.074,jpn_C02,2022.1.2,Win32,59.96282305,,,space,1.3823,0,26,26,35,1,ピク　パツ　ドキ　ムク,,,CartoonStims/boxer_shoot_cowboy_r_no.jpg,audio/pikupatsudokimuku.mp3,,,,,,,,,,,,,,,,,,,,,,,,,,,,,,,,,,,,,,,,,,,,,,,,,,,,,,,,,,,,,,,,,,,,,,,,,,
,,,,,,,,,R_2uwzMKyW3X19woa,2022-07-03_21h40.18.074,jpn_C02,2022.1.2,Win32,59.96282305,,,space,1.2521,0,27,27,5,1,ピク　セル　ホレト　ピポ,,,CartoonStims/chef_kick_doctor_r_no.jpg,audio/pikuseruhoretopipo.mp3,,,,,,,,,,,,,,,,,,,,,,,,,,,,,,,,,,,,,,,,,,,,,,,,,,,,,,,,,,,,,,,,,,,,,,,,,,
,,,,,,,,,R_2uwzMKyW3X19woa,2022-07-03_21h40.18.074,jpn_C02,2022.1.2,Win32,59.96282305,,,space,1.0359,0,28,28,24,1,ピク　パツ　シド　ムク,,,CartoonStims/artist_shoot_cowboy_r_no.jpg,audio/pikupatsusidomuku.mp3,,,,,,,,,,,,,,,,,,,,,,,,,,,,,,,,,,,,,,,,,,,,,,,,,,,,,,,,,,,,,,,,,,,,,,,,,,
,,,,,,,,,R_2uwzMKyW3X19woa,2022-07-03_21h40.18.074,jpn_C02,2022.1.2,Win32,59.96282305,,,space,2.7678,0,29,29,8,1,セル　ピク　ピポ　ドキ,,,CartoonStims/doctor_kick_boxer_r_no.jpg,audio/serupikupipodoki.mp3,,,,,,,,,,,,,,,,,,,,,,,,,,,,,,,,,,,,,,,,,,,,,,,,,,,,,,,,,,,,,,,,,,,,,,,,,,
,,,,,,,,,R_2uwzMKyW3X19woa,2022-07-03_21h40.18.074,jpn_C02,2022.1.2,Win32,59.96282305,,,space,0.7723,0,30,30,45,1,ピク　プミ　ピポ　ムク,,,CartoonStims/doctor_punch_cowboy_r_no.jpg,audio/pikupumipipomuku.mp3,,,,,,,,,,,,,,,,,,,,,,,,,,,,,,,,,,,,,,,,,,,,,,,,,,,,,,,,,,,,,,,,,,,,,,,,,,
,,,,,,,,,R_2uwzMKyW3X19woa,2022-07-03_21h40.18.074,jpn_C02,2022.1.2,Win32,59.96282305,,,space,0.1679,0,31,31,18,1,ピク　トマ　ムク　ドキ,,,CartoonStims/cowboy_point_boxer_r_no.jpg,audio/pikutomamukudoki.mp3,,,,,,,,,,,,,,,,,,,,,,,,,,,,,,,,,,,,,,,,,,,,,,,,,,,,,,,,,,,,,,,,,,,,,,,,,,
,,,,,,,,,R_2uwzMKyW3X19woa,2022-07-03_21h40.18.074,jpn_C02,2022.1.2,Win32,59.96282305,,,space,0.2344,0,32,32,0,1,セル　ピク　シド　ルピン,,,CartoonStims/artist_kick_burglar_r_no.jpg,audio/serupikusidolupin.mp3,,,,,,,,,,,,,,,,,,,,,,,,,,,,,,,,,,,,,,,,,,,,,,,,,,,,,,,,,,,,,,,,,,,,,,,,,,
,,,,,,,,,R_2uwzMKyW3X19woa,2022-07-03_21h40.18.074,jpn_C02,2022.1.2,Win32,59.96282305,,,space,0.0543,0,33,33,14,1,ピク　トマ　ルピン　ムク,,,CartoonStims/burglar_point_cowboy_r_no.jpg,audio/pikutomalupinmuku.mp3,,,,,,,,,,,,,,,,,,,,,,,,,,,,,,,,,,,,,,,,,,,,,,,,,,,,,,,,,,,,,,,,,,,,,,,,,,
,,,,,,,,,R_2uwzMKyW3X19woa,2022-07-03_21h40.18.074,jpn_C02,2022.1.2,Win32,59.96282305,,,space,1.5875,0,34,34,39,1,ピク　プミ　ルピン　シド,,,CartoonStims/burglar_punch_artist_r_no.jpg,audio/pikupumilupinsido.mp3,,,,,,,,,,,,,,,,,,,,,,,,,,,,,,,,,,,,,,,,,,,,,,,,,,,,,,,,,,,,,,,,,,,,,,,,,,
,,,,,,,,,R_2uwzMKyW3X19woa,2022-07-03_21h40.18.074,jpn_C02,2022.1.2,Win32,59.96282305,,,space,0.0907,0,35,35,40,1,ピク　プミ　ホレト　シド,,,CartoonStims/chef_punch_artist_r_no.jpg,audio/pikupumihoretosido.mp3,,,,,,,,,,,,,,,,,,,,,,,,,,,,,,,,,,,,,,,,,,,,,,,,,,,,,,,,,,,,,,,,,,,,,,,,,,
,,,,,,,,,R_2uwzMKyW3X19woa,2022-07-03_21h40.18.074,jpn_C02,2022.1.2,Win32,59.96282305,,,space,1.6525,0,36,36,15,1,トマ　ピク　ルピン　ピポ,,,CartoonStims/burglar_point_doctor_r_no.jpg,audio/tomapikulupinpipo.mp3,,,,,,,,,,,,,,,,,,,,,,,,,,,,,,,,,,,,,,,,,,,,,,,,,,,,,,,,,,,,,,,,,,,,,,,,,,
,,,,,,,,,R_2uwzMKyW3X19woa,2022-07-03_21h40.18.074,jpn_C02,2022.1.2,Win32,59.96282305,,,space,10.6523,0,37,37,11,1,ピク　セル　ドキ　ルピン,,,CartoonStims/boxer_kick_burglar_r_no.jpg,audio/pikuserudokilupin.mp3,,,,,,,,,,,,,,,,,,,,,,,,,,,,,,,,,,,,,,,,,,,,,,,,,,,,,,,,,,,,,,,,,,,,,,,,,,
,,,,,,,,,R_2uwzMKyW3X19woa,2022-07-03_21h40.18.074,jpn_C02,2022.1.2,Win32,59.96282305,,,space,12.201,0,38,38,19,1,トマ　ピク　ムク　シド,,,CartoonStims/cowboy_point_artist_r_no.jpg,audio/tomapikumukusido.mp3,,,,,,,,,,,,,,,,,,,,,,,,,,,,,,,,,,,,,,,,,,,,,,,,,,,,,,,,,,,,,,,,,,,,,,,,,,
,,,,,,,,,R_2uwzMKyW3X19woa,2022-07-03_21h40.18.074,jpn_C02,2022.1.2,Win32,59.96282305,,,space,3.7337,0,39,39,25,1,パツ　ピク　シド　ピポ,,,CartoonStims/artist_shoot_doctor_r_no.jpg,audio/patsupikusidopipo.mp3,,,,,,,,,,,,,,,,,,,,,,,,,,,,,,,,,,,,,,,,,,,,,,,,,,,,,,,,,,,,,,,,,,,,,,,,,,
,,,,,,,,,R_2uwzMKyW3X19woa,2022-07-03_21h40.18.074,jpn_C02,2022.1.2,Win32,59.96282305,,,space,2.1525,0,40,40,46,1,プミ　ピク　ドキ　ムク,,,CartoonStims/boxer_punch_cowboy_r_no.jpg,audio/pumipikudokimuku.mp3,,,,,,,,,,,,,,,,,,,,,,,,,,,,,,,,,,,,,,,,,,,,,,,,,,,,,,,,,,,,,,,,,,,,,,,,,,
,,,,,,,,,R_2uwzMKyW3X19woa,2022-07-03_21h40.18.074,jpn_C02,2022.1.2,Win32,59.96282305,,,space,0.952,0,41,41,28,1,ピク　パツ　ホレト　ドキ,,,CartoonStims/chef_shoot_boxer_r_no.jpg,audio/pikupatsuhoretodoki.mp3,,,,,,,,,,,,,,,,,,,,,,,,,,,,,,,,,,,,,,,,,,,,,,,,,,,,,,,,,,,,,,,,,,,,,,,,,,
,,,,,,,,,R_2uwzMKyW3X19woa,2022-07-03_21h40.18.074,jpn_C02,2022.1.2,Win32,59.96282305,,,space,3.1358,0,42,42,27,1,パツ　ピク　ルピン　ドキ,,,CartoonStims/burglar_shoot_boxer_r_no.jpg,audio/patsupikulupindoki.mp3,,,,,,,,,,,,,,,,,,,,,,,,,,,,,,,,,,,,,,,,,,,,,,,,,,,,,,,,,,,,,,,,,,,,,,,,,,
,,,,,,,,,R_2uwzMKyW3X19woa,2022-07-03_21h40.18.074,jpn_C02,2022.1.2,Win32,59.96282305,,,space,1.5351,0,43,43,13,1,ピク　トマ　シド　ムク,,,CartoonStims/artist_point_cowboy_r_no.jpg,audio/pikutomasidomuku.mp3,,,,,,,,,,,,,,,,,,,,,,,,,,,,,,,,,,,,,,,,,,,,,,,,,,,,,,,,,,,,,,,,,,,,,,,,,,
,,,,,,,,,R_2uwzMKyW3X19woa,2022-07-03_21h40.18.074,jpn_C02,2022.1.2,Win32,59.96282305,,,space,1.1537,0,44,44,32,1,ピク　パツ　ピポ　ルピン,,,CartoonStims/doctor_shoot_burglar_r_no.jpg,audio/pikupatsupipolupin.mp3,,,,,,,,,,,,,,,,,,,,,,,,,,,,,,,,,,,,,,,,,,,,,,,,,,,,,,,,,,,,,,,,,,,,,,,,,,
,,,,,,,,,R_2uwzMKyW3X19woa,2022-07-03_21h40.18.074,jpn_C02,2022.1.2,Win32,59.96282305,,,space,0.6376,0,45,45,21,1,ピク　トマ　ピポ　ルピン,,,CartoonStims/doctor_point_burglar_r_no.jpg,audio/pikutomapipolupin.mp3,,,,,,,,,,,,,,,,,,,,,,,,,,,,,,,,,,,,,,,,,,,,,,,,,,,,,,,,,,,,,,,,,,,,,,,,,,
,,,,,,,,,R_2uwzMKyW3X19woa,2022-07-03_21h40.18.074,jpn_C02,2022.1.2,Win32,59.96282305,,,space,3.7464,0,46,46,29,1,パツ　ピク　ホレト　シド,,,CartoonStims/chef_shoot_artist_r_no.jpg,audio/patsupikuhoretosido.mp3,,,,,,,,,,,,,,,,,,,,,,,,,,,,,,,,,,,,,,,,,,,,,,,,,,,,,,,,,,,,,,,,,,,,,,,,,,
,,,,,,,,,R_2uwzMKyW3X19woa,2022-07-03_21h40.18.074,jpn_C02,2022.1.2,Win32,59.96282305,,,space,0.9085,0,47,47,36,1,ピク　プミ　シド　ピポ,,,CartoonStims/artist_punch_doctor_r_no.jpg,audio/pikupumisidopipo.mp3,,,,,,,,,,,,,,,,,,,,,,,,,,,,,,,,,,,,,,,,,,,,,,,,,,,,,,,,,,,,,,,,,,,,,,,,,,
,,,,,,,,,R_2uwzMKyW3X19woa,2022-07-03_21h40.18.074,jpn_C02,2022.1.2,Win32,59.96282305,,,,,,,,,,,,,,,space,4.5025,right,0,11.7733,0,0,0,0,1,,,,,,,,,,,,,,,,,,,,,,,,,,,,,,,,,,,,,,,,,,,,,,,,,,,,,,,,,,,,,,,,
,,,,,,,,,R_2uwzMKyW3X19woa,2022-07-03_21h40.18.074,jpn_C02,2022.1.2,Win32,59.96282305,,,,,,,,,,,,,,,,,,,,,,,,,0,0,0,4,1,CartoonStims/burglar_shoot_doctor_r.jpg,ピク　セル　ルピン　ピポ,CartoonStims/burglar_kick_doctor_r.jpg,left,CartoonStims/burglar_shoot_doctor_r.jpg,audio/pikuserulupinpipo.mp3,"残念！ こちらが正しい画像です。

否定文は起きていないことを示しているのを思い出してください。",,,,,,,,,,,,,,,,,,,,,,,,,,,,,,,,,,,,,,,,,,,,,,,,,,,,
,,,,,,,,,R_2uwzMKyW3X19woa,2022-07-03_21h40.18.074,jpn_C02,2022.1.2,Win32,59.96282305,,,,,,,,,,,,,,,,,right,1,1.7861,,,,,,,,,,,,,,,,,,0,0,0,0,1,,,,,,,,,,,,,,,,,,,,,,,,,,,,,,,,,,,,,,,,,,,,,,,
,,,,,,,,,R_2uwzMKyW3X19woa,2022-07-03_21h40.18.074,jpn_C02,2022.1.2,Win32,59.96282305,,,,,,,,,,,,,,,,,,,,,,,,,0,1,1,5,1,CartoonStims/boxer_kick_cowboy_r.jpg,ピク　セル　ドキ　ムク,CartoonStims/boxer_punch_cowboy_r.jpg,right,CartoonStims/boxer_punch_cowboy_r.jpg,audio/pikuserudokimuku.mp3,"残念！ こちらが正しい画像です。

否定文は起きていないことを示しているのを思い出してください。",,,,,,,,,,,,,,,,,,,,,,,,,,,,,,,,,,,,,,,,,,,,,,,,,,,,
,,,,,,,,,R_2uwzMKyW3X19woa,2022-07-03_21h40.18.074,jpn_C02,2022.1.2,Win32,59.96282305,,,,,,,,,,,,,,,,,left,1,2.5025,,,,,,,,,,,,,,,,,,,,,,,0,0,0,0,1,,,,,,,,,,,,,,,,,,,,,,,,,,,,,,,,,,,,,,,,,,
,,,,,,,,,R_2uwzMKyW3X19woa,2022-07-03_21h40.18.074,jpn_C02,2022.1.2,Win32,59.96282305,,,,,,,,,,,,,,,,,,,,,,,,,0,2,2,8,1,CartoonStims/burglar_punch_artist_r.jpg,ピク　トマ　ルピン　シド,CartoonStims/burglar_point_artist_r.jpg,left,CartoonStims/burglar_punch_artist_r.jpg,audio/pikutomalupinsido.mp3,"残念！ こちらが正しい画像です。

否定文は起きていないことを示しているのを思い出してください。",,,,,,,,,,,,,,,,,,,,,,,,,,,,,,,,,,,,,,,,,,,,,,,,,,,,
,,,,,,,,,R_2uwzMKyW3X19woa,2022-07-03_21h40.18.074,jpn_C02,2022.1.2,Win32,59.96282305,,,,,,,,,,,,,,,,,left,1,1.9414,,,,,,,,,,,,,,,,,,,,,,,0,0,0,0,1,,,,,,,,,,,,,,,,,,,,,,,,,,,,,,,,,,,,,,,,,,
,,,,,,,,,R_2uwzMKyW3X19woa,2022-07-03_21h40.18.074,jpn_C02,2022.1.2,Win32,59.96282305,,,,,,,,,,,,,,,,,,,,,,,,,0,3,3,6,1,CartoonStims/artist_shoot_boxer_r.jpg,ピク　トマ　シド　ドキ,CartoonStims/artist_point_boxer_r.jpg,left,CartoonStims/artist_shoot_boxer_r.jpg,audio/pikutomasidodoki.mp3,"残念！ こちらが正しい画像です。

否定文は起きていないことを示しているのを思い出してください。",,,,,,,,,,,,,,,,,,,,,,,,,,,,,,,,,,,,,,,,,,,,,,,,,,,,
,,,,,,,,,R_2uwzMKyW3X19woa,2022-07-03_21h40.18.074,jpn_C02,2022.1.2,Win32,59.96282305,,,,,,,,,,,,,,,,,right,1,1.1033,,,,,,,,,,,,,,,,,,0,0,0,0,1,,,,,,,,,,,,,,,,,,,,,,,,,,,,,,,,,,,,,,,,,,,,,,,
,,,,,,,,,R_2uwzMKyW3X19woa,2022-07-03_21h40.18.074,jpn_C02,2022.1.2,Win32,59.96282305,,,,,,,,,,,,,,,,,,,,,,,,,0,4,4,11,1,CartoonStims/chef_shoot_burglar_r.jpg,ピク　パツ　ホレト　ルピン,CartoonStims/chef_kick_burglar_r.jpg,right,CartoonStims/chef_kick_burglar_r.jpg,audio/pikupatsuhoretolupin.mp3,"残念！ こちらが正しい画像です。

否定文は起きていないことを示しているのを思い出してください。",,,,,,,,,,,,,,,,,,,,,,,,,,,,,,,,,,,,,,,,,,,,,,,,,,,,
,,,,,,,,,R_2uwzMKyW3X19woa,2022-07-03_21h40.18.074,jpn_C02,2022.1.2,Win32,59.96282305,,,,,,,,,,,,,,,,,right,1,0.7491,,,,,,,,,,,,,,,,,,0,0,0,0,1,,,,,,,,,,,,,,,,,,,,,,,,,,,,,,,,,,,,,,,,,,,,,,,
,,,,,,,,,R_2uwzMKyW3X19woa,2022-07-03_21h40.18.074,jpn_C02,2022.1.2,Win32,59.96282305,,,,,,,,,,,,,,,,,,,,,,,,,0,5,5,9,1,CartoonStims/boxer_shoot_doctor_r.jpg,ピク　パツ　ドキ　ピポ,CartoonStims/boxer_point_doctor_r.jpg,right,CartoonStims/boxer_point_doctor_r.jpg,audio/pikupatsudokipipo.mp3,"残念！ こちらが正しい画像です。

否定文は起きていないことを示しているのを思い出してください。",,,,,,,,,,,,,,,,,,,,,,,,,,,,,,,,,,,,,,,,,,,,,,,,,,,,
,,,,,,,,,R_2uwzMKyW3X19woa,2022-07-03_21h40.18.074,jpn_C02,2022.1.2,Win32,59.96282305,,,,,,,,,,,,,,,,,right,1,4.7358,,,,,,,,,,,,,,,,,,0,0,0,0,1,,,,,,,,,,,,,,,,,,,,,,,,,,,,,,,,,,,,,,,,,,,,,,,
,,,,,,,,,R_2uwzMKyW3X19woa,2022-07-03_21h40.18.074,jpn_C02,2022.1.2,Win32,59.96282305,,,,,,,,,,,,,,,,,,,,,,,,,0,6,6,7,1,CartoonStims/cowboy_point_chef_r.jpg,トマ　ピク　ムク　ホレト,CartoonStims/cowboy_kick_chef_r.jpg,right,CartoonStims/cowboy_kick_chef_r.jpg,audio/tomapikumukuhoreto.mp3,"残念！ こちらが正しい画像です。

否定文は起きていないことを示しているのを思い出してください。",,,,,,,,,,,,,,,,,,,,,,,,,,,,,,,,,,,,,,,,,,,,,,,,,,,,
,,,,,,,,,R_2uwzMKyW3X19woa,2022-07-03_21h40.18.074,jpn_C02,2022.1.2,Win32,59.96282305,,,,,,,,,,,,,,,,,left,1,2.5992,,,,,,,,,,,,,,,,,,,,,,,0,0,0,0,1,,,,,,,,,,,,,,,,,,,,,,,,,,,,,,,,,,,,,,,,,,
,,,,,,,,,R_2uwzMKyW3X19woa,2022-07-03_21h40.18.074,jpn_C02,2022.1.2,Win32,59.96282305,,,,,,,,,,,,,,,,,,,,,,,,,0,7,7,2,1,CartoonStims/doctor_point_boxer_r.jpg,ピク　プミ　ピポ　ドキ,CartoonStims/doctor_punch_boxer_r.jpg,left,CartoonStims/doctor_point_boxer_r.jpg,audio/pikupumipipodoki.mp3,"残念！ こちらが正しい画像です。

否定文は起きていないことを示しているのを思い出してください。",,,,,,,,,,,,,,,,,,,,,,,,,,,,,,,,,,,,,,,,,,,,,,,,,,,,
,,,,,,,,,R_2uwzMKyW3X19woa,2022-07-03_21h40.18.074,jpn_C02,2022.1.2,Win32,59.96282305,,,,,,,,,,,,,,,,,left,1,4.6192,,,,,,,,,,,,,,,,,,,,,,,0,0,0,0,1,,,,,,,,,,,,,,,,,,,,,,,,,,,,,,,,,,,,,,,,,,
,,,,,,,,,R_2uwzMKyW3X19woa,2022-07-03_21h40.18.074,jpn_C02,2022.1.2,Win32,59.96282305,,,,,,,,,,,,,,,,,,,,,,,,,0,8,8,10,1,CartoonStims/doctor_punch_cowboy_r.jpg,パツ　ピク　ピポ　ムク,CartoonStims/doctor_shoot_cowboy_r.jpg,left,CartoonStims/doctor_punch_cowboy_r.jpg,audio/patsupikupipomuku.mp3,"残念！ こちらが正しい画像です。

否定文は起きていないことを示しているのを思い出してください。",,,,,,,,,,,,,,,,,,,,,,,,,,,,,,,,,,,,,,,,,,,,,,,,,,,,
,,,,,,,,,R_2uwzMKyW3X19woa,2022-07-03_21h40.18.074,jpn_C02,2022.1.2,Win32,59.96282305,,,,,,,,,,,,,,,,,left,1,3.2862,,,,,,,,,,,,,,,,,,,,,,,0,0,0,0,1,,,,,,,,,,,,,,,,,,,,,,,,,,,,,,,,,,,,,,,,,,
,,,,,,,,,R_2uwzMKyW3X19woa,2022-07-03_21h40.18.074,jpn_C02,2022.1.2,Win32,59.96282305,,,,,,,,,,,,,,,,,,,,,,,,,0,9,9,0,1,CartoonStims/artist_shoot_burglar_r.jpg,プミ　ピク　シド　ルピン,CartoonStims/artist_punch_burglar_r.jpg,left,CartoonStims/artist_shoot_burglar_r.jpg,audio/pumipikusidolupin.mp3,"残念！ こちらが正しい画像です。

否定文は起きていないことを示しているのを思い出してください。",,,,,,,,,,,,,,,,,,,,,,,,,,,,,,,,,,,,,,,,,,,,,,,,,,,,
,,,,,,,,,R_2uwzMKyW3X19woa,2022-07-03_21h40.18.074,jpn_C02,2022.1.2,Win32,59.96282305,,,,,,,,,,,,,,,,,right,1,2.7369,,,,,,,,,,,,,,,,,,0,0,0,0,1,,,,,,,,,,,,,,,,,,,,,,,,,,,,,,,,,,,,,,,,,,,,,,,
,,,,,,,,,R_2uwzMKyW3X19woa,2022-07-03_21h40.18.074,jpn_C02,2022.1.2,Win32,59.96282305,,,,,,,,,,,,,,,,,,,,,,,,,0,10,10,1,1,CartoonStims/chef_punch_cowboy_r.jpg,ピク　プミ　ホレト　ムク,CartoonStims/chef_kick_cowboy_r.jpg,right,CartoonStims/chef_kick_cowboy_r.jpg,audio/pikupumihoretomuku.mp3,"残念！ こちらが正しい画像です。

否定文は起きていないことを示しているのを思い出してください。",,,,,,,,,,,,,,,,,,,,,,,,,,,,,,,,,,,,,,,,,,,,,,,,,,,,
,,,,,,,,,R_2uwzMKyW3X19woa,2022-07-03_21h40.18.074,jpn_C02,2022.1.2,Win32,59.96282305,,,,,,,,,,,,,,,,,right,1,2.7457,,,,,,,,,,,,,,,,,,0,0,0,0,1,,,,,,,,,,,,,,,,,,,,,,,,,,,,,,,,,,,,,,,,,,,,,,,
,,,,,,,,,R_2uwzMKyW3X19woa,2022-07-03_21h40.18.074,jpn_C02,2022.1.2,Win32,59.96282305,,,,,,,,,,,,,,,,,,,,,,,,,0,11,11,3,1,CartoonStims/chef_kick_artist_r.jpg,セル　ピク　ホレト　シド,CartoonStims/chef_point_artist_r.jpg,right,CartoonStims/chef_point_artist_r.jpg,audio/serupikuhoretosido.mp3,"残念！ こちらが正しい画像です。

否定文は起きていないことを示しているのを思い出してください。",,,,,,,,,,,,,,,,,,,,,,,,,,,,,,,,,,,,,,,,,,,,,,,,,,,,
,,,,,,,,,R_2uwzMKyW3X19woa,2022-07-03_21h40.18.074,jpn_C02,2022.1.2,Win32,59.96282305,,,,,,,,,,,,,CartoonStims/cowboy_kick_chef_r_no.jpg,,,,,,,,,,,,,,,,,,,,,,,,,,,,,,,,,,,,,,,space,14.1362,ピク　セル　シド　ホレト,right,44.081,,,,,,0,0,0,3,1,,,,,,,,,,,,,,,,,,,,ピク　セル　ムク　ホレト,セル　ピク　ムク　ホレト,1
,,,,,,,,,R_2uwzMKyW3X19woa,2022-07-03_21h40.18.074,jpn_C02,2022.1.2,Win32,59.96282305,,,,,,,,,,,,,CartoonStims/burglar_point_chef_r_no.jpg,,,,,,,,,,,,,,,,,,,,,,,,,,,,,,,,,,,,,,,,,ピク　トマ　ルピン　ホレト,right,102.6311,,,,,,0,1,1,7,1,,,,,,,,,,,,,,,,,,,,ピク　トマ　ルピン　ホレト,トマ　ピク　ルピン　ホレト,1
,,,,,,,,,R_2uwzMKyW3X19woa,2022-07-03_21h40.18.074,jpn_C02,2022.1.2,Win32,59.96282305,,,,,,,,,,,,,CartoonStims/artist_point_boxer_r.jpg,,,,,,,,,,,,,,,,,,,,,,,,,,,,,,,,,,,,,,,,,トマ　シド　ドキ,right,38.4542,,,,,,0,2,2,27,1,,,,,,,,,,,,,,,,,,,,トマ　シド　ドキ,トマ　シド　ドキ,0
,,,,,,,,,R_2uwzMKyW3X19woa,2022-07-03_21h40.18.074,jpn_C02,2022.1.2,Win32,59.96282305,,,,,,,,,,,,,CartoonStims/chef_shoot_doctor_r_no.jpg,,,,,,,,,,,,,,,,,,,,,,,,,,,,,,,,,,,,,,,,,ピク　パツ　ホレト　ピポ,right,50.2934,,,,,,0,3,3,14,1,,,,,,,,,,,,,,,,,,,,ピク　パツ　ホレト　ピポ,パツ　ピク　ホレト　ピポ,1
,,,,,,,,,R_2uwzMKyW3X19woa,2022-07-03_21h40.18.074,jpn_C02,2022.1.2,Win32,59.96282305,,,,,,,,,,,,,CartoonStims/boxer_kick_cowboy_r.jpg,,,,,,,,,,,,,,,,,,,,,,,,,,,,,,,,,,,,,,,,,セル　ドキ　シド,right,68.9448,,,,,,0,4,4,26,1,,,,,,,,,,,,,,,,,,,,セル　ドキ　ムク,セル　ドキ　ムク,0
,,,,,,,,,R_2uwzMKyW3X19woa,2022-07-03_21h40.18.074,jpn_C02,2022.1.2,Win32,59.96282305,,,,,,,,,,,,,CartoonStims/burglar_shoot_chef_r.jpg,,,,,,,,,,,,,,,,,,,,,,,,,,,,,,,,,,,,,,,,,パツ　ルピン　ホレト,right,45.8616,,,,,,0,5,5,30,1,,,,,,,,,,,,,,,,,,,,パツ　ルピン　ホレト,パツ　ルピン　ホレト,0
,,,,,,,,,R_2uwzMKyW3X19woa,2022-07-03_21h40.18.074,jpn_C02,2022.1.2,Win32,59.96282305,,,,,,,,,,,,,CartoonStims/artist_punch_cowboy_r_no.jpg,,,,,,,,,,,,,,,,,,,,,,,,,,,,,,,,,,,,,,,,,ピク　プミ　シド　シド,right,47.5003,,,,,,0,6,6,18,1,,,,,,,,,,,,,,,,,,,,ピク　プミ　シド　ムク,プミ　ピク　シド　ムク,1
,,,,,,,,,R_2uwzMKyW3X19woa,2022-07-03_21h40.18.074,jpn_C02,2022.1.2,Win32,59.96282305,,,,,,,,,,,,,CartoonStims/cowboy_point_doctor_r_no.jpg,,,,,,,,,,,,,,,,,,,,,,,,,,,,,,,,,,,,,,,,,ピク　トマ　シド　ピポ,right,106.9069,,,,,,0,7,7,9,1,,,,,,,,,,,,,,,,,,,,ピク　トマ　ムク　ピポ,トマ　ピク　ムク　ピポ,1
,,,,,,,,,R_2uwzMKyW3X19woa,2022-07-03_21h40.18.074,jpn_C02,2022.1.2,Win32,59.96282305,,,,,,,,,,,,,CartoonStims/cowboy_shoot_doctor_r.jpg,,,,,,,,,,,,,,,,,,,,,,,,,,,,,,,,,,,,,,,,,パツ　ムク　ピポ,right,173.2483,,,,,,0,8,8,32,1,,,,,,,,,,,,,,,,,,,,パツ　ムク　ピポ,パツ　ムク　ピポ,0
,,,,,,,,,R_2uwzMKyW3X19woa,2022-07-03_21h40.18.074,jpn_C02,2022.1.2,Win32,59.96282305,,,,,,,,,,,,,CartoonStims/burglar_kick_artist_r_no.jpg,,,,,,,,,,,,,,,,,,,,,,,,,,,,,,,,,,,,,,,,,ピク　セル　ルピン　ムク,right,58.2101,,,,,,0,9,9,1,1,,,,,,,,,,,,,,,,,,,,ピク　セル　ルピン　シド,セル　ピク　ルピン　シド,1
,,,,,,,,,R_2uwzMKyW3X19woa,2022-07-03_21h40.18.074,jpn_C02,2022.1.2,Win32,59.96282305,,,,,,,,,,,,,CartoonStims/burglar_shoot_cowboy_r_no.jpg,,,,,,,,,,,,,,,,,,,,,,,,,,,,,,,,,,,,,,,,,ピク　パツ　ルピン　シド,right,23.2937,,,,,,0,10,10,13,1,,,,,,,,,,,,,,,,,,,,ピク　パツ　ルピン　ムク,パツ　ピク　ルピン　ムク,1
,,,,,,,,,R_2uwzMKyW3X19woa,2022-07-03_21h40.18.074,jpn_C02,2022.1.2,Win32,59.96282305,,,,,,,,,,,,,CartoonStims/artist_kick_boxer_r_no.jpg,,,,,,,,,,,,,,,,,,,,,,,,,,,,,,,,,,,,,,,,,ピク　セル　ムク　ドキ,right,20.897,,,,,,0,11,11,0,1,,,,,,,,,,,,,,,,,,,,ピク　セル　シド　ドキ,セル　ピク　シド　ドキ,1
,,,,,,,,,R_2uwzMKyW3X19woa,2022-07-03_21h40.18.074,jpn_C02,2022.1.2,Win32,59.96282305,,,,,,,,,,,,,CartoonStims/chef_point_burglar_r.jpg,,,,,,,,,,,,,,,,,,,,,,,,,,,,,,,,,,,,,,,,,トマ　ホレト　ルピン,right,45.2498,,,,,,0,12,12,29,1,,,,,,,,,,,,,,,,,,,,トマ　ホレト　ルピン,トマ　ホレト　ルピン,0
,,,,,,,,,R_2uwzMKyW3X19woa,2022-07-03_21h40.18.074,jpn_C02,2022.1.2,Win32,59.96282305,,,,,,,,,,,,,CartoonStims/chef_point_cowboy_r_no.jpg,,,,,,,,,,,,,,,,,,,,,,,,,,,,,,,,,,,,,,,,,ピク　トマ　ホレト　シド,right,125.3016,,,,,,0,13,13,8,1,,,,,,,,,,,,,,,,,,,,ピク　トマ　ホレト　ムク,トマ　ピク　ホレト　ムク,1
,,,,,,,,,R_2uwzMKyW3X19woa,2022-07-03_21h40.18.074,jpn_C02,2022.1.2,Win32,59.96282305,,,,,,,,,,,,,CartoonStims/burglar_point_artist_r.jpg,,,,,,,,,,,,,,,,,,,,,,,,,,,,,,,,,,,,,,,,,トマ　ルピン　ムク,right,19.7861,,,,,,0,14,14,28,1,,,,,,,,,,,,,,,,,,,,トマ　ルピン　シド,トマ　ルピン　シド,0
,,,,,,,,,R_2uwzMKyW3X19woa,2022-07-03_21h40.18.074,jpn_C02,2022.1.2,Win32,59.96282305,,,,,,,,,,,,,CartoonStims/cowboy_kick_burglar_r.jpg,,,,,,,,,,,,,,,,,,,,,,,,,,,,,,,,,,,,,,,,,セル　シド　ルピン,right,29.007,,,,,,0,15,15,24,1,,,,,,,,,,,,,,,,,,,,セル　ムク　ルピン,セル　ムク　ルピン,0
,,,,,,,,,R_2uwzMKyW3X19woa,2022-07-03_21h40.18.074,jpn_C02,2022.1.2,Win32,59.96282305,,,,,,,,,,,,,CartoonStims/chef_punch_boxer_r_no.jpg,,,,,,,,,,,,,,,,,,,,,,,,,,,,,,,,,,,,,,,,,ピク　プミ　ホレト　ドキ,right,23.0469,,,,,,0,16,16,20,1,,,,,,,,,,,,,,,,,,,,ピク　プミ　ホレト　ドキ,プミ　ピク　ホレト　ドキ,1
,,,,,,,,,R_2uwzMKyW3X19woa,2022-07-03_21h40.18.074,jpn_C02,2022.1.2,Win32,59.96282305,,,,,,,,,,,,,CartoonStims/boxer_kick_doctor_r_no.jpg,,,,,,,,,,,,,,,,,,,,,,,,,,,,,,,,,,,,,,,,,ピク　セル　ドキ　ピポ,right,40.6296,,,,,,0,17,17,5,1,,,,,,,,,,,,,,,,,,,,ピク　セル　ドキ　ピポ,セル　ピク　ドキ　ピポ,1
,,,,,,,,,R_2uwzMKyW3X19woa,2022-07-03_21h40.18.074,jpn_C02,2022.1.2,Win32,59.96282305,,,,,,,,,,,,,CartoonStims/artist_punch_burglar_r.jpg,,,,,,,,,,,,,,,,,,,,,,,,,,,,,,,,,,,,,,,,,プミ　ムク　ルピン,right,50.1995,,,,,,0,18,18,33,1,,,,,,,,,,,,,,,,,,,,プミ　シド　ルピン,プミ　シド　ルピン,0
,,,,,,,,,R_2uwzMKyW3X19woa,2022-07-03_21h40.18.074,jpn_C02,2022.1.2,Win32,59.96282305,,,,,,,,,,,,,CartoonStims/chef_shoot_cowboy_r.jpg,,,,,,,,,,,,,,,,,,,,,,,,,,,,,,,,,,,,,,,,,パツ　ホレト　シド,right,35.1028,,,,,,0,19,19,31,1,,,,,,,,,,,,,,,,,,,,パツ　ホレト　ムク,パツ　ホレト　ムク,0
,,,,,,,,,R_2uwzMKyW3X19woa,2022-07-03_21h40.18.074,jpn_C02,2022.1.2,Win32,59.96282305,,,,,,,,,,,,,CartoonStims/boxer_shoot_burglar_r_no.jpg,,,,,,,,,,,,,,,,,,,,,,,,,,,,,,,,,,,,,,,,,ピク　パツ　ドキ　ルピン,right,33.1023,,,,,,0,20,20,17,1,,,,,,,,,,,,,,,,,,,,ピク　パツ　ドキ　ルピン,パツ　ピク　ドキ　ルピン,1
,,,,,,,,,R_2uwzMKyW3X19woa,2022-07-03_21h40.18.074,jpn_C02,2022.1.2,Win32,59.96282305,,,,,,,,,,,,,CartoonStims/doctor_kick_cowboy_r_no.jpg,,,,,,,,,,,,,,,,,,,,,,,,,,,,,,,,,,,,,,,,,ピク　セル　ピポ　シド,right,47.5711,,,,,,0,21,21,4,1,,,,,,,,,,,,,,,,,,,,ピク　セル　ピポ　ムク,セル　ピク　ピポ　ムク,1
,,,,,,,,,R_2uwzMKyW3X19woa,2022-07-03_21h40.18.074,jpn_C02,2022.1.2,Win32,59.96282305,,,,,,,,,,,,,CartoonStims/doctor_kick_chef_r.jpg,,,,,,,,,,,,,,,,,,,,,,,,,,,,,,,,,,,,,,,,,セル　ピポ　ホレト,right,19.6878,,,,,,0,22,22,25,1,,,,,,,,,,,,,,,,,,,,セル　ピポ　ホレト,セル　ピポ　ホレト,0
,,,,,,,,,R_2uwzMKyW3X19woa,2022-07-03_21h40.18.074,jpn_C02,2022.1.2,Win32,59.96282305,,,,,,,,,,,,,CartoonStims/boxer_point_artist_r_no.jpg,,,,,,,,,,,,,,,,,,,,,,,,,,,,,,,,,,,,,,,,,ピク　トマ　ドキ　ムク,right,31.065,,,,,,0,23,23,11,1,,,,,,,,,,,,,,,,,,,,ピク　トマ　ドキ　シド,トマ　ピク　ドキ　シド,1
,,,,,,,,,R_2uwzMKyW3X19woa,2022-07-03_21h40.18.074,jpn_C02,2022.1.2,Win32,59.96282305,,,,,,,,,,,,,CartoonStims/cowboy_shoot_boxer_r_no.jpg,,,,,,,,,,,,,,,,,,,,,,,,,,,,,,,,,,,,,,,,,ピク　パツ　シド　ドキ,right,88.0411,,,,,,0,24,24,15,1,,,,,,,,,,,,,,,,,,,,ピク　パツ　ムク　ドキ,パツ　ピク　ムク　ドキ,1
,,,,,,,,,R_2uwzMKyW3X19woa,2022-07-03_21h40.18.074,jpn_C02,2022.1.2,Win32,59.96282305,,,,,,,,,,,,,CartoonStims/doctor_punch_boxer_r.jpg,,,,,,,,,,,,,,,,,,,,,,,,,,,,,,,,,,,,,,,,,プミ　ピポ　ドキ,right,37.3054,,,,,,0,25,25,34,1,,,,,,,,,,,,,,,,,,,,プミ　ピポ　ドキ,プミ　ピポ　ドキ,0
,,,,,,,,,R_2uwzMKyW3X19woa,2022-07-03_21h40.18.074,jpn_C02,2022.1.2,Win32,59.96282305,,,,,,,,,,,,,CartoonStims/doctor_shoot_artist_r_no.jpg,,,,,,,,,,,,,,,,,,,,,,,,,,,,,,,,,,,,,,,,,ピク　パツ　ピポ　ホレト,right,35.3155,,,,,,0,26,26,16,1,,,,,,,,,,,,,,,,,,,,ピク　パツ　ピポ　シド,パツ　ピク　ピポ　シド,1
,,,,,,,,,R_2uwzMKyW3X19woa,2022-07-03_21h40.18.074,jpn_C02,2022.1.2,Win32,59.96282305,,,,,,,,,,,,,CartoonStims/doctor_punch_burglar_r_no.jpg,,,,,,,,,,,,,,,,,,,,,,,,,,,,,,,,,,,,,,,,,ピク　プミ　ホレト　ルピン,right,23.9626,,,,,,0,27,27,22,1,,,,,,,,,,,,,,,,,,,,ピク　プミ　ピポ　ルピン,プミ　ピク　ピポ　ルピン,1
,,,,,,,,,R_2uwzMKyW3X19woa,2022-07-03_21h40.18.074,jpn_C02,2022.1.2,Win32,59.96282305,,,,,,,,,,,,,CartoonStims/boxer_punch_artist_r.jpg,,,,,,,,,,,,,,,,,,,,,,,,,,,,,,,,,,,,,,,,,プミ　ドキ　ムク,right,21.4941,,,,,,0,28,28,35,1,,,,,,,,,,,,,,,,,,,,プミ　ドキ　シド,プミ　ドキ　シド,0
,,,,,,,,,R_2uwzMKyW3X19woa,2022-07-03_21h40.18.074,jpn_C02,2022.1.2,Win32,59.96282305,,,,,,,,,,,,,CartoonStims/artist_shoot_chef_r_no.jpg,,,,,,,,,,,,,,,,,,,,,,,,,,,,,,,,,,,,,,,,,ピク　パツ　ムク　ホレト,right,24.3091,,,,,,0,29,29,12,1,,,,,,,,,,,,,,,,,,,,ピク　パツ　シド　ホレト,パツ　ピク　シド　ホレト,1
,,,,,,,,,R_2uwzMKyW3X19woa,2022-07-03_21h40.18.074,jpn_C02,2022.1.2,Win32,59.96282305,,,,,,,,,,,,,CartoonStims/chef_kick_burglar_r_no.jpg,,,,,,,,,,,,,,,,,,,,,,,,,,,,,,,,,,,,,,,,,ピク　セル　ホレト　ルピン,right,24.7509,,,,,,0,30,30,2,1,,,,,,,,,,,,,,,,,,,,ピク　セル　ホレト　ルピン,セル　ピク　ホレト　ルピン,1
,,,,,,,,,R_2uwzMKyW3X19woa,2022-07-03_21h40.18.074,jpn_C02,2022.1.2,Win32,59.96282305,,,,,,,,,,,,,CartoonStims/doctor_point_boxer_r_no.jpg,,,,,,,,,,,,,,,,,,,,,,,,,,,,,,,,,,,,,,,,,ピク　トマ　ピポ　ドキ,right,22.3068,,,,,,0,31,31,10,1,,,,,,,,,,,,,,,,,,,,ピク　トマ　ピポ　ドキ,トマ　ピク　ピポ　ドキ,1
,,,,,,,,,R_2uwzMKyW3X19woa,2022-07-03_21h40.18.074,jpn_C02,2022.1.2,Win32,59.96282305,,,,,,,,,,,,,CartoonStims/burglar_punch_doctor_r_no.jpg,,,,,,,,,,,,,,,,,,,,,,,,,,,,,,,,,,,,,,,,,ピク　プミ　ルピン　ピポ,right,20.4136,,,,,,0,32,32,19,1,,,,,,,,,,,,,,,,,,,,ピク　プミ　ルピン　ピポ,プミ　ピク　ルピン　ピポ,1
,,,,,,,,,R_2uwzMKyW3X19woa,2022-07-03_21h40.18.074,jpn_C02,2022.1.2,Win32,59.96282305,,,,,,,,,,,,,CartoonStims/boxer_punch_chef_r_no.jpg,,,,,,,,,,,,,,,,,,,,,,,,,,,,,,,,,,,,,,,,,ピク　プミ　ドキ　ホレト,right,14.7688,,,,,,0,33,33,23,1,,,,,,,,,,,,,,,,,,,,ピク　プミ　ドキ　ホレト,プミ　ピク　ドキ　ホレト,1
,,,,,,,,,R_2uwzMKyW3X19woa,2022-07-03_21h40.18.074,jpn_C02,2022.1.2,Win32,59.96282305,,,,,,,,,,,,,CartoonStims/cowboy_punch_artist_r_no.jpg,,,,,,,,,,,,,,,,,,,,,,,,,,,,,,,,,,,,,,,,,ピク　プミ　シド　ムク,right,10.7091,,,,,,0,34,34,21,1,,,,,,,,,,,,,,,,,,,,ピク　プミ　ムク　シド,プミ　ピク　ムク　シド,1
,,,,,,,,,R_2uwzMKyW3X19woa,2022-07-03_21h40.18.074,jpn_C02,2022.1.2,Win32,59.96282305,,,,,,,,,,,,,CartoonStims/artist_point_burglar_r_no.jpg,,,,,,,,,,,,,,,,,,,,,,,,,,,,,,,,,,,,,,,,,ピク　トマ　ムク　ルピン,right,13.2398,,,,,,0,35,35,6,1,,,,,,,,,,,,,,,,,,,,ピク　トマ　シド　ルピン,トマ　ピク　シド　ルピン,1
,,,,,,,,,R_2uwzMKyW3X19woa,2022-07-03_21h40.18.074,jpn_C02,2022.1.2,Win32,59.96282305,,,,,,,,,,,,,,,,,,,,,,,,,,,,,,,,,,,,,,,,,,,,,,,,,,,,,,,,,,,,,,,,,,,,,space,6.5872,0,2,2,2,1,NegVCondition.xlsx,"ここではこの言語における否定の文を学習していただきます。引き続き注意して、 聞こえた音を復唱してください。

スペースキーを押してください。",1,NegVFCT.xlsx,ここからクイズが始まります。 スクリーンに表示されるテキストに合うイメージを選んでください。,NegTest.xlsx,1,最後にここまで学んだことをアウトプットしていただきます。 テキストボックスにあるイメージを描写するテキストを入力してください。 このタスクでは、 答え合わせは行いません。,0,これですべての実験が終わりました。 お疲れさまです。 この後はアンケートに答えていただきます。,,,