key_resp_instr_a.keys,key_resp_instr_a.rt,key_resp_instr_b.keys,key_resp_instr_b.rt,dummy.thisRepN,dummy.thisTrialN,dummy.thisN,dummy.thisIndex,dummy.ran,participant,date,expName,psychopyVersion,OS,frameRate,key_resp_instr1.keys,key_resp_instr1.rt,key_resp.keys,key_resp.rt,exp_loop.thisRepN,exp_loop.thisTrialN,exp_loop.thisN,exp_loop.thisIndex,exp_loop.ran,Word,English,Flip,Path,Audio,key_resp_instr2.keys,key_resp_instr2.rt,key_resp_fct.keys,key_resp_fct.corr,key_resp_fct.rt,trials_2.thisRepN,trials_2.thisTrialN,trials_2.thisN,trials_2.thisIndex,trials_2.ran,fct_loop.thisRepN,fct_loop.thisTrialN,fct_loop.thisN,fct_loop.thisIndex,fct_loop.ran,left_img,word,right_img,correctans,correct_img,audio,incorrect_feedback,trials.thisRepN,trials.thisTrialN,trials.thisN,trials.thisIndex,trials.ran,key_resp_instr3.keys,key_resp_instr3.rt,textbox.text,key_resp_2.keys,key_resp_2.rt,fb_yn.thisRepN,fb_yn.thisTrialN,fb_yn.thisN,fb_yn.thisIndex,fb_yn.ran,gather_loop.thisRepN,gather_loop.thisTrialN,gather_loop.thisN,gather_loop.thisIndex,gather_loop.ran,Text,Wordbank,key_resp_instr4.keys,key_resp_instr4.rt,master_loop.thisRepN,master_loop.thisTrialN,master_loop.thisN,master_loop.thisIndex,master_loop.ran,exposure_file,instr_1,exp_reps,fct_file,instr_2,gather_file,gather_reps,instr_3,fReps,instr_4,trials_4.thisRepN,trials_4.thisTrialN,trials_4.thisN,trials_4.thisIndex,trials_4.ran,NegVSentence,VNegSentence,NegTF
space,8.26,space,9.814,0,0,0,0,1,R_3r39WA2EXNNvc9S,2022-09-01_20h38.17.137,jpn_C02,2022.1.2,MacIntel,58.82352941,,,,,,,,,,,,,,,,,,,,,,,,,,,,,,,,,,,,,,,,,,,,,,,,,,,,,,,,,,,,,,,,,,,,,,,,,,,,,,,,,,,
,,,,,,,,,R_3r39WA2EXNNvc9S,2022-09-01_20h38.17.137,jpn_C02,2022.1.2,MacIntel,58.82352941,space,6.766,space,1.403,0,0,0,2,1,ホレト,chef,,CartoonStims/chef_r.jpg,audio/horeto.mp3,,,,,,,,,,,,,,,,,,,,,,,,,,,,,,,,,,,,,,,,,,,,,,,,,,,,,,,,,,,,,,,,,,,,,
,,,,,,,,,R_3r39WA2EXNNvc9S,2022-09-01_20h38.17.137,jpn_C02,2022.1.2,MacIntel,58.82352941,,,space,0.609,0,1,1,3,1,ムク,cowboy,,CartoonStims/cowboy_r.jpg,audio/muku.mp3,,,,,,,,,,,,,,,,,,,,,,,,,,,,,,,,,,,,,,,,,,,,,,,,,,,,,,,,,,,,,,,,,,,,,
,,,,,,,,,R_3r39WA2EXNNvc9S,2022-09-01_20h38.17.137,jpn_C02,2022.1.2,MacIntel,58.82352941,,,space,0.7,0,2,2,0,1,シド,artist,,CartoonStims/artist_r.jpg,audio/sido.mp3,,,,,,,,,,,,,,,,,,,,,,,,,,,,,,,,,,,,,,,,,,,,,,,,,,,,,,,,,,,,,,,,,,,,,
,,,,,,,,,R_3r39WA2EXNNvc9S,2022-09-01_20h38.17.137,jpn_C02,2022.1.2,MacIntel,58.82352941,,,space,0.485,0,3,3,1,1,ルピン,burglar,,CartoonStims/burglar_r.jpg,audio/lupin.mp3,,,,,,,,,,,,,,,,,,,,,,,,,,,,,,,,,,,,,,,,,,,,,,,,,,,,,,,,,,,,,,,,,,,,,
,,,,,,,,,R_3r39WA2EXNNvc9S,2022-09-01_20h38.17.137,jpn_C02,2022.1.2,MacIntel,58.82352941,,,space,0.385,0,4,4,5,1,ドキ,boxer,,CartoonStims/boxer_r.jpg,audio/doki.mp3,,,,,,,,,,,,,,,,,,,,,,,,,,,,,,,,,,,,,,,,,,,,,,,,,,,,,,,,,,,,,,,,,,,,,
,,,,,,,,,R_3r39WA2EXNNvc9S,2022-09-01_20h38.17.137,jpn_C02,2022.1.2,MacIntel,58.82352941,,,space,0.574,0,5,5,4,1,ピポ,doctor,,CartoonStims/doctor_r.jpg,audio/pipo.mp3,,,,,,,,,,,,,,,,,,,,,,,,,,,,,,,,,,,,,,,,,,,,,,,,,,,,,,,,,,,,,,,,,,,,,
,,,,,,,,,R_3r39WA2EXNNvc9S,2022-09-01_20h38.17.137,jpn_C02,2022.1.2,MacIntel,58.82352941,,,space,0.535,1,0,6,4,1,ピポ,doctor,,CartoonStims/doctor_r.jpg,audio/pipo.mp3,,,,,,,,,,,,,,,,,,,,,,,,,,,,,,,,,,,,,,,,,,,,,,,,,,,,,,,,,,,,,,,,,,,,,
,,,,,,,,,R_3r39WA2EXNNvc9S,2022-09-01_20h38.17.137,jpn_C02,2022.1.2,MacIntel,58.82352941,,,space,0.452,1,1,7,5,1,ドキ,boxer,,CartoonStims/boxer_r.jpg,audio/doki.mp3,,,,,,,,,,,,,,,,,,,,,,,,,,,,,,,,,,,,,,,,,,,,,,,,,,,,,,,,,,,,,,,,,,,,,
,,,,,,,,,R_3r39WA2EXNNvc9S,2022-09-01_20h38.17.137,jpn_C02,2022.1.2,MacIntel,58.82352941,,,space,0.61,1,2,8,0,1,シド,artist,,CartoonStims/artist_r.jpg,audio/sido.mp3,,,,,,,,,,,,,,,,,,,,,,,,,,,,,,,,,,,,,,,,,,,,,,,,,,,,,,,,,,,,,,,,,,,,,
,,,,,,,,,R_3r39WA2EXNNvc9S,2022-09-01_20h38.17.137,jpn_C02,2022.1.2,MacIntel,58.82352941,,,space,0.683,1,3,9,1,1,ルピン,burglar,,CartoonStims/burglar_r.jpg,audio/lupin.mp3,,,,,,,,,,,,,,,,,,,,,,,,,,,,,,,,,,,,,,,,,,,,,,,,,,,,,,,,,,,,,,,,,,,,,
,,,,,,,,,R_3r39WA2EXNNvc9S,2022-09-01_20h38.17.137,jpn_C02,2022.1.2,MacIntel,58.82352941,,,space,0.688,1,4,10,3,1,ムク,cowboy,,CartoonStims/cowboy_r.jpg,audio/muku.mp3,,,,,,,,,,,,,,,,,,,,,,,,,,,,,,,,,,,,,,,,,,,,,,,,,,,,,,,,,,,,,,,,,,,,,
,,,,,,,,,R_3r39WA2EXNNvc9S,2022-09-01_20h38.17.137,jpn_C02,2022.1.2,MacIntel,58.82352941,,,space,1.269,1,5,11,2,1,ホレト,chef,,CartoonStims/chef_r.jpg,audio/horeto.mp3,,,,,,,,,,,,,,,,,,,,,,,,,,,,,,,,,,,,,,,,,,,,,,,,,,,,,,,,,,,,,,,,,,,,,
,,,,,,,,,R_3r39WA2EXNNvc9S,2022-09-01_20h38.17.137,jpn_C02,2022.1.2,MacIntel,58.82352941,,,space,0.677,2,0,12,2,1,ホレト,chef,,CartoonStims/chef_r.jpg,audio/horeto.mp3,,,,,,,,,,,,,,,,,,,,,,,,,,,,,,,,,,,,,,,,,,,,,,,,,,,,,,,,,,,,,,,,,,,,,
,,,,,,,,,R_3r39WA2EXNNvc9S,2022-09-01_20h38.17.137,jpn_C02,2022.1.2,MacIntel,58.82352941,,,space,0.514,2,1,13,1,1,ルピン,burglar,,CartoonStims/burglar_r.jpg,audio/lupin.mp3,,,,,,,,,,,,,,,,,,,,,,,,,,,,,,,,,,,,,,,,,,,,,,,,,,,,,,,,,,,,,,,,,,,,,
,,,,,,,,,R_3r39WA2EXNNvc9S,2022-09-01_20h38.17.137,jpn_C02,2022.1.2,MacIntel,58.82352941,,,space,0.466,2,2,14,3,1,ムク,cowboy,,CartoonStims/cowboy_r.jpg,audio/muku.mp3,,,,,,,,,,,,,,,,,,,,,,,,,,,,,,,,,,,,,,,,,,,,,,,,,,,,,,,,,,,,,,,,,,,,,
,,,,,,,,,R_3r39WA2EXNNvc9S,2022-09-01_20h38.17.137,jpn_C02,2022.1.2,MacIntel,58.82352941,,,space,0.586,2,3,15,0,1,シド,artist,,CartoonStims/artist_r.jpg,audio/sido.mp3,,,,,,,,,,,,,,,,,,,,,,,,,,,,,,,,,,,,,,,,,,,,,,,,,,,,,,,,,,,,,,,,,,,,,
,,,,,,,,,R_3r39WA2EXNNvc9S,2022-09-01_20h38.17.137,jpn_C02,2022.1.2,MacIntel,58.82352941,,,space,1.168,2,4,16,5,1,ドキ,boxer,,CartoonStims/boxer_r.jpg,audio/doki.mp3,,,,,,,,,,,,,,,,,,,,,,,,,,,,,,,,,,,,,,,,,,,,,,,,,,,,,,,,,,,,,,,,,,,,,
,,,,,,,,,R_3r39WA2EXNNvc9S,2022-09-01_20h38.17.137,jpn_C02,2022.1.2,MacIntel,58.82352941,,,space,1.566,2,5,17,4,1,ピポ,doctor,,CartoonStims/doctor_r.jpg,audio/pipo.mp3,,,,,,,,,,,,,,,,,,,,,,,,,,,,,,,,,,,,,,,,,,,,,,,,,,,,,,,,,,,,,,,,,,,,,
,,,,,,,,,R_3r39WA2EXNNvc9S,2022-09-01_20h38.17.137,jpn_C02,2022.1.2,MacIntel,58.82352941,,,,,,,,,,,,,,,space,0.6,right,1,4.232,0,0,0,0,1,,,,,,,,,,,,,,,,,,,,,,,,,,,,,,,,,,,,,,,,,,,,,,,,,,,,,,,,,,,
,,,,,,,,,R_3r39WA2EXNNvc9S,2022-09-01_20h38.17.137,jpn_C02,2022.1.2,MacIntel,58.82352941,,,,,,,,,,,,,,,,,,,,,,,,,0,0,0,8,1,CartoonStims/doctor_r.jpg,ホレト,CartoonStims/chef_r.jpg,right,CartoonStims/chef_r.jpg,audio/horeto.mp3,残念！ こちらが正しい画像です。,,,,,,,,,,,,,,,,,,,,,,,,,,,,,,,,,,,,,,,,,,,,,,,
,,,,,,,,,R_3r39WA2EXNNvc9S,2022-09-01_20h38.17.137,jpn_C02,2022.1.2,MacIntel,58.82352941,,,,,,,,,,,,,,,,,left,1,1.833,,,,,,,,,,,,,,,,,,0,0,0,0,1,,,,,,,,,,,,,,,,,,,,,,,,,,,,,,,,,,,,,,,,,,
,,,,,,,,,R_3r39WA2EXNNvc9S,2022-09-01_20h38.17.137,jpn_C02,2022.1.2,MacIntel,58.82352941,,,,,,,,,,,,,,,,,,,,,,,,,0,1,1,1,1,CartoonStims/burglar_r.jpg,ルピン,CartoonStims/chef_r.jpg,left,CartoonStims/burglar_r.jpg,audio/lupin.mp3,残念！ こちらが正しい画像です。,,,,,,,,,,,,,,,,,,,,,,,,,,,,,,,,,,,,,,,,,,,,,,,
,,,,,,,,,R_3r39WA2EXNNvc9S,2022-09-01_20h38.17.137,jpn_C02,2022.1.2,MacIntel,58.82352941,,,,,,,,,,,,,,,,,right,1,1.87,0,0,0,0,1,,,,,,,,,,,,,,,,,,,,,,,,,,,,,,,,,,,,,,,,,,,,,,,,,,,,,,,,,,,
,,,,,,,,,R_3r39WA2EXNNvc9S,2022-09-01_20h38.17.137,jpn_C02,2022.1.2,MacIntel,58.82352941,,,,,,,,,,,,,,,,,,,,,,,,,0,2,2,10,1,CartoonStims/artist_r.jpg,ピポ,CartoonStims/doctor_r.jpg,right,CartoonStims/doctor_r.jpg,audio/pipo.mp3,残念！ こちらが正しい画像です。,,,,,,,,,,,,,,,,,,,,,,,,,,,,,,,,,,,,,,,,,,,,,,,
,,,,,,,,,R_3r39WA2EXNNvc9S,2022-09-01_20h38.17.137,jpn_C02,2022.1.2,MacIntel,58.82352941,,,,,,,,,,,,,,,,,left,1,0.602,,,,,,,,,,,,,,,,,,0,0,0,0,1,,,,,,,,,,,,,,,,,,,,,,,,,,,,,,,,,,,,,,,,,,
,,,,,,,,,R_3r39WA2EXNNvc9S,2022-09-01_20h38.17.137,jpn_C02,2022.1.2,MacIntel,58.82352941,,,,,,,,,,,,,,,,,,,,,,,,,0,3,3,4,1,CartoonStims/doctor_r.jpg,ピポ,CartoonStims/boxer_r.jpg,left,CartoonStims/doctor_r.jpg,audio/pipo.mp3,残念！ こちらが正しい画像です。,,,,,,,,,,,,,,,,,,,,,,,,,,,,,,,,,,,,,,,,,,,,,,,
,,,,,,,,,R_3r39WA2EXNNvc9S,2022-09-01_20h38.17.137,jpn_C02,2022.1.2,MacIntel,58.82352941,,,,,,,,,,,,,,,,,left,1,0.432,,,,,,,,,,,,,,,,,,0,0,0,0,1,,,,,,,,,,,,,,,,,,,,,,,,,,,,,,,,,,,,,,,,,,
,,,,,,,,,R_3r39WA2EXNNvc9S,2022-09-01_20h38.17.137,jpn_C02,2022.1.2,MacIntel,58.82352941,,,,,,,,,,,,,,,,,,,,,,,,,0,4,4,5,1,CartoonStims/boxer_r.jpg,ドキ,CartoonStims/artist_r.jpg,left,CartoonStims/boxer_r.jpg,audio/doki.mp3,残念！ こちらが正しい画像です。,,,,,,,,,,,,,,,,,,,,,,,,,,,,,,,,,,,,,,,,,,,,,,,
,,,,,,,,,R_3r39WA2EXNNvc9S,2022-09-01_20h38.17.137,jpn_C02,2022.1.2,MacIntel,58.82352941,,,,,,,,,,,,,,,,,right,1,2.362,0,0,0,0,1,,,,,,,,,,,,,,,,,,,,,,,,,,,,,,,,,,,,,,,,,,,,,,,,,,,,,,,,,,,
,,,,,,,,,R_3r39WA2EXNNvc9S,2022-09-01_20h38.17.137,jpn_C02,2022.1.2,MacIntel,58.82352941,,,,,,,,,,,,,,,,,,,,,,,,,0,5,5,6,1,CartoonStims/chef_r.jpg,シド,CartoonStims/artist_r.jpg,right,CartoonStims/artist_r.jpg,audio/sido.mp3,残念！ こちらが正しい画像です。,,,,,,,,,,,,,,,,,,,,,,,,,,,,,,,,,,,,,,,,,,,,,,,
,,,,,,,,,R_3r39WA2EXNNvc9S,2022-09-01_20h38.17.137,jpn_C02,2022.1.2,MacIntel,58.82352941,,,,,,,,,,,,,,,,,right,1,1.234,0,0,0,0,1,,,,,,,,,,,,,,,,,,,,,,,,,,,,,,,,,,,,,,,,,,,,,,,,,,,,,,,,,,,
,,,,,,,,,R_3r39WA2EXNNvc9S,2022-09-01_20h38.17.137,jpn_C02,2022.1.2,MacIntel,58.82352941,,,,,,,,,,,,,,,,,,,,,,,,,0,6,6,9,1,CartoonStims/boxer_r.jpg,ムク,CartoonStims/cowboy_r.jpg,right,CartoonStims/cowboy_r.jpg,audio/muku.mp3,残念！ こちらが正しい画像です。,,,,,,,,,,,,,,,,,,,,,,,,,,,,,,,,,,,,,,,,,,,,,,,
,,,,,,,,,R_3r39WA2EXNNvc9S,2022-09-01_20h38.17.137,jpn_C02,2022.1.2,MacIntel,58.82352941,,,,,,,,,,,,,,,,,right,1,2.668,0,0,0,0,1,,,,,,,,,,,,,,,,,,,,,,,,,,,,,,,,,,,,,,,,,,,,,,,,,,,,,,,,,,,
,,,,,,,,,R_3r39WA2EXNNvc9S,2022-09-01_20h38.17.137,jpn_C02,2022.1.2,MacIntel,58.82352941,,,,,,,,,,,,,,,,,,,,,,,,,0,7,7,7,1,CartoonStims/cowboy_r.jpg,ルピン,CartoonStims/burglar_r.jpg,right,CartoonStims/burglar_r.jpg,audio/lupin.mp3,残念！ こちらが正しい画像です。,,,,,,,,,,,,,,,,,,,,,,,,,,,,,,,,,,,,,,,,,,,,,,,
,,,,,,,,,R_3r39WA2EXNNvc9S,2022-09-01_20h38.17.137,jpn_C02,2022.1.2,MacIntel,58.82352941,,,,,,,,,,,,,,,,,left,1,1.468,,,,,,,,,,,,,,,,,,0,0,0,0,1,,,,,,,,,,,,,,,,,,,,,,,,,,,,,,,,,,,,,,,,,,
,,,,,,,,,R_3r39WA2EXNNvc9S,2022-09-01_20h38.17.137,jpn_C02,2022.1.2,MacIntel,58.82352941,,,,,,,,,,,,,,,,,,,,,,,,,0,8,8,2,1,CartoonStims/chef_r.jpg,ホレト,CartoonStims/cowboy_r.jpg,left,CartoonStims/chef_r.jpg,audio/horeto.mp3,残念！ こちらが正しい画像です。,,,,,,,,,,,,,,,,,,,,,,,,,,,,,,,,,,,,,,,,,,,,,,,
,,,,,,,,,R_3r39WA2EXNNvc9S,2022-09-01_20h38.17.137,jpn_C02,2022.1.2,MacIntel,58.82352941,,,,,,,,,,,,,,,,,left,1,2.185,,,,,,,,,,,,,,,,,,0,0,0,0,1,,,,,,,,,,,,,,,,,,,,,,,,,,,,,,,,,,,,,,,,,,
,,,,,,,,,R_3r39WA2EXNNvc9S,2022-09-01_20h38.17.137,jpn_C02,2022.1.2,MacIntel,58.82352941,,,,,,,,,,,,,,,,,,,,,,,,,0,9,9,3,1,CartoonStims/cowboy_r.jpg,ムク,CartoonStims/doctor_r.jpg,left,CartoonStims/cowboy_r.jpg,audio/muku.mp3,残念！ こちらが正しい画像です。,,,,,,,,,,,,,,,,,,,,,,,,,,,,,,,,,,,,,,,,,,,,,,,
,,,,,,,,,R_3r39WA2EXNNvc9S,2022-09-01_20h38.17.137,jpn_C02,2022.1.2,MacIntel,58.82352941,,,,,,,,,,,,,,,,,left,1,1.917,,,,,,,,,,,,,,,,,,0,0,0,0,1,,,,,,,,,,,,,,,,,,,,,,,,,,,,,,,,,,,,,,,,,,
,,,,,,,,,R_3r39WA2EXNNvc9S,2022-09-01_20h38.17.137,jpn_C02,2022.1.2,MacIntel,58.82352941,,,,,,,,,,,,,,,,,,,,,,,,,0,10,10,0,1,CartoonStims/artist_r.jpg,シド,CartoonStims/burglar_r.jpg,left,CartoonStims/artist_r.jpg,audio/sido.mp3,残念！ こちらが正しい画像です。,,,,,,,,,,,,,,,,,,,,,,,,,,,,,,,,,,,,,,,,,,,,,,,
,,,,,,,,,R_3r39WA2EXNNvc9S,2022-09-01_20h38.17.137,jpn_C02,2022.1.2,MacIntel,58.82352941,,,,,,,,,,,,,,,,,right,1,1.05,0,0,0,0,1,,,,,,,,,,,,,,,,,,,,,,,,,,,,,,,,,,,,,,,,,,,,,,,,,,,,,,,,,,,
,,,,,,,,,R_3r39WA2EXNNvc9S,2022-09-01_20h38.17.137,jpn_C02,2022.1.2,MacIntel,58.82352941,,,,,,,,,,,,,,,,,,,,,,,,,0,11,11,11,1,CartoonStims/burglar_r.jpg,ドキ,CartoonStims/boxer_r.jpg,right,CartoonStims/boxer_r.jpg,audio/doki.mp3,残念！ こちらが正しい画像です。,,,,,,,,,,,,,,,,,,,,,,,,,,,,,,,,,,,,,,,,,,,,,,,
,,,,,,,,,R_3r39WA2EXNNvc9S,2022-09-01_20h38.17.137,jpn_C02,2022.1.2,MacIntel,58.82352941,,,,,,,,,,,,,,,,,,,,,,,,,,,,,,,,,,,,,,,,,,space,5.216,ムク,right,8.184,0,0,0,0,1,,,,,,,,,,,,,,,,,,,,,,,,,,,,,,,,
,,,,,,,,,R_3r39WA2EXNNvc9S,2022-09-01_20h38.17.137,jpn_C02,2022.1.2,MacIntel,58.82352941,,,,,,,,,,,,,CartoonStims/artist_r.jpg,audio/sido.mp3,,,,,,,,,,,,,,,,,,,,,,,,,,,,,,,,,,,,,,0,0,0,0,1,シド,,,,,,,,,,,,,,,,,,,,,,,,,,
,,,,,,,,,R_3r39WA2EXNNvc9S,2022-09-01_20h38.17.137,jpn_C02,2022.1.2,MacIntel,58.82352941,,,,,,,,,,,,,,,,,,,,,,,,,,,,,,,,,,,,,,,,,,,,ムク,right,5.715,0,0,0,0,1,,,,,,,,,,,,,,,,,,,,,,,,,,,,,,,,
,,,,,,,,,R_3r39WA2EXNNvc9S,2022-09-01_20h38.17.137,jpn_C02,2022.1.2,MacIntel,58.82352941,,,,,,,,,,,,,CartoonStims/doctor_r.jpg,audio/pipo.mp3,,,,,,,,,,,,,,,,,,,,,,,,,,,,,,,,,,,,,,0,1,1,4,1,ピポ,,,,,,,,,,,,,,,,,,,,,,,,,,
,,,,,,,,,R_3r39WA2EXNNvc9S,2022-09-01_20h38.17.137,jpn_C02,2022.1.2,MacIntel,58.82352941,,,,,,,,,,,,,,,,,,,,,,,,,,,,,,,,,,,,,,,,,,,,ホレト,right,7.445,0,0,0,0,1,,,,,,,,,,,,,,,,,,,,,,,,,,,,,,,,
,,,,,,,,,R_3r39WA2EXNNvc9S,2022-09-01_20h38.17.137,jpn_C02,2022.1.2,MacIntel,58.82352941,,,,,,,,,,,,,CartoonStims/chef_r.jpg,audio/horeto.mp3,,,,,,,,,,,,,,,,,,,,,,,,,,,,,,,,,,,,,,0,2,2,2,1,ホレト,,,,,,,,,,,,,,,,,,,,,,,,,,
,,,,,,,,,R_3r39WA2EXNNvc9S,2022-09-01_20h38.17.137,jpn_C02,2022.1.2,MacIntel,58.82352941,,,,,,,,,,,,,,,,,,,,,,,,,,,,,,,,,,,,,,,,,,,,ムク,right,3.798,0,0,0,0,1,,,,,,,,,,,,,,,,,,,,,,,,,,,,,,,,
,,,,,,,,,R_3r39WA2EXNNvc9S,2022-09-01_20h38.17.137,jpn_C02,2022.1.2,MacIntel,58.82352941,,,,,,,,,,,,,CartoonStims/cowboy_r.jpg,audio/muku.mp3,,,,,,,,,,,,,,,,,,,,,,,,,,,,,,,,,,,,,,0,3,3,3,1,ムク,,,,,,,,,,,,,,,,,,,,,,,,,,
,,,,,,,,,R_3r39WA2EXNNvc9S,2022-09-01_20h38.17.137,jpn_C02,2022.1.2,MacIntel,58.82352941,,,,,,,,,,,,,,,,,,,,,,,,,,,,,,,,,,,,,,,,,,,,ピポ,right,5.231,0,0,0,0,1,,,,,,,,,,,,,,,,,,,,,,,,,,,,,,,,
,,,,,,,,,R_3r39WA2EXNNvc9S,2022-09-01_20h38.17.137,jpn_C02,2022.1.2,MacIntel,58.82352941,,,,,,,,,,,,,CartoonStims/burglar_r.jpg,audio/lupin.mp3,,,,,,,,,,,,,,,,,,,,,,,,,,,,,,,,,,,,,,0,4,4,1,1,ルピン,,,,,,,,,,,,,,,,,,,,,,,,,,
,,,,,,,,,R_3r39WA2EXNNvc9S,2022-09-01_20h38.17.137,jpn_C02,2022.1.2,MacIntel,58.82352941,,,,,,,,,,,,,,,,,,,,,,,,,,,,,,,,,,,,,,,,,,,,ドキ,right,7.284,0,0,0,0,1,,,,,,,,,,,,,,,,,,,,,,,,,,,,,,,,
,,,,,,,,,R_3r39WA2EXNNvc9S,2022-09-01_20h38.17.137,jpn_C02,2022.1.2,MacIntel,58.82352941,,,,,,,,,,,,,CartoonStims/boxer_r.jpg,audio/doki.mp3,,,,,,,,,,,,,,,,,,,,,,,,,,,,,,,,,,,,,,0,5,5,5,1,ドキ,,,,,,,,,,,,,,,,,,,,,,,,,,
,,,,,,,,,R_3r39WA2EXNNvc9S,2022-09-01_20h38.17.137,jpn_C02,2022.1.2,MacIntel,58.82352941,,,,,,,,,,,,,,,,,,,,,,,,,,,,,,,,,,,,,,,,,,,,ルピン,right,6.312,0,0,0,0,1,,,,,,,,,,,,,,,,,,,,,,,,,,,,,,,,
,,,,,,,,,R_3r39WA2EXNNvc9S,2022-09-01_20h38.17.137,jpn_C02,2022.1.2,MacIntel,58.82352941,,,,,,,,,,,,,CartoonStims/burglar_r.jpg,audio/lupin.mp3,,,,,,,,,,,,,,,,,,,,,,,,,,,,,,,,,,,,,,1,0,6,1,1,ルピン,,,,,,,,,,,,,,,,,,,,,,,,,,
,,,,,,,,,R_3r39WA2EXNNvc9S,2022-09-01_20h38.17.137,jpn_C02,2022.1.2,MacIntel,58.82352941,,,,,,,,,,,,,,,,,,,,,,,,,,,,,,,,,,,,,,,,,,,,ホレト,right,7.215,0,0,0,0,1,,,,,,,,,,,,,,,,,,,,,,,,,,,,,,,,
,,,,,,,,,R_3r39WA2EXNNvc9S,2022-09-01_20h38.17.137,jpn_C02,2022.1.2,MacIntel,58.82352941,,,,,,,,,,,,,CartoonStims/chef_r.jpg,audio/horeto.mp3,,,,,,,,,,,,,,,,,,,,,,,,,,,,,,,,,,,,,,1,1,7,2,1,ホレト,,,,,,,,,,,,,,,,,,,,,,,,,,
,,,,,,,,,R_3r39WA2EXNNvc9S,2022-09-01_20h38.17.137,jpn_C02,2022.1.2,MacIntel,58.82352941,,,,,,,,,,,,,,,,,,,,,,,,,,,,,,,,,,,,,,,,,,,,ムク,right,5.748,0,0,0,0,1,,,,,,,,,,,,,,,,,,,,,,,,,,,,,,,,
,,,,,,,,,R_3r39WA2EXNNvc9S,2022-09-01_20h38.17.137,jpn_C02,2022.1.2,MacIntel,58.82352941,,,,,,,,,,,,,CartoonStims/cowboy_r.jpg,audio/muku.mp3,,,,,,,,,,,,,,,,,,,,,,,,,,,,,,,,,,,,,,1,2,8,3,1,ムク,,,,,,,,,,,,,,,,,,,,,,,,,,
,,,,,,,,,R_3r39WA2EXNNvc9S,2022-09-01_20h38.17.137,jpn_C02,2022.1.2,MacIntel,58.82352941,,,,,,,,,,,,,,,,,,,,,,,,,,,,,,,,,,,,,,,,,,,,ピポ,right,6.213,0,0,0,0,1,,,,,,,,,,,,,,,,,,,,,,,,,,,,,,,,
,,,,,,,,,R_3r39WA2EXNNvc9S,2022-09-01_20h38.17.137,jpn_C02,2022.1.2,MacIntel,58.82352941,,,,,,,,,,,,,CartoonStims/doctor_r.jpg,audio/pipo.mp3,,,,,,,,,,,,,,,,,,,,,,,,,,,,,,,,,,,,,,1,3,9,4,1,ピポ,,,,,,,,,,,,,,,,,,,,,,,,,,
,,,,,,,,,R_3r39WA2EXNNvc9S,2022-09-01_20h38.17.137,jpn_C02,2022.1.2,MacIntel,58.82352941,,,,,,,,,,,,,,,,,,,,,,,,,,,,,,,,,,,,,,,,,,,,ドキ,right,2.397,0,0,0,0,1,,,,,,,,,,,,,,,,,,,,,,,,,,,,,,,,
,,,,,,,,,R_3r39WA2EXNNvc9S,2022-09-01_20h38.17.137,jpn_C02,2022.1.2,MacIntel,58.82352941,,,,,,,,,,,,,CartoonStims/boxer_r.jpg,audio/doki.mp3,,,,,,,,,,,,,,,,,,,,,,,,,,,,,,,,,,,,,,1,4,10,5,1,ドキ,,,,,,,,,,,,,,,,,,,,,,,,,,
,,,,,,,,,R_3r39WA2EXNNvc9S,2022-09-01_20h38.17.137,jpn_C02,2022.1.2,MacIntel,58.82352941,,,,,,,,,,,,,,,,,,,,,,,,,,,,,,,,,,,,,,,,,,,,,right,0.133,0,0,0,0,1,,,,,,,,,,,,,,,,,,,,,,,,,,,,,,,,
,,,,,,,,,R_3r39WA2EXNNvc9S,2022-09-01_20h38.17.137,jpn_C02,2022.1.2,MacIntel,58.82352941,,,,,,,,,,,,,CartoonStims/artist_r.jpg,audio/sido.mp3,,,,,,,,,,,,,,,,,,,,,,,,,,,,,,,,,,,,,,1,5,11,0,1,シド,,,,,,,,,,,,,,,,,,,,,,,,,,
,,,,,,,,,R_3r39WA2EXNNvc9S,2022-09-01_20h38.17.137,jpn_C02,2022.1.2,MacIntel,58.82352941,,,,,,,,,,,,,,,,,,,,,,,,,,,,,,,,,,,,,,,,,,,,,,,,,,,,,,,,,,,space,1.617,0,0,0,0,1,NounExposure.xlsx,"最初のトライアルでは、 画像が表示され、 その画像の下に単語が出てきます。 またこの単語の音も聞くことができます。 この音を大きな声で復唱してください。 そしてこの画像がどのような単語を示しているのか, 考えてみてください。 その後、 続きのボタンを押すと次の単語の学習が始まります。

スペースキーを押して、学習を始めましょう。",3,NounFCT.xlsx,ここから語彙のクイズが始まります。スクリーンに表示される単語に合う画像をキーボードの右と左の矢印キーを使って選択してください。,NounTest.xlsx,2,次に、これまで学習してきたことをアウトプットしていただきます。 表示される画像を描写していると思う単語を、テキストボックスにタイプしてください。,1,"ここまでが最初のトライアルです。ここで休憩をとっても構いません。

休憩が済みましたら、スペースキーを押して続きを始めましょう。",,,,,,,,
,,,,,,,,,R_3r39WA2EXNNvc9S,2022-09-01_20h38.17.137,jpn_C02,2022.1.2,MacIntel,58.82352941,space,2.084,space,11.768,0,0,0,36,1,プミ　シド　ピポ,,,CartoonStims/artist_punch_doctor_r.jpg,audio/pumisidopipo.mp3,,,,,,,,,,,,,,,,,,,,,,,,,,,,,,,,,,,,,,,,,,,,,,,,,,,,,,,,,,,,,,,,,,,,,
,,,,,,,,,R_3r39WA2EXNNvc9S,2022-09-01_20h38.17.137,jpn_C02,2022.1.2,MacIntel,58.82352941,,,space,16.778,0,1,1,11,1,セル　ドキ　ルピン,,,CartoonStims/boxer_kick_burglar_r.jpg,audio/serudokilupin.mp3,,,,,,,,,,,,,,,,,,,,,,,,,,,,,,,,,,,,,,,,,,,,,,,,,,,,,,,,,,,,,,,,,,,,,
,,,,,,,,,R_3r39WA2EXNNvc9S,2022-09-01_20h38.17.137,jpn_C02,2022.1.2,MacIntel,58.82352941,,,space,5.562,0,2,2,5,1,セル　ホレト　ピポ,,,CartoonStims/chef_kick_doctor_r.jpg,audio/seruhoretopipo.mp3,,,,,,,,,,,,,,,,,,,,,,,,,,,,,,,,,,,,,,,,,,,,,,,,,,,,,,,,,,,,,,,,,,,,,
,,,,,,,,,R_3r39WA2EXNNvc9S,2022-09-01_20h38.17.137,jpn_C02,2022.1.2,MacIntel,58.82352941,,,space,9.674,0,3,3,30,1,パツ　ムク　シド,,,CartoonStims/cowboy_shoot_artist_r.jpg,audio/patsumukusido.mp3,,,,,,,,,,,,,,,,,,,,,,,,,,,,,,,,,,,,,,,,,,,,,,,,,,,,,,,,,,,,,,,,,,,,,
,,,,,,,,,R_3r39WA2EXNNvc9S,2022-09-01_20h38.17.137,jpn_C02,2022.1.2,MacIntel,58.82352941,,,space,6.268,0,4,4,25,1,パツ　シド　ピポ,,,CartoonStims/artist_shoot_doctor_r.jpg,audio/patsusidopipo.mp3,,,,,,,,,,,,,,,,,,,,,,,,,,,,,,,,,,,,,,,,,,,,,,,,,,,,,,,,,,,,,,,,,,,,,
,,,,,,,,,R_3r39WA2EXNNvc9S,2022-09-01_20h38.17.137,jpn_C02,2022.1.2,MacIntel,58.82352941,,,space,6.995,0,5,5,24,1,パツ　シド　ムク,,,CartoonStims/artist_shoot_cowboy_r.jpg,audio/patsusidomuku.mp3,,,,,,,,,,,,,,,,,,,,,,,,,,,,,,,,,,,,,,,,,,,,,,,,,,,,,,,,,,,,,,,,,,,,,
,,,,,,,,,R_3r39WA2EXNNvc9S,2022-09-01_20h38.17.137,jpn_C02,2022.1.2,MacIntel,58.82352941,,,space,2.865,0,6,6,27,1,パツ　ルピン　ドキ,,,CartoonStims/burglar_shoot_boxer_r.jpg,audio/patsulupindoki.mp3,,,,,,,,,,,,,,,,,,,,,,,,,,,,,,,,,,,,,,,,,,,,,,,,,,,,,,,,,,,,,,,,,,,,,
,,,,,,,,,R_3r39WA2EXNNvc9S,2022-09-01_20h38.17.137,jpn_C02,2022.1.2,MacIntel,58.82352941,,,space,5.584,0,7,7,10,1,セル　ドキ　シド,,,CartoonStims/boxer_kick_artist_r.jpg,audio/serudokisido.mp3,,,,,,,,,,,,,,,,,,,,,,,,,,,,,,,,,,,,,,,,,,,,,,,,,,,,,,,,,,,,,,,,,,,,,
,,,,,,,,,R_3r39WA2EXNNvc9S,2022-09-01_20h38.17.137,jpn_C02,2022.1.2,MacIntel,58.82352941,,,space,5.612,0,8,8,0,1,セル　シド　ルピン,,,CartoonStims/artist_kick_burglar_r.jpg,audio/serusidolupin.mp3,,,,,,,,,,,,,,,,,,,,,,,,,,,,,,,,,,,,,,,,,,,,,,,,,,,,,,,,,,,,,,,,,,,,,
,,,,,,,,,R_3r39WA2EXNNvc9S,2022-09-01_20h38.17.137,jpn_C02,2022.1.2,MacIntel,58.82352941,,,space,4.209,0,9,9,8,1,セル　ピポ　ドキ,,,CartoonStims/doctor_kick_boxer_r.jpg,audio/serupipodoki.mp3,,,,,,,,,,,,,,,,,,,,,,,,,,,,,,,,,,,,,,,,,,,,,,,,,,,,,,,,,,,,,,,,,,,,,
,,,,,,,,,R_3r39WA2EXNNvc9S,2022-09-01_20h38.17.137,jpn_C02,2022.1.2,MacIntel,58.82352941,,,space,4.525,0,10,10,6,1,セル　ムク　ピポ,,,CartoonStims/cowboy_kick_doctor_r.jpg,audio/serumukupipo.mp3,,,,,,,,,,,,,,,,,,,,,,,,,,,,,,,,,,,,,,,,,,,,,,,,,,,,,,,,,,,,,,,,,,,,,
,,,,,,,,,R_3r39WA2EXNNvc9S,2022-09-01_20h38.17.137,jpn_C02,2022.1.2,MacIntel,58.82352941,,,space,12.184,0,11,11,17,1,トマ　ホレト　ドキ,,,CartoonStims/chef_point_boxer_r.jpg,audio/tomahoretodoki.mp3,,,,,,,,,,,,,,,,,,,,,,,,,,,,,,,,,,,,,,,,,,,,,,,,,,,,,,,,,,,,,,,,,,,,,
,,,,,,,,,R_3r39WA2EXNNvc9S,2022-09-01_20h38.17.137,jpn_C02,2022.1.2,MacIntel,58.82352941,,,space,5.664,0,12,12,14,1,トマ　ルピン　ムク,,,CartoonStims/burglar_point_cowboy_r.jpg,audio/tomalupinmuku.mp3,,,,,,,,,,,,,,,,,,,,,,,,,,,,,,,,,,,,,,,,,,,,,,,,,,,,,,,,,,,,,,,,,,,,,
,,,,,,,,,R_3r39WA2EXNNvc9S,2022-09-01_20h38.17.137,jpn_C02,2022.1.2,MacIntel,58.82352941,,,space,9.417,0,13,13,20,1,トマ　ピポ　シド,,,CartoonStims/doctor_point_artist_r.jpg,audio/tomapiposido.mp3,,,,,,,,,,,,,,,,,,,,,,,,,,,,,,,,,,,,,,,,,,,,,,,,,,,,,,,,,,,,,,,,,,,,,
,,,,,,,,,R_3r39WA2EXNNvc9S,2022-09-01_20h38.17.137,jpn_C02,2022.1.2,MacIntel,58.82352941,,,space,3.877,0,14,14,46,1,プミ　ドキ　ムク,,,CartoonStims/boxer_punch_cowboy_r.jpg,audio/pumidokimuku.mp3,,,,,,,,,,,,,,,,,,,,,,,,,,,,,,,,,,,,,,,,,,,,,,,,,,,,,,,,,,,,,,,,,,,,,
,,,,,,,,,R_3r39WA2EXNNvc9S,2022-09-01_20h38.17.137,jpn_C02,2022.1.2,MacIntel,58.82352941,,,space,3.226,0,15,15,7,1,セル　ムク　ドキ,,,CartoonStims/cowboy_kick_boxer_r.jpg,audio/serumukudoki.mp3,,,,,,,,,,,,,,,,,,,,,,,,,,,,,,,,,,,,,,,,,,,,,,,,,,,,,,,,,,,,,,,,,,,,,
,,,,,,,,,R_3r39WA2EXNNvc9S,2022-09-01_20h38.17.137,jpn_C02,2022.1.2,MacIntel,58.82352941,,,space,3.093,0,16,16,28,1,パツ　ホレト　ドキ,,,CartoonStims/chef_shoot_boxer_r.jpg,audio/patsuhoretodoki.mp3,,,,,,,,,,,,,,,,,,,,,,,,,,,,,,,,,,,,,,,,,,,,,,,,,,,,,,,,,,,,,,,,,,,,,
,,,,,,,,,R_3r39WA2EXNNvc9S,2022-09-01_20h38.17.137,jpn_C02,2022.1.2,MacIntel,58.82352941,,,space,2.248,0,17,17,15,1,トマ　ルピン　ピポ,,,CartoonStims/burglar_point_doctor_r.jpg,audio/tomalupinpipo.mp3,,,,,,,,,,,,,,,,,,,,,,,,,,,,,,,,,,,,,,,,,,,,,,,,,,,,,,,,,,,,,,,,,,,,,
,,,,,,,,,R_3r39WA2EXNNvc9S,2022-09-01_20h38.17.137,jpn_C02,2022.1.2,MacIntel,58.82352941,,,space,5.371,0,18,18,4,1,セル　ホレト　ムク,,,CartoonStims/chef_kick_cowboy_r.jpg,audio/seruhoretomuku.mp3,,,,,,,,,,,,,,,,,,,,,,,,,,,,,,,,,,,,,,,,,,,,,,,,,,,,,,,,,,,,,,,,,,,,,
,,,,,,,,,R_3r39WA2EXNNvc9S,2022-09-01_20h38.17.137,jpn_C02,2022.1.2,MacIntel,58.82352941,,,space,6.813,0,19,19,39,1,プミ　ルピン　シド,,,CartoonStims/burglar_punch_artist_r.jpg,audio/pumilupinsido.mp3,,,,,,,,,,,,,,,,,,,,,,,,,,,,,,,,,,,,,,,,,,,,,,,,,,,,,,,,,,,,,,,,,,,,,
,,,,,,,,,R_3r39WA2EXNNvc9S,2022-09-01_20h38.17.137,jpn_C02,2022.1.2,MacIntel,58.82352941,,,space,5.935,0,20,20,31,1,パツ　ムク　ルピン,,,CartoonStims/cowboy_shoot_burglar_r.jpg,audio/patsumukulupin.mp3,,,,,,,,,,,,,,,,,,,,,,,,,,,,,,,,,,,,,,,,,,,,,,,,,,,,,,,,,,,,,,,,,,,,,
,,,,,,,,,R_3r39WA2EXNNvc9S,2022-09-01_20h38.17.137,jpn_C02,2022.1.2,MacIntel,58.82352941,,,space,3.554,0,21,21,35,1,パツ　ドキ　ムク,,,CartoonStims/boxer_shoot_cowboy_r.jpg,audio/patsudokimuku.mp3,,,,,,,,,,,,,,,,,,,,,,,,,,,,,,,,,,,,,,,,,,,,,,,,,,,,,,,,,,,,,,,,,,,,,
,,,,,,,,,R_3r39WA2EXNNvc9S,2022-09-01_20h38.17.137,jpn_C02,2022.1.2,MacIntel,58.82352941,,,space,1.46,0,22,22,41,1,プミ　ホレト　ルピン,,,CartoonStims/chef_punch_burglar_r.jpg,audio/pumihoretolupin.mp3,,,,,,,,,,,,,,,,,,,,,,,,,,,,,,,,,,,,,,,,,,,,,,,,,,,,,,,,,,,,,,,,,,,,,
,,,,,,,,,R_3r39WA2EXNNvc9S,2022-09-01_20h38.17.137,jpn_C02,2022.1.2,MacIntel,58.82352941,,,space,10.919,0,23,23,33,1,パツ　ピポ　ホレト,,,CartoonStims/doctor_shoot_chef_r.jpg,audio/patsupipohoreto.mp3,,,,,,,,,,,,,,,,,,,,,,,,,,,,,,,,,,,,,,,,,,,,,,,,,,,,,,,,,,,,,,,,,,,,,
,,,,,,,,,R_3r39WA2EXNNvc9S,2022-09-01_20h38.17.137,jpn_C02,2022.1.2,MacIntel,58.82352941,,,space,1.296,0,24,24,1,1,セル 　シド 　ホレト,,,CartoonStims/artist_kick_chef_r.jpg,audio/serusidohoreto.mp3,,,,,,,,,,,,,,,,,,,,,,,,,,,,,,,,,,,,,,,,,,,,,,,,,,,,,,,,,,,,,,,,,,,,,
,,,,,,,,,R_3r39WA2EXNNvc9S,2022-09-01_20h38.17.137,jpn_C02,2022.1.2,MacIntel,58.82352941,,,space,3.025,0,25,25,3,1,セル　ルピン　ムク,,,CartoonStims/burglar_kick_cowboy_r.jpg,audio/serulupinmuku.mp3,,,,,,,,,,,,,,,,,,,,,,,,,,,,,,,,,,,,,,,,,,,,,,,,,,,,,,,,,,,,,,,,,,,,,
,,,,,,,,,R_3r39WA2EXNNvc9S,2022-09-01_20h38.17.137,jpn_C02,2022.1.2,MacIntel,58.82352941,,,space,4.651,0,26,26,40,1,プミ　ホレト　シド,,,CartoonStims/chef_punch_artist_r.jpg,audio/pumihoretosido.mp3,,,,,,,,,,,,,,,,,,,,,,,,,,,,,,,,,,,,,,,,,,,,,,,,,,,,,,,,,,,,,,,,,,,,,
,,,,,,,,,R_3r39WA2EXNNvc9S,2022-09-01_20h38.17.137,jpn_C02,2022.1.2,MacIntel,58.82352941,,,space,3.718,0,27,27,47,1,プミ　ドキ　ピポ,,,CartoonStims/boxer_punch_doctor_r.jpg,audio/pumidokipipo.mp3,,,,,,,,,,,,,,,,,,,,,,,,,,,,,,,,,,,,,,,,,,,,,,,,,,,,,,,,,,,,,,,,,,,,,
,,,,,,,,,R_3r39WA2EXNNvc9S,2022-09-01_20h38.17.137,jpn_C02,2022.1.2,MacIntel,58.82352941,,,space,6.687,0,28,28,18,1,トマ　ムク　ドキ,,,CartoonStims/cowboy_point_boxer_r.jpg,audio/tomamukudoki.mp3,,,,,,,,,,,,,,,,,,,,,,,,,,,,,,,,,,,,,,,,,,,,,,,,,,,,,,,,,,,,,,,,,,,,,
,,,,,,,,,R_3r39WA2EXNNvc9S,2022-09-01_20h38.17.137,jpn_C02,2022.1.2,MacIntel,58.82352941,,,space,9.701,0,29,29,19,1,トマ　ムク　シド,,,CartoonStims/cowboy_point_artist_r.jpg,audio/tomamukusido.mp3,,,,,,,,,,,,,,,,,,,,,,,,,,,,,,,,,,,,,,,,,,,,,,,,,,,,,,,,,,,,,,,,,,,,,
,,,,,,,,,R_3r39WA2EXNNvc9S,2022-09-01_20h38.17.137,jpn_C02,2022.1.2,MacIntel,58.82352941,,,space,4.85,0,30,30,21,1,トマ　ピポ　ルピン,,,CartoonStims/doctor_point_burglar_r.jpg,audio/tomapipolupin.mp3,,,,,,,,,,,,,,,,,,,,,,,,,,,,,,,,,,,,,,,,,,,,,,,,,,,,,,,,,,,,,,,,,,,,,
,,,,,,,,,R_3r39WA2EXNNvc9S,2022-09-01_20h38.17.137,jpn_C02,2022.1.2,MacIntel,58.82352941,,,space,1.6,0,31,31,32,1,パツ　ピポ　ルピン,,,CartoonStims/doctor_shoot_burglar_r.jpg,audio/patsupipolupin.mp3,,,,,,,,,,,,,,,,,,,,,,,,,,,,,,,,,,,,,,,,,,,,,,,,,,,,,,,,,,,,,,,,,,,,,
,,,,,,,,,R_3r39WA2EXNNvc9S,2022-09-01_20h38.17.137,jpn_C02,2022.1.2,MacIntel,58.82352941,,,space,6.685,0,32,32,13,1,トマ　シド　ムク,,,CartoonStims/artist_point_cowboy_r.jpg,audio/tomasidomuku.mp3,,,,,,,,,,,,,,,,,,,,,,,,,,,,,,,,,,,,,,,,,,,,,,,,,,,,,,,,,,,,,,,,,,,,,
,,,,,,,,,R_3r39WA2EXNNvc9S,2022-09-01_20h38.17.137,jpn_C02,2022.1.2,MacIntel,58.82352941,,,space,0.874,0,33,33,23,1,トマ　ドキ　ホレト,,,CartoonStims/boxer_point_chef_r.jpg,audio/tomadokihoreto.mp3,,,,,,,,,,,,,,,,,,,,,,,,,,,,,,,,,,,,,,,,,,,,,,,,,,,,,,,,,,,,,,,,,,,,,
,,,,,,,,,R_3r39WA2EXNNvc9S,2022-09-01_20h38.17.137,jpn_C02,2022.1.2,MacIntel,58.82352941,,,space,0.984,0,34,34,38,1,プミ　ルピン　ドキ,,,CartoonStims/burglar_punch_boxer_r.jpg,audio/pumilupindoki.mp3,,,,,,,,,,,,,,,,,,,,,,,,,,,,,,,,,,,,,,,,,,,,,,,,,,,,,,,,,,,,,,,,,,,,,
,,,,,,,,,R_3r39WA2EXNNvc9S,2022-09-01_20h38.17.137,jpn_C02,2022.1.2,MacIntel,58.82352941,,,space,1.155,0,35,35,22,1,トマ　ドキ　ルピン,,,CartoonStims/boxer_point_burglar_r.jpg,audio/tomadokilupin.mp3,,,,,,,,,,,,,,,,,,,,,,,,,,,,,,,,,,,,,,,,,,,,,,,,,,,,,,,,,,,,,,,,,,,,,
,,,,,,,,,R_3r39WA2EXNNvc9S,2022-09-01_20h38.17.137,jpn_C02,2022.1.2,MacIntel,58.82352941,,,space,0.184,0,36,36,16,1,トマ　ホレト　ピポ,,,CartoonStims/chef_point_doctor_r.jpg,audio/tomahoretopipo.mp3,,,,,,,,,,,,,,,,,,,,,,,,,,,,,,,,,,,,,,,,,,,,,,,,,,,,,,,,,,,,,,,,,,,,,
,,,,,,,,,R_3r39WA2EXNNvc9S,2022-09-01_20h38.17.137,jpn_C02,2022.1.2,MacIntel,58.82352941,,,space,3.18,0,37,37,43,1,プミ　ムク　ホレト,,,CartoonStims/cowboy_punch_chef_r.jpg,audio/pumimukuhoreto.mp3,,,,,,,,,,,,,,,,,,,,,,,,,,,,,,,,,,,,,,,,,,,,,,,,,,,,,,,,,,,,,,,,,,,,,
,,,,,,,,,R_3r39WA2EXNNvc9S,2022-09-01_20h38.17.137,jpn_C02,2022.1.2,MacIntel,58.82352941,,,space,0.486,0,38,38,26,1,パツ　ルピン　ピポ,,,CartoonStims/burglar_shoot_doctor_r.jpg,audio/patsulupinpipo.mp3,,,,,,,,,,,,,,,,,,,,,,,,,,,,,,,,,,,,,,,,,,,,,,,,,,,,,,,,,,,,,,,,,,,,,
,,,,,,,,,R_3r39WA2EXNNvc9S,2022-09-01_20h38.17.137,jpn_C02,2022.1.2,MacIntel,58.82352941,,,space,0.435,0,39,39,2,1,セル 　ルピン 　ホレト,,,CartoonStims/burglar_kick_chef_r.jpg,audio/serulupinhoreto.mp3,,,,,,,,,,,,,,,,,,,,,,,,,,,,,,,,,,,,,,,,,,,,,,,,,,,,,,,,,,,,,,,,,,,,,
,,,,,,,,,R_3r39WA2EXNNvc9S,2022-09-01_20h38.17.137,jpn_C02,2022.1.2,MacIntel,58.82352941,,,space,0.798,0,40,40,37,1,プミ　シド　ドキ,,,CartoonStims/artist_punch_boxer_r.jpg,audio/pumisidodoki.mp3,,,,,,,,,,,,,,,,,,,,,,,,,,,,,,,,,,,,,,,,,,,,,,,,,,,,,,,,,,,,,,,,,,,,,
,,,,,,,,,R_3r39WA2EXNNvc9S,2022-09-01_20h38.17.137,jpn_C02,2022.1.2,MacIntel,58.82352941,,,space,1.326,0,41,41,9,1,セル　ピポ　シド,,,CartoonStims/doctor_kick_artist_r.jpg,audio/serupiposido.mp3,,,,,,,,,,,,,,,,,,,,,,,,,,,,,,,,,,,,,,,,,,,,,,,,,,,,,,,,,,,,,,,,,,,,,
,,,,,,,,,R_3r39WA2EXNNvc9S,2022-09-01_20h38.17.137,jpn_C02,2022.1.2,MacIntel,58.82352941,,,space,1.715,0,42,42,42,1,プミ　ムク　ルピン,,,CartoonStims/cowboy_punch_burglar_r.jpg,audio/pumimukulupin.mp3,,,,,,,,,,,,,,,,,,,,,,,,,,,,,,,,,,,,,,,,,,,,,,,,,,,,,,,,,,,,,,,,,,,,,
,,,,,,,,,R_3r39WA2EXNNvc9S,2022-09-01_20h38.17.137,jpn_C02,2022.1.2,MacIntel,58.82352941,,,space,3.45,0,43,43,34,1,パツ　ドキ　ホレト,,,CartoonStims/boxer_shoot_chef_r.jpg,audio/patsudokihoreto.mp3,,,,,,,,,,,,,,,,,,,,,,,,,,,,,,,,,,,,,,,,,,,,,,,,,,,,,,,,,,,,,,,,,,,,,
,,,,,,,,,R_3r39WA2EXNNvc9S,2022-09-01_20h38.17.137,jpn_C02,2022.1.2,MacIntel,58.82352941,,,space,1.733,0,44,44,44,1,プミ　ピポ　ホレト,,,CartoonStims/doctor_punch_chef_r.jpg,audio/pumipipohoreto.mp3,,,,,,,,,,,,,,,,,,,,,,,,,,,,,,,,,,,,,,,,,,,,,,,,,,,,,,,,,,,,,,,,,,,,,
,,,,,,,,,R_3r39WA2EXNNvc9S,2022-09-01_20h38.17.137,jpn_C02,2022.1.2,MacIntel,58.82352941,,,space,3.27,0,45,45,12,1,トマ　シド　ホレト,,,CartoonStims/artist_point_chef_r.jpg,audio/tomasidohoreto.mp3,,,,,,,,,,,,,,,,,,,,,,,,,,,,,,,,,,,,,,,,,,,,,,,,,,,,,,,,,,,,,,,,,,,,,
,,,,,,,,,R_3r39WA2EXNNvc9S,2022-09-01_20h38.17.137,jpn_C02,2022.1.2,MacIntel,58.82352941,,,space,2.028,0,46,46,45,1,プミ　ピポ　ムク,,,CartoonStims/doctor_punch_cowboy_r.jpg,audio/pumipipomuku.mp3,,,,,,,,,,,,,,,,,,,,,,,,,,,,,,,,,,,,,,,,,,,,,,,,,,,,,,,,,,,,,,,,,,,,,
,,,,,,,,,R_3r39WA2EXNNvc9S,2022-09-01_20h38.17.137,jpn_C02,2022.1.2,MacIntel,58.82352941,,,space,1.741,0,47,47,29,1,パツ　ホレト　シド,,,CartoonStims/chef_shoot_artist_r.jpg,audio/patsuhoretosido.mp3,,,,,,,,,,,,,,,,,,,,,,,,,,,,,,,,,,,,,,,,,,,,,,,,,,,,,,,,,,,,,,,,,,,,,
,,,,,,,,,R_3r39WA2EXNNvc9S,2022-09-01_20h38.17.137,jpn_C02,2022.1.2,MacIntel,58.82352941,,,,,,,,,,,,,,,space,0.05,right,1,4.285,0,0,0,0,1,,,,,,,,,,,,,,,,,,,,,,,,,,,,,,,,,,,,,,,,,,,,,,,,,,,,,,,,,,,
,,,,,,,,,R_3r39WA2EXNNvc9S,2022-09-01_20h38.17.137,jpn_C02,2022.1.2,MacIntel,58.82352941,,,,,,,,,,,,,,,,,,,,,,,,,0,0,0,7,1,CartoonStims/artist_punch_cowboy_r.jpg,セル　シド　ムク,CartoonStims/artist_kick_cowboy_r.jpg,right,CartoonStims/artist_kick_cowboy_r.jpg,audio/serusidomuku.mp3,残念！ こちらが正しい画像です。,,,,,,,,,,,,,,,,,,,,,,,,,,,,,,,,,,,,,,,,,,,,,,,
,,,,,,,,,R_3r39WA2EXNNvc9S,2022-09-01_20h38.17.137,jpn_C02,2022.1.2,MacIntel,58.82352941,,,,,,,,,,,,,,,,,left,1,2.619,,,,,,,,,,,,,,,,,,0,0,0,0,1,,,,,,,,,,,,,,,,,,,,,,,,,,,,,,,,,,,,,,,,,,
,,,,,,,,,R_3r39WA2EXNNvc9S,2022-09-01_20h38.17.137,jpn_C02,2022.1.2,MacIntel,58.82352941,,,,,,,,,,,,,,,,,,,,,,,,,0,1,1,4,1,CartoonStims/burglar_point_boxer_r.jpg,トマ　ルピン　ドキ,CartoonStims/burglar_kick_boxer_r.jpg,left,CartoonStims/burglar_point_boxer_r.jpg,audio/tomalupindoki.mp3,残念！ こちらが正しい画像です。,,,,,,,,,,,,,,,,,,,,,,,,,,,,,,,,,,,,,,,,,,,,,,,
,,,,,,,,,R_3r39WA2EXNNvc9S,2022-09-01_20h38.17.137,jpn_C02,2022.1.2,MacIntel,58.82352941,,,,,,,,,,,,,,,,,right,1,1.733,0,0,0,0,1,,,,,,,,,,,,,,,,,,,,,,,,,,,,,,,,,,,,,,,,,,,,,,,,,,,,,,,,,,,
,,,,,,,,,R_3r39WA2EXNNvc9S,2022-09-01_20h38.17.137,jpn_C02,2022.1.2,MacIntel,58.82352941,,,,,,,,,,,,,,,,,,,,,,,,,0,2,2,5,1,CartoonStims/cowboy_point_chef_r.jpg,パツ　ムク　ホレト,CartoonStims/cowboy_shoot_chef_r.jpg,right,CartoonStims/cowboy_shoot_chef_r.jpg,audio/patsumukuhoreto.mp3,残念！ こちらが正しい画像です。,,,,,,,,,,,,,,,,,,,,,,,,,,,,,,,,,,,,,,,,,,,,,,,
,,,,,,,,,R_3r39WA2EXNNvc9S,2022-09-01_20h38.17.137,jpn_C02,2022.1.2,MacIntel,58.82352941,,,,,,,,,,,,,,,,,right,1,4.978,0,0,0,0,1,,,,,,,,,,,,,,,,,,,,,,,,,,,,,,,,,,,,,,,,,,,,,,,,,,,,,,,,,,,
,,,,,,,,,R_3r39WA2EXNNvc9S,2022-09-01_20h38.17.137,jpn_C02,2022.1.2,MacIntel,58.82352941,,,,,,,,,,,,,,,,,,,,,,,,,0,3,3,1,1,CartoonStims/chef_point_burglar_r.jpg,トマ　ホレト　シド,CartoonStims/chef_point_artist_r.jpg,right,CartoonStims/chef_point_artist_r.jpg,audio/tomahoretosido.mp3,残念！ こちらが正しい画像です。,,,,,,,,,,,,,,,,,,,,,,,,,,,,,,,,,,,,,,,,,,,,,,,
,,,,,,,,,R_3r39WA2EXNNvc9S,2022-09-01_20h38.17.137,jpn_C02,2022.1.2,MacIntel,58.82352941,,,,,,,,,,,,,,,,,left,1,1.701,,,,,,,,,,,,,,,,,,0,0,0,0,1,,,,,,,,,,,,,,,,,,,,,,,,,,,,,,,,,,,,,,,,,,
,,,,,,,,,R_3r39WA2EXNNvc9S,2022-09-01_20h38.17.137,jpn_C02,2022.1.2,MacIntel,58.82352941,,,,,,,,,,,,,,,,,,,,,,,,,0,4,4,6,1,CartoonStims/doctor_punch_boxer_r.jpg,プミ　ピポ　ドキ,CartoonStims/doctor_shoot_boxer_r.jpg,left,CartoonStims/doctor_punch_boxer_r.jpg,audio/pumipipodoki.mp3,残念！ こちらが正しい画像です。,,,,,,,,,,,,,,,,,,,,,,,,,,,,,,,,,,,,,,,,,,,,,,,
,,,,,,,,,R_3r39WA2EXNNvc9S,2022-09-01_20h38.17.137,jpn_C02,2022.1.2,MacIntel,58.82352941,,,,,,,,,,,,,,,,,left,1,4.316,,,,,,,,,,,,,,,,,,0,0,0,0,1,,,,,,,,,,,,,,,,,,,,,,,,,,,,,,,,,,,,,,,,,,
,,,,,,,,,R_3r39WA2EXNNvc9S,2022-09-01_20h38.17.137,jpn_C02,2022.1.2,MacIntel,58.82352941,,,,,,,,,,,,,,,,,,,,,,,,,0,5,5,8,1,CartoonStims/doctor_point_cowboy_r.jpg,トマ　ピポ　ムク,CartoonStims/boxer_point_cowboy_r.jpg,left,CartoonStims/doctor_point_cowboy_r.jpg,audio/tomapipomuku.mp3,残念！ こちらが正しい画像です。,,,,,,,,,,,,,,,,,,,,,,,,,,,,,,,,,,,,,,,,,,,,,,,
,,,,,,,,,R_3r39WA2EXNNvc9S,2022-09-01_20h38.17.137,jpn_C02,2022.1.2,MacIntel,58.82352941,,,,,,,,,,,,,,,,,left,1,4.302,,,,,,,,,,,,,,,,,,0,0,0,0,1,,,,,,,,,,,,,,,,,,,,,,,,,,,,,,,,,,,,,,,,,,
,,,,,,,,,R_3r39WA2EXNNvc9S,2022-09-01_20h38.17.137,jpn_C02,2022.1.2,MacIntel,58.82352941,,,,,,,,,,,,,,,,,,,,,,,,,0,6,6,0,1,CartoonStims/doctor_kick_burglar_r.jpg,セル　ピポ　ルピン,CartoonStims/doctor_kick_chef_r.jpg,left,CartoonStims/doctor_kick_burglar_r.jpg,audio/serupipolupin.mp3,残念！ こちらが正しい画像です。,,,,,,,,,,,,,,,,,,,,,,,,,,,,,,,,,,,,,,,,,,,,,,,
,,,,,,,,,R_3r39WA2EXNNvc9S,2022-09-01_20h38.17.137,jpn_C02,2022.1.2,MacIntel,58.82352941,,,,,,,,,,,,,,,,,left,1,5.968,,,,,,,,,,,,,,,,,,0,0,0,0,1,,,,,,,,,,,,,,,,,,,,,,,,,,,,,,,,,,,,,,,,,,
,,,,,,,,,R_3r39WA2EXNNvc9S,2022-09-01_20h38.17.137,jpn_C02,2022.1.2,MacIntel,58.82352941,,,,,,,,,,,,,,,,,,,,,,,,,0,7,7,10,1,CartoonStims/artist_shoot_burglar_r.jpg,パツ　シド　ルピン,CartoonStims/chef_shoot_burglar_r.jpg,left,CartoonStims/artist_shoot_burglar_r.jpg,audio/patsusidolupin.mp3,残念！ こちらが正しい画像です。,,,,,,,,,,,,,,,,,,,,,,,,,,,,,,,,,,,,,,,,,,,,,,,
,,,,,,,,,R_3r39WA2EXNNvc9S,2022-09-01_20h38.17.137,jpn_C02,2022.1.2,MacIntel,58.82352941,,,,,,,,,,,,,,,,,right,1,5.933,0,0,0,0,1,,,,,,,,,,,,,,,,,,,,,,,,,,,,,,,,,,,,,,,,,,,,,,,,,,,,,,,,,,,
,,,,,,,,,R_3r39WA2EXNNvc9S,2022-09-01_20h38.17.137,jpn_C02,2022.1.2,MacIntel,58.82352941,,,,,,,,,,,,,,,,,,,,,,,,,0,8,8,9,1,CartoonStims/chef_kick_artist_r.jpg,セル　ムク　シド,CartoonStims/cowboy_kick_artist_r.jpg,right,CartoonStims/cowboy_kick_artist_r.jpg,audio/serumukusido.mp3,残念！ こちらが正しい画像です。,,,,,,,,,,,,,,,,,,,,,,,,,,,,,,,,,,,,,,,,,,,,,,,
,,,,,,,,,R_3r39WA2EXNNvc9S,2022-09-01_20h38.17.137,jpn_C02,2022.1.2,MacIntel,58.82352941,,,,,,,,,,,,,,,,,left,1,7.417,,,,,,,,,,,,,,,,,,0,0,0,0,1,,,,,,,,,,,,,,,,,,,,,,,,,,,,,,,,,,,,,,,,,,
,,,,,,,,,R_3r39WA2EXNNvc9S,2022-09-01_20h38.17.137,jpn_C02,2022.1.2,MacIntel,58.82352941,,,,,,,,,,,,,,,,,,,,,,,,,0,9,9,2,1,CartoonStims/boxer_shoot_doctor_r.jpg,パツ　ドキ　ピポ,CartoonStims/boxer_shoot_artist_r.jpg,left,CartoonStims/boxer_shoot_doctor_r.jpg,audio/patsudokipipo.mp3,残念！ こちらが正しい画像です。,,,,,,,,,,,,,,,,,,,,,,,,,,,,,,,,,,,,,,,,,,,,,,,
,,,,,,,,,R_3r39WA2EXNNvc9S,2022-09-01_20h38.17.137,jpn_C02,2022.1.2,MacIntel,58.82352941,,,,,,,,,,,,,,,,,right,1,3.652,0,0,0,0,1,,,,,,,,,,,,,,,,,,,,,,,,,,,,,,,,,,,,,,,,,,,,,,,,,,,,,,,,,,,
,,,,,,,,,R_3r39WA2EXNNvc9S,2022-09-01_20h38.17.137,jpn_C02,2022.1.2,MacIntel,58.82352941,,,,,,,,,,,,,,,,,,,,,,,,,0,10,10,11,1,CartoonStims/burglar_punch_cowboy_r.jpg,プミ　ホレト　ムク,CartoonStims/chef_punch_cowboy_r.jpg,right,CartoonStims/chef_punch_cowboy_r.jpg,audio/pumihoretomuku.mp3,残念！ こちらが正しい画像です。,,,,,,,,,,,,,,,,,,,,,,,,,,,,,,,,,,,,,,,,,,,,,,,
,,,,,,,,,R_3r39WA2EXNNvc9S,2022-09-01_20h38.17.137,jpn_C02,2022.1.2,MacIntel,58.82352941,,,,,,,,,,,,,,,,,right,1,3.234,0,0,0,0,1,,,,,,,,,,,,,,,,,,,,,,,,,,,,,,,,,,,,,,,,,,,,,,,,,,,,,,,,,,,
,,,,,,,,,R_3r39WA2EXNNvc9S,2022-09-01_20h38.17.137,jpn_C02,2022.1.2,MacIntel,58.82352941,,,,,,,,,,,,,,,,,,,,,,,,,0,11,11,3,1,CartoonStims/cowboy_punch_doctor_r.jpg,プミ　ムク　ドキ,CartoonStims/cowboy_punch_boxer_r.jpg,right,CartoonStims/cowboy_punch_boxer_r.jpg,audio/pumimukudoki.mp3,残念！ こちらが正しい画像です。,,,,,,,,,,,,,,,,,,,,,,,,,,,,,,,,,,,,,,,,,,,,,,,
,,,,,,,,,R_3r39WA2EXNNvc9S,2022-09-01_20h38.17.137,jpn_C02,2022.1.2,MacIntel,58.82352941,,,,,,,,,,,,,,,,,,,,,,,,,,,,,,,,,,,,,,,,,,space,5.233,セル　ピポ　ホレト　,right,43.352,0,0,0,0,1,,,,,,,,,,,,,,,,,,,,,,,,,,,,,,,,
,,,,,,,,,R_3r39WA2EXNNvc9S,2022-09-01_20h38.17.137,jpn_C02,2022.1.2,MacIntel,58.82352941,,,,,,,,,,,,,CartoonStims/doctor_kick_chef_r.jpg,audio/serupipohoreto.mp3,,,,,,,,,,,,,,,,,,,,,,,,,,,,,,,,,,,,,,0,0,0,1,1,セル　ピポ　ホレト,,,,,,,,,,,,,,,,,,,,,,,,,,
,,,,,,,,,R_3r39WA2EXNNvc9S,2022-09-01_20h38.17.137,jpn_C02,2022.1.2,MacIntel,58.82352941,,,,,,,,,,,,,,,,,,,,,,,,,,,,,,,,,,,,,,,,,,,,トマ　ルピン,right,10.865,0,0,0,0,1,,,,,,,,,,,,,,,,,,,,,,,,,,,,,,,,
,,,,,,,,,R_3r39WA2EXNNvc9S,2022-09-01_20h38.17.137,jpn_C02,2022.1.2,MacIntel,58.82352941,,,,,,,,,,,,,CartoonStims/burglar_point_artist_r.jpg,audio/tomalupinsido.mp3,,,,,,,,,,,,,,,,,,,,,,,,,,,,,,,,,,,,,,0,1,1,4,1,トマ　ルピン　シド,,,,,,,,,,,,,,,,,,,,,,,,,,
,,,,,,,,,R_3r39WA2EXNNvc9S,2022-09-01_20h38.17.137,jpn_C02,2022.1.2,MacIntel,58.82352941,,,,,,,,,,,,,,,,,,,,,,,,,,,,,,,,,,,,,,,,,,,,パン,right,9.231,0,0,0,0,1,,,,,,,,,,,,,,,,,,,,,,,,,,,,,,,,
,,,,,,,,,R_3r39WA2EXNNvc9S,2022-09-01_20h38.17.137,jpn_C02,2022.1.2,MacIntel,58.82352941,,,,,,,,,,,,,CartoonStims/chef_shoot_cowboy_r.jpg,audio/patsuhoretomuku.mp3,,,,,,,,,,,,,,,,,,,,,,,,,,,,,,,,,,,,,,0,2,2,7,1,パツ　ホレト　ムク,,,,,,,,,,,,,,,,,,,,,,,,,,
,,,,,,,,,R_3r39WA2EXNNvc9S,2022-09-01_20h38.17.137,jpn_C02,2022.1.2,MacIntel,58.82352941,,,,,,,,,,,,,,,,,,,,,,,,,,,,,,,,,,,,,,,,,,,,パツ　ムク　ピポ,right,18.678,0,0,0,0,1,,,,,,,,,,,,,,,,,,,,,,,,,,,,,,,,
,,,,,,,,,R_3r39WA2EXNNvc9S,2022-09-01_20h38.17.137,jpn_C02,2022.1.2,MacIntel,58.82352941,,,,,,,,,,,,,CartoonStims/cowboy_shoot_doctor_r.jpg,audio/patsumukupipo.mp3,,,,,,,,,,,,,,,,,,,,,,,,,,,,,,,,,,,,,,0,3,3,8,1,パツ　ムク　ピポ,,,,,,,,,,,,,,,,,,,,,,,,,,
,,,,,,,,,R_3r39WA2EXNNvc9S,2022-09-01_20h38.17.137,jpn_C02,2022.1.2,MacIntel,58.82352941,,,,,,,,,,,,,,,,,,,,,,,,,,,,,,,,,,,,,,,,,,,,プミ　シド　ルピン,right,19.111,0,0,0,0,1,,,,,,,,,,,,,,,,,,,,,,,,,,,,,,,,
,,,,,,,,,R_3r39WA2EXNNvc9S,2022-09-01_20h38.17.137,jpn_C02,2022.1.2,MacIntel,58.82352941,,,,,,,,,,,,,CartoonStims/artist_punch_burglar_r.jpg,audio/pumisidolupin.mp3,,,,,,,,,,,,,,,,,,,,,,,,,,,,,,,,,,,,,,0,4,4,9,1,プミ　シド　ルピン,,,,,,,,,,,,,,,,,,,,,,,,,,
,,,,,,,,,R_3r39WA2EXNNvc9S,2022-09-01_20h38.17.137,jpn_C02,2022.1.2,MacIntel,58.82352941,,,,,,,,,,,,,,,,,,,,,,,,,,,,,,,,,,,,,,,,,,,,プミ　ピポ　ドキ,right,16.93,0,0,0,0,1,,,,,,,,,,,,,,,,,,,,,,,,,,,,,,,,
,,,,,,,,,R_3r39WA2EXNNvc9S,2022-09-01_20h38.17.137,jpn_C02,2022.1.2,MacIntel,58.82352941,,,,,,,,,,,,,CartoonStims/doctor_punch_boxer_r.jpg,audio/pumipipodoki.mp3,,,,,,,,,,,,,,,,,,,,,,,,,,,,,,,,,,,,,,0,5,5,10,1,プミ　ピポ　ドキ,,,,,,,,,,,,,,,,,,,,,,,,,,
,,,,,,,,,R_3r39WA2EXNNvc9S,2022-09-01_20h38.17.137,jpn_C02,2022.1.2,MacIntel,58.82352941,,,,,,,,,,,,,,,,,,,,,,,,,,,,,,,,,,,,,,,,,,,,プミ　ドキ　シド,right,16.145,0,0,0,0,1,,,,,,,,,,,,,,,,,,,,,,,,,,,,,,,,
,,,,,,,,,R_3r39WA2EXNNvc9S,2022-09-01_20h38.17.137,jpn_C02,2022.1.2,MacIntel,58.82352941,,,,,,,,,,,,,CartoonStims/boxer_punch_artist_r.jpg,audio/pumidokisido.mp3,,,,,,,,,,,,,,,,,,,,,,,,,,,,,,,,,,,,,,0,6,6,11,1,プミ　ドキ　シド,,,,,,,,,,,,,,,,,,,,,,,,,,
,,,,,,,,,R_3r39WA2EXNNvc9S,2022-09-01_20h38.17.137,jpn_C02,2022.1.2,MacIntel,58.82352941,,,,,,,,,,,,,,,,,,,,,,,,,,,,,,,,,,,,,,,,,,,,トマ　ホレト　ルピン,right,11.405,0,0,0,0,1,,,,,,,,,,,,,,,,,,,,,,,,,,,,,,,,
,,,,,,,,,R_3r39WA2EXNNvc9S,2022-09-01_20h38.17.137,jpn_C02,2022.1.2,MacIntel,58.82352941,,,,,,,,,,,,,CartoonStims/chef_point_burglar_r.jpg,audio/tomahoretolupin.mp3,,,,,,,,,,,,,,,,,,,,,,,,,,,,,,,,,,,,,,0,7,7,5,1,トマ　ホレト　ルピン,,,,,,,,,,,,,,,,,,,,,,,,,,
,,,,,,,,,R_3r39WA2EXNNvc9S,2022-09-01_20h38.17.137,jpn_C02,2022.1.2,MacIntel,58.82352941,,,,,,,,,,,,,,,,,,,,,,,,,,,,,,,,,,,,,,,,,,,,セル　ドキ　ムク　,right,8.129,0,0,0,0,1,,,,,,,,,,,,,,,,,,,,,,,,,,,,,,,,
,,,,,,,,,R_3r39WA2EXNNvc9S,2022-09-01_20h38.17.137,jpn_C02,2022.1.2,MacIntel,58.82352941,,,,,,,,,,,,,CartoonStims/boxer_kick_cowboy_r.jpg,audio/serudokimuku.mp3,,,,,,,,,,,,,,,,,,,,,,,,,,,,,,,,,,,,,,0,8,8,2,1,セル　ドキ　ムク,,,,,,,,,,,,,,,,,,,,,,,,,,
,,,,,,,,,R_3r39WA2EXNNvc9S,2022-09-01_20h38.17.137,jpn_C02,2022.1.2,MacIntel,58.82352941,,,,,,,,,,,,,,,,,,,,,,,,,,,,,,,,,,,,,,,,,,,,ハツ　ルピン　ホレト,right,15.496,0,0,0,0,1,,,,,,,,,,,,,,,,,,,,,,,,,,,,,,,,
,,,,,,,,,R_3r39WA2EXNNvc9S,2022-09-01_20h38.17.137,jpn_C02,2022.1.2,MacIntel,58.82352941,,,,,,,,,,,,,CartoonStims/burglar_shoot_chef_r.jpg,audio/patsulupinhoreto.mp3,,,,,,,,,,,,,,,,,,,,,,,,,,,,,,,,,,,,,,0,9,9,6,1,パツ　ルピン　ホレト,,,,,,,,,,,,,,,,,,,,,,,,,,
,,,,,,,,,R_3r39WA2EXNNvc9S,2022-09-01_20h38.17.137,jpn_C02,2022.1.2,MacIntel,58.82352941,,,,,,,,,,,,,,,,,,,,,,,,,,,,,,,,,,,,,,,,,,,,セル　ムク　ルピン,right,13.165,0,0,0,0,1,,,,,,,,,,,,,,,,,,,,,,,,,,,,,,,,
,,,,,,,,,R_3r39WA2EXNNvc9S,2022-09-01_20h38.17.137,jpn_C02,2022.1.2,MacIntel,58.82352941,,,,,,,,,,,,,CartoonStims/cowboy_kick_burglar_r.jpg,audio/serumukulupin.mp3,,,,,,,,,,,,,,,,,,,,,,,,,,,,,,,,,,,,,,0,10,10,0,1,セル　ムク　ルピン,,,,,,,,,,,,,,,,,,,,,,,,,,
,,,,,,,,,R_3r39WA2EXNNvc9S,2022-09-01_20h38.17.137,jpn_C02,2022.1.2,MacIntel,58.82352941,,,,,,,,,,,,,,,,,,,,,,,,,,,,,,,,,,,,,,,,,,,,トマ　シド　ドキ,right,9.814,0,0,0,0,1,,,,,,,,,,,,,,,,,,,,,,,,,,,,,,,,
,,,,,,,,,R_3r39WA2EXNNvc9S,2022-09-01_20h38.17.137,jpn_C02,2022.1.2,MacIntel,58.82352941,,,,,,,,,,,,,CartoonStims/artist_point_boxer_r.jpg,audio/tomasidodoki.mp3,,,,,,,,,,,,,,,,,,,,,,,,,,,,,,,,,,,,,,0,11,11,3,1,トマ　シド　ドキ,,,,,,,,,,,,,,,,,,,,,,,,,,
,,,,,,,,,R_3r39WA2EXNNvc9S,2022-09-01_20h38.17.137,jpn_C02,2022.1.2,MacIntel,58.82352941,,,,,,,,,,,,,,,,,,,,,,,,,,,,,,,,,,,,,,,,,,,,,,,,,,,,,,,,,,,space,0.9,0,1,1,1,1,AffExposure.xlsx,"第二のトライアルの学習では、この言語で書かれた文を見ていただきます。引き続き注意して、 聞こえた音を復唱してください。


スペースキーを押してください。",1,AffFCT.xlsx,ここからクイズが始まります。 スクリーンに表示されるテキストに合う画像を選んでください。,AffTest.xlsx,1,次にここまで学んだことをアウトプットしていただきます。 表示される画像を描写していると思う単語を、テキストボックスにタイプしてください。 答えを提出したあとに正しい正解が少しの間画面に写ります。,1,"これで第二のトライアルが終了しました。 ここで休憩をとっていただいても構いません。

休憩が終わりましたら、 スペースキーを押して続きの学習を行いましょう。",,,,,,,,
,,,,,,,,,R_3r39WA2EXNNvc9S,2022-09-01_20h38.17.137,jpn_C02,2022.1.2,MacIntel,58.82352941,space,0.566,space,3.166,0,0,0,28,1,ピク　パツ　ホレト　ドキ,,,CartoonStims/chef_shoot_boxer_r_no.jpg,audio/pikupatsuhoretodoki.mp3,,,,,,,,,,,,,,,,,,,,,,,,,,,,,,,,,,,,,,,,,,,,,,,,,,,,,,,,,,,,,,,,,,,,,
,,,,,,,,,R_3r39WA2EXNNvc9S,2022-09-01_20h38.17.137,jpn_C02,2022.1.2,MacIntel,58.82352941,,,space,5.617,0,1,1,27,1,パツ　ピク　ルピン　ドキ,,,CartoonStims/burglar_shoot_boxer_r_no.jpg,audio/patsupikulupindoki.mp3,,,,,,,,,,,,,,,,,,,,,,,,,,,,,,,,,,,,,,,,,,,,,,,,,,,,,,,,,,,,,,,,,,,,,
,,,,,,,,,R_3r39WA2EXNNvc9S,2022-09-01_20h38.17.137,jpn_C02,2022.1.2,MacIntel,58.82352941,,,space,2.219,0,2,2,6,1,ピク　セル　ムク　ピポ,,,CartoonStims/cowboy_kick_doctor_r_no.jpg,audio/pikuserumukupipo.mp3,,,,,,,,,,,,,,,,,,,,,,,,,,,,,,,,,,,,,,,,,,,,,,,,,,,,,,,,,,,,,,,,,,,,,
,,,,,,,,,R_3r39WA2EXNNvc9S,2022-09-01_20h38.17.137,jpn_C02,2022.1.2,MacIntel,58.82352941,,,space,7.233,0,3,3,46,1,プミ　ピク　ドキ　ムク,,,CartoonStims/boxer_punch_cowboy_r_no.jpg,audio/pumipikudokimuku.mp3,,,,,,,,,,,,,,,,,,,,,,,,,,,,,,,,,,,,,,,,,,,,,,,,,,,,,,,,,,,,,,,,,,,,,
,,,,,,,,,R_3r39WA2EXNNvc9S,2022-09-01_20h38.17.137,jpn_C02,2022.1.2,MacIntel,58.82352941,,,space,6.75,0,4,4,43,1,ピク　プミ　ムク　ホレト,,,CartoonStims/cowboy_punch_chef_r_no.jpg,audio/pikupumimukuhoreto.mp3,,,,,,,,,,,,,,,,,,,,,,,,,,,,,,,,,,,,,,,,,,,,,,,,,,,,,,,,,,,,,,,,,,,,,
,,,,,,,,,R_3r39WA2EXNNvc9S,2022-09-01_20h38.17.137,jpn_C02,2022.1.2,MacIntel,58.82352941,,,space,3.71,0,5,5,8,1,セル　ピク　ピポ　ドキ,,,CartoonStims/doctor_kick_boxer_r_no.jpg,audio/serupikupipodoki.mp3,,,,,,,,,,,,,,,,,,,,,,,,,,,,,,,,,,,,,,,,,,,,,,,,,,,,,,,,,,,,,,,,,,,,,
,,,,,,,,,R_3r39WA2EXNNvc9S,2022-09-01_20h38.17.137,jpn_C02,2022.1.2,MacIntel,58.82352941,,,space,3.883,0,6,6,40,1,ピク　プミ　ホレト　シド,,,CartoonStims/chef_punch_artist_r_no.jpg,audio/pikupumihoretosido.mp3,,,,,,,,,,,,,,,,,,,,,,,,,,,,,,,,,,,,,,,,,,,,,,,,,,,,,,,,,,,,,,,,,,,,,
,,,,,,,,,R_3r39WA2EXNNvc9S,2022-09-01_20h38.17.137,jpn_C02,2022.1.2,MacIntel,58.82352941,,,space,1.581,0,7,7,35,1,ピク　パツ　ドキ　ムク,,,CartoonStims/boxer_shoot_cowboy_r_no.jpg,audio/pikupatsudokimuku.mp3,,,,,,,,,,,,,,,,,,,,,,,,,,,,,,,,,,,,,,,,,,,,,,,,,,,,,,,,,,,,,,,,,,,,,
,,,,,,,,,R_3r39WA2EXNNvc9S,2022-09-01_20h38.17.137,jpn_C02,2022.1.2,MacIntel,58.82352941,,,space,1.446,0,8,8,39,1,ピク　プミ　ルピン　シド,,,CartoonStims/burglar_punch_artist_r_no.jpg,audio/pikupumilupinsido.mp3,,,,,,,,,,,,,,,,,,,,,,,,,,,,,,,,,,,,,,,,,,,,,,,,,,,,,,,,,,,,,,,,,,,,,
,,,,,,,,,R_3r39WA2EXNNvc9S,2022-09-01_20h38.17.137,jpn_C02,2022.1.2,MacIntel,58.82352941,,,space,1.05,0,9,9,1,1,ピク　セル　シド　ホレト,,,CartoonStims/artist_kick_chef_r_no.jpg,audio/pikuserusidohoreto.mp3,,,,,,,,,,,,,,,,,,,,,,,,,,,,,,,,,,,,,,,,,,,,,,,,,,,,,,,,,,,,,,,,,,,,,
,,,,,,,,,R_3r39WA2EXNNvc9S,2022-09-01_20h38.17.137,jpn_C02,2022.1.2,MacIntel,58.82352941,,,space,1.384,0,10,10,31,1,ピク　パツ　ムク　ルピン,,,CartoonStims/cowboy_shoot_burglar_r_no.jpg,audio/pikupatsumukulupin.mp3,,,,,,,,,,,,,,,,,,,,,,,,,,,,,,,,,,,,,,,,,,,,,,,,,,,,,,,,,,,,,,,,,,,,,
,,,,,,,,,R_3r39WA2EXNNvc9S,2022-09-01_20h38.17.137,jpn_C02,2022.1.2,MacIntel,58.82352941,,,space,1.819,0,11,11,45,1,ピク　プミ　ピポ　ムク,,,CartoonStims/doctor_punch_cowboy_r_no.jpg,audio/pikupumipipomuku.mp3,,,,,,,,,,,,,,,,,,,,,,,,,,,,,,,,,,,,,,,,,,,,,,,,,,,,,,,,,,,,,,,,,,,,,
,,,,,,,,,R_3r39WA2EXNNvc9S,2022-09-01_20h38.17.137,jpn_C02,2022.1.2,MacIntel,58.82352941,,,space,0.549,0,12,12,5,1,ピク　セル　ホレト　ピポ,,,CartoonStims/chef_kick_doctor_r_no.jpg,audio/pikuseruhoretopipo.mp3,,,,,,,,,,,,,,,,,,,,,,,,,,,,,,,,,,,,,,,,,,,,,,,,,,,,,,,,,,,,,,,,,,,,,
,,,,,,,,,R_3r39WA2EXNNvc9S,2022-09-01_20h38.17.137,jpn_C02,2022.1.2,MacIntel,58.82352941,,,space,0.374,0,13,13,21,1,ピク　トマ　ピポ　ルピン,,,CartoonStims/doctor_point_burglar_r_no.jpg,audio/pikutomapipolupin.mp3,,,,,,,,,,,,,,,,,,,,,,,,,,,,,,,,,,,,,,,,,,,,,,,,,,,,,,,,,,,,,,,,,,,,,
,,,,,,,,,R_3r39WA2EXNNvc9S,2022-09-01_20h38.17.137,jpn_C02,2022.1.2,MacIntel,58.82352941,,,space,0.672,0,14,14,24,1,ピク　パツ　シド　ムク,,,CartoonStims/artist_shoot_cowboy_r_no.jpg,audio/pikupatsusidomuku.mp3,,,,,,,,,,,,,,,,,,,,,,,,,,,,,,,,,,,,,,,,,,,,,,,,,,,,,,,,,,,,,,,,,,,,,
,,,,,,,,,R_3r39WA2EXNNvc9S,2022-09-01_20h38.17.137,jpn_C02,2022.1.2,MacIntel,58.82352941,,,space,0.302,0,15,15,20,1,ピク　トマ　ピポ　シド,,,CartoonStims/doctor_point_artist_r_no.jpg,audio/pikutomapiposido.mp3,,,,,,,,,,,,,,,,,,,,,,,,,,,,,,,,,,,,,,,,,,,,,,,,,,,,,,,,,,,,,,,,,,,,,
,,,,,,,,,R_3r39WA2EXNNvc9S,2022-09-01_20h38.17.137,jpn_C02,2022.1.2,MacIntel,58.82352941,,,space,0.262,0,16,16,9,1,ピク　セル　ピポ　シド,,,CartoonStims/doctor_kick_artist_r_no.jpg,audio/pikuserupiposido.mp3,,,,,,,,,,,,,,,,,,,,,,,,,,,,,,,,,,,,,,,,,,,,,,,,,,,,,,,,,,,,,,,,,,,,,
,,,,,,,,,R_3r39WA2EXNNvc9S,2022-09-01_20h38.17.137,jpn_C02,2022.1.2,MacIntel,58.82352941,,,space,9.85,0,17,17,42,1,プミ　ピク　ムク　ルピン,,,CartoonStims/cowboy_punch_burglar_r_no.jpg,audio/pumipikumukulupin.mp3,,,,,,,,,,,,,,,,,,,,,,,,,,,,,,,,,,,,,,,,,,,,,,,,,,,,,,,,,,,,,,,,,,,,,
,,,,,,,,,R_3r39WA2EXNNvc9S,2022-09-01_20h38.17.137,jpn_C02,2022.1.2,MacIntel,58.82352941,,,space,1.687,0,18,18,41,1,ピク　プミ　ホレト　ルピン,,,CartoonStims/chef_punch_burglar_r_no.jpg,audio/pikupumihoretolupin.mp3,,,,,,,,,,,,,,,,,,,,,,,,,,,,,,,,,,,,,,,,,,,,,,,,,,,,,,,,,,,,,,,,,,,,,
,,,,,,,,,R_3r39WA2EXNNvc9S,2022-09-01_20h38.17.137,jpn_C02,2022.1.2,MacIntel,58.82352941,,,space,1.251,0,19,19,23,1,トマ　ピク　ドキ　ホレト,,,CartoonStims/boxer_point_chef_r_no.jpg,audio/tomapikudokihoreto.mp3,,,,,,,,,,,,,,,,,,,,,,,,,,,,,,,,,,,,,,,,,,,,,,,,,,,,,,,,,,,,,,,,,,,,,
,,,,,,,,,R_3r39WA2EXNNvc9S,2022-09-01_20h38.17.137,jpn_C02,2022.1.2,MacIntel,58.82352941,,,space,0.784,0,20,20,17,1,ピク　トマ　ホレト　ドキ,,,CartoonStims/chef_point_boxer_r_no.jpg,audio/pikutomahoretodoki.mp3,,,,,,,,,,,,,,,,,,,,,,,,,,,,,,,,,,,,,,,,,,,,,,,,,,,,,,,,,,,,,,,,,,,,,
,,,,,,,,,R_3r39WA2EXNNvc9S,2022-09-01_20h38.17.137,jpn_C02,2022.1.2,MacIntel,58.82352941,,,space,1.414,0,21,21,44,1,プミ　ピク　ピポ　ホレト,,,CartoonStims/doctor_punch_chef_r_no.jpg,audio/pumipikupipohoreto.mp3,,,,,,,,,,,,,,,,,,,,,,,,,,,,,,,,,,,,,,,,,,,,,,,,,,,,,,,,,,,,,,,,,,,,,
,,,,,,,,,R_3r39WA2EXNNvc9S,2022-09-01_20h38.17.137,jpn_C02,2022.1.2,MacIntel,58.82352941,,,space,0.486,0,22,22,30,1,ピク　パツ　ムク　シド,,,CartoonStims/cowboy_shoot_artist_r_no.jpg,audio/pikupatsumukusido.mp3,,,,,,,,,,,,,,,,,,,,,,,,,,,,,,,,,,,,,,,,,,,,,,,,,,,,,,,,,,,,,,,,,,,,,
,,,,,,,,,R_3r39WA2EXNNvc9S,2022-09-01_20h38.17.137,jpn_C02,2022.1.2,MacIntel,58.82352941,,,space,0.617,0,23,23,14,1,ピク　トマ　ルピン　ムク,,,CartoonStims/burglar_point_cowboy_r_no.jpg,audio/pikutomalupinmuku.mp3,,,,,,,,,,,,,,,,,,,,,,,,,,,,,,,,,,,,,,,,,,,,,,,,,,,,,,,,,,,,,,,,,,,,,
,,,,,,,,,R_3r39WA2EXNNvc9S,2022-09-01_20h38.17.137,jpn_C02,2022.1.2,MacIntel,58.82352941,,,space,1.85,0,24,24,12,1,ピク　トマ　シド　ホレト,,,CartoonStims/artist_point_chef_r_no.jpg,audio/pikutomasidohoreto.mp3,,,,,,,,,,,,,,,,,,,,,,,,,,,,,,,,,,,,,,,,,,,,,,,,,,,,,,,,,,,,,,,,,,,,,
,,,,,,,,,R_3r39WA2EXNNvc9S,2022-09-01_20h38.17.137,jpn_C02,2022.1.2,MacIntel,58.82352941,,,space,1.128,0,25,25,19,1,トマ　ピク　ムク　シド,,,CartoonStims/cowboy_point_artist_r_no.jpg,audio/tomapikumukusido.mp3,,,,,,,,,,,,,,,,,,,,,,,,,,,,,,,,,,,,,,,,,,,,,,,,,,,,,,,,,,,,,,,,,,,,,
,,,,,,,,,R_3r39WA2EXNNvc9S,2022-09-01_20h38.17.137,jpn_C02,2022.1.2,MacIntel,58.82352941,,,space,0.584,0,26,26,0,1,セル　ピク　シド　ルピン,,,CartoonStims/artist_kick_burglar_r_no.jpg,audio/serupikusidolupin.mp3,,,,,,,,,,,,,,,,,,,,,,,,,,,,,,,,,,,,,,,,,,,,,,,,,,,,,,,,,,,,,,,,,,,,,
,,,,,,,,,R_3r39WA2EXNNvc9S,2022-09-01_20h38.17.137,jpn_C02,2022.1.2,MacIntel,58.82352941,,,space,0.5,0,27,27,33,1,ピク　パツ　ピポ　ホレト,,,CartoonStims/doctor_shoot_chef_r_no.jpg,audio/pikupatsupipohoreto.mp3,,,,,,,,,,,,,,,,,,,,,,,,,,,,,,,,,,,,,,,,,,,,,,,,,,,,,,,,,,,,,,,,,,,,,
,,,,,,,,,R_3r39WA2EXNNvc9S,2022-09-01_20h38.17.137,jpn_C02,2022.1.2,MacIntel,58.82352941,,,space,0.52,0,28,28,2,1,ピク　セル　ルピン　ホレト,,,CartoonStims/burglar_kick_chef_r_no.jpg,audio/pikuserulupinhoreto.mp3,,,,,,,,,,,,,,,,,,,,,,,,,,,,,,,,,,,,,,,,,,,,,,,,,,,,,,,,,,,,,,,,,,,,,
,,,,,,,,,R_3r39WA2EXNNvc9S,2022-09-01_20h38.17.137,jpn_C02,2022.1.2,MacIntel,58.82352941,,,space,0.849,0,29,29,36,1,ピク　プミ　シド　ピポ,,,CartoonStims/artist_punch_doctor_r_no.jpg,audio/pikupumisidopipo.mp3,,,,,,,,,,,,,,,,,,,,,,,,,,,,,,,,,,,,,,,,,,,,,,,,,,,,,,,,,,,,,,,,,,,,,
,,,,,,,,,R_3r39WA2EXNNvc9S,2022-09-01_20h38.17.137,jpn_C02,2022.1.2,MacIntel,58.82352941,,,space,0.712,0,30,30,22,1,ピク　トマ　ドキ　ルピン,,,CartoonStims/boxer_point_burglar_r_no.jpg,audio/pikutomadokilupin.mp3,,,,,,,,,,,,,,,,,,,,,,,,,,,,,,,,,,,,,,,,,,,,,,,,,,,,,,,,,,,,,,,,,,,,,
,,,,,,,,,R_3r39WA2EXNNvc9S,2022-09-01_20h38.17.137,jpn_C02,2022.1.2,MacIntel,58.82352941,,,space,0.529,0,31,31,26,1,ピク　パツ　ルピン　ピポ,,,CartoonStims/burglar_shoot_doctor_r_no.jpg,audio/pikupatsulupinpipo.mp3,,,,,,,,,,,,,,,,,,,,,,,,,,,,,,,,,,,,,,,,,,,,,,,,,,,,,,,,,,,,,,,,,,,,,
,,,,,,,,,R_3r39WA2EXNNvc9S,2022-09-01_20h38.17.137,jpn_C02,2022.1.2,MacIntel,58.82352941,,,space,0.545,0,32,32,3,1,ピク　セル　ルピン　ムク,,,CartoonStims/burglar_kick_cowboy_r_no.jpg,audio/pikuserulupinmuku.mp3,,,,,,,,,,,,,,,,,,,,,,,,,,,,,,,,,,,,,,,,,,,,,,,,,,,,,,,,,,,,,,,,,,,,,
,,,,,,,,,R_3r39WA2EXNNvc9S,2022-09-01_20h38.17.137,jpn_C02,2022.1.2,MacIntel,58.82352941,,,space,0.662,0,33,33,11,1,ピク　セル　ドキ　ルピン,,,CartoonStims/boxer_kick_burglar_r_no.jpg,audio/pikuserudokilupin.mp3,,,,,,,,,,,,,,,,,,,,,,,,,,,,,,,,,,,,,,,,,,,,,,,,,,,,,,,,,,,,,,,,,,,,,
,,,,,,,,,R_3r39WA2EXNNvc9S,2022-09-01_20h38.17.137,jpn_C02,2022.1.2,MacIntel,58.82352941,,,space,0.417,0,34,34,10,1,ピク　セル　ドキ　シド,,,CartoonStims/boxer_kick_artist_r_no.jpg,audio/pikuserudokisido.mp3,,,,,,,,,,,,,,,,,,,,,,,,,,,,,,,,,,,,,,,,,,,,,,,,,,,,,,,,,,,,,,,,,,,,,
,,,,,,,,,R_3r39WA2EXNNvc9S,2022-09-01_20h38.17.137,jpn_C02,2022.1.2,MacIntel,58.82352941,,,space,0.951,0,35,35,4,1,セル　ピク　ホレト　ムク,,,CartoonStims/chef_kick_cowboy_r_no.jpg,audio/serupikuhoretomuku.mp3,,,,,,,,,,,,,,,,,,,,,,,,,,,,,,,,,,,,,,,,,,,,,,,,,,,,,,,,,,,,,,,,,,,,,
,,,,,,,,,R_3r39WA2EXNNvc9S,2022-09-01_20h38.17.137,jpn_C02,2022.1.2,MacIntel,58.82352941,,,space,0.694,0,36,36,18,1,ピク　トマ　ムク　ドキ,,,CartoonStims/cowboy_point_boxer_r_no.jpg,audio/pikutomamukudoki.mp3,,,,,,,,,,,,,,,,,,,,,,,,,,,,,,,,,,,,,,,,,,,,,,,,,,,,,,,,,,,,,,,,,,,,,
,,,,,,,,,R_3r39WA2EXNNvc9S,2022-09-01_20h38.17.137,jpn_C02,2022.1.2,MacIntel,58.82352941,,,space,0.36,0,37,37,37,1,ピク　プミ　シド　ドキ,,,CartoonStims/artist_punch_boxer_r_no.jpg,audio/pikupumisidodoki.mp3,,,,,,,,,,,,,,,,,,,,,,,,,,,,,,,,,,,,,,,,,,,,,,,,,,,,,,,,,,,,,,,,,,,,,
,,,,,,,,,R_3r39WA2EXNNvc9S,2022-09-01_20h38.17.137,jpn_C02,2022.1.2,MacIntel,58.82352941,,,space,0.352,0,38,38,34,1,ピク　パツ　ドキ　ホレト,,,CartoonStims/boxer_shoot_chef_r_no.jpg,audio/pikupatsudokihoreto.mp3,,,,,,,,,,,,,,,,,,,,,,,,,,,,,,,,,,,,,,,,,,,,,,,,,,,,,,,,,,,,,,,,,,,,,
,,,,,,,,,R_3r39WA2EXNNvc9S,2022-09-01_20h38.17.137,jpn_C02,2022.1.2,MacIntel,58.82352941,,,space,0.334,0,39,39,7,1,ピク　セル　ムク　ドキ,,,CartoonStims/cowboy_kick_boxer_r_no.jpg,audio/pikuserumukudoki.mp3,,,,,,,,,,,,,,,,,,,,,,,,,,,,,,,,,,,,,,,,,,,,,,,,,,,,,,,,,,,,,,,,,,,,,
,,,,,,,,,R_3r39WA2EXNNvc9S,2022-09-01_20h38.17.137,jpn_C02,2022.1.2,MacIntel,58.82352941,,,space,0.469,0,40,40,32,1,ピク　パツ　ピポ　ルピン,,,CartoonStims/doctor_shoot_burglar_r_no.jpg,audio/pikupatsupipolupin.mp3,,,,,,,,,,,,,,,,,,,,,,,,,,,,,,,,,,,,,,,,,,,,,,,,,,,,,,,,,,,,,,,,,,,,,
,,,,,,,,,R_3r39WA2EXNNvc9S,2022-09-01_20h38.17.137,jpn_C02,2022.1.2,MacIntel,58.82352941,,,space,0.574,0,41,41,25,1,パツ　ピク　シド　ピポ,,,CartoonStims/artist_shoot_doctor_r_no.jpg,audio/patsupikusidopipo.mp3,,,,,,,,,,,,,,,,,,,,,,,,,,,,,,,,,,,,,,,,,,,,,,,,,,,,,,,,,,,,,,,,,,,,,
,,,,,,,,,R_3r39WA2EXNNvc9S,2022-09-01_20h38.17.137,jpn_C02,2022.1.2,MacIntel,58.82352941,,,space,0.602,0,42,42,47,1,ピク　プミ　ドキ　ピポ,,,CartoonStims/boxer_punch_doctor_r_no.jpg,audio/pikupumidokipipo.mp3,,,,,,,,,,,,,,,,,,,,,,,,,,,,,,,,,,,,,,,,,,,,,,,,,,,,,,,,,,,,,,,,,,,,,
,,,,,,,,,R_3r39WA2EXNNvc9S,2022-09-01_20h38.17.137,jpn_C02,2022.1.2,MacIntel,58.82352941,,,space,0.516,0,43,43,13,1,ピク　トマ　シド　ムク,,,CartoonStims/artist_point_cowboy_r_no.jpg,audio/pikutomasidomuku.mp3,,,,,,,,,,,,,,,,,,,,,,,,,,,,,,,,,,,,,,,,,,,,,,,,,,,,,,,,,,,,,,,,,,,,,
,,,,,,,,,R_3r39WA2EXNNvc9S,2022-09-01_20h38.17.137,jpn_C02,2022.1.2,MacIntel,58.82352941,,,space,0.55,0,44,44,29,1,パツ　ピク　ホレト　シド,,,CartoonStims/chef_shoot_artist_r_no.jpg,audio/patsupikuhoretosido.mp3,,,,,,,,,,,,,,,,,,,,,,,,,,,,,,,,,,,,,,,,,,,,,,,,,,,,,,,,,,,,,,,,,,,,,
,,,,,,,,,R_3r39WA2EXNNvc9S,2022-09-01_20h38.17.137,jpn_C02,2022.1.2,MacIntel,58.82352941,,,space,0.317,0,45,45,16,1,ピク　トマ　ホレト　ピポ,,,CartoonStims/chef_point_doctor_r_no.jpg,audio/pikutomahoretopipo.mp3,,,,,,,,,,,,,,,,,,,,,,,,,,,,,,,,,,,,,,,,,,,,,,,,,,,,,,,,,,,,,,,,,,,,,
,,,,,,,,,R_3r39WA2EXNNvc9S,2022-09-01_20h38.17.137,jpn_C02,2022.1.2,MacIntel,58.82352941,,,space,0.651,0,46,46,38,1,ピク　プミ　ルピン　ドキ,,,CartoonStims/burglar_punch_boxer_r_no.jpg,audio/pikupumilupindoki.mp3,,,,,,,,,,,,,,,,,,,,,,,,,,,,,,,,,,,,,,,,,,,,,,,,,,,,,,,,,,,,,,,,,,,,,
,,,,,,,,,R_3r39WA2EXNNvc9S,2022-09-01_20h38.17.137,jpn_C02,2022.1.2,MacIntel,58.82352941,,,space,0.485,0,47,47,15,1,トマ　ピク　ルピン　ピポ,,,CartoonStims/burglar_point_doctor_r_no.jpg,audio/tomapikulupinpipo.mp3,,,,,,,,,,,,,,,,,,,,,,,,,,,,,,,,,,,,,,,,,,,,,,,,,,,,,,,,,,,,,,,,,,,,,
,,,,,,,,,R_3r39WA2EXNNvc9S,2022-09-01_20h38.17.137,jpn_C02,2022.1.2,MacIntel,58.82352941,,,,,,,,,,,,,,,space,0.8,left,0,2.964,,,,,,,,,,,,,,,,,,,,,,,,,,,,,,,,,,,,,,,,,,,,,,,,,,,,,,,,,0,0,0,0,1,,,
,,,,,,,,,R_3r39WA2EXNNvc9S,2022-09-01_20h38.17.137,jpn_C02,2022.1.2,MacIntel,58.82352941,,,,,,,,,,,,,,,,,,,,,,,,,0,0,0,5,1,CartoonStims/boxer_kick_cowboy_r.jpg,ピク　セル　ドキ　ムク,CartoonStims/boxer_punch_cowboy_r.jpg,right,CartoonStims/boxer_punch_cowboy_r.jpg,audio/pikuserudokimuku.mp3,"残念！ こちらが正しい画像です。

否定文は起きていないことを示しているのを思い出してください。",,,,,,,,,,,,,,,,,,,,,,,,,,,,,,,,,,,,,,,,,,,,,,,
,,,,,,,,,R_3r39WA2EXNNvc9S,2022-09-01_20h38.17.137,jpn_C02,2022.1.2,MacIntel,58.82352941,,,,,,,,,,,,,,,,,left,1,6.515,,,,,,,,,,,,,,,,,,0,0,0,0,1,,,,,,,,,,,,,,,,,,,,,,,,,,,,,,,,,,,,,,,,,,
,,,,,,,,,R_3r39WA2EXNNvc9S,2022-09-01_20h38.17.137,jpn_C02,2022.1.2,MacIntel,58.82352941,,,,,,,,,,,,,,,,,,,,,,,,,0,1,1,0,1,CartoonStims/artist_shoot_burglar_r.jpg,プミ　ピク　シド　ルピン,CartoonStims/artist_punch_burglar_r.jpg,left,CartoonStims/artist_shoot_burglar_r.jpg,audio/pumipikusidolupin.mp3,"残念！ こちらが正しい画像です。

否定文は起きていないことを示しているのを思い出してください。",,,,,,,,,,,,,,,,,,,,,,,,,,,,,,,,,,,,,,,,,,,,,,,
,,,,,,,,,R_3r39WA2EXNNvc9S,2022-09-01_20h38.17.137,jpn_C02,2022.1.2,MacIntel,58.82352941,,,,,,,,,,,,,,,,,left,1,3.981,,,,,,,,,,,,,,,,,,0,0,0,0,1,,,,,,,,,,,,,,,,,,,,,,,,,,,,,,,,,,,,,,,,,,
,,,,,,,,,R_3r39WA2EXNNvc9S,2022-09-01_20h38.17.137,jpn_C02,2022.1.2,MacIntel,58.82352941,,,,,,,,,,,,,,,,,,,,,,,,,0,2,2,10,1,CartoonStims/doctor_punch_cowboy_r.jpg,パツ　ピク　ピポ　ムク,CartoonStims/doctor_shoot_cowboy_r.jpg,left,CartoonStims/doctor_punch_cowboy_r.jpg,audio/patsupikupipomuku.mp3,"残念！ こちらが正しい画像です。

否定文は起きていないことを示しているのを思い出してください。",,,,,,,,,,,,,,,,,,,,,,,,,,,,,,,,,,,,,,,,,,,,,,,
,,,,,,,,,R_3r39WA2EXNNvc9S,2022-09-01_20h38.17.137,jpn_C02,2022.1.2,MacIntel,58.82352941,,,,,,,,,,,,,,,,,left,1,1.725,,,,,,,,,,,,,,,,,,0,0,0,0,1,,,,,,,,,,,,,,,,,,,,,,,,,,,,,,,,,,,,,,,,,,
,,,,,,,,,R_3r39WA2EXNNvc9S,2022-09-01_20h38.17.137,jpn_C02,2022.1.2,MacIntel,58.82352941,,,,,,,,,,,,,,,,,,,,,,,,,0,3,3,4,1,CartoonStims/burglar_shoot_doctor_r.jpg,ピク　セル　ルピン　ピポ,CartoonStims/burglar_kick_doctor_r.jpg,left,CartoonStims/burglar_shoot_doctor_r.jpg,audio/pikuserulupinpipo.mp3,"残念！ こちらが正しい画像です。

否定文は起きていないことを示しているのを思い出してください。",,,,,,,,,,,,,,,,,,,,,,,,,,,,,,,,,,,,,,,,,,,,,,,
,,,,,,,,,R_3r39WA2EXNNvc9S,2022-09-01_20h38.17.137,jpn_C02,2022.1.2,MacIntel,58.82352941,,,,,,,,,,,,,,,,,right,1,4.936,0,0,0,0,1,,,,,,,,,,,,,,,,,,,,,,,,,,,,,,,,,,,,,,,,,,,,,,,,,,,,,,,,,,,
,,,,,,,,,R_3r39WA2EXNNvc9S,2022-09-01_20h38.17.137,jpn_C02,2022.1.2,MacIntel,58.82352941,,,,,,,,,,,,,,,,,,,,,,,,,0,4,4,9,1,CartoonStims/boxer_shoot_doctor_r.jpg,ピク　パツ　ドキ　ピポ,CartoonStims/boxer_point_doctor_r.jpg,right,CartoonStims/boxer_point_doctor_r.jpg,audio/pikupatsudokipipo.mp3,"残念！ こちらが正しい画像です。

否定文は起きていないことを示しているのを思い出してください。",,,,,,,,,,,,,,,,,,,,,,,,,,,,,,,,,,,,,,,,,,,,,,,
,,,,,,,,,R_3r39WA2EXNNvc9S,2022-09-01_20h38.17.137,jpn_C02,2022.1.2,MacIntel,58.82352941,,,,,,,,,,,,,,,,,right,1,1.698,0,0,0,0,1,,,,,,,,,,,,,,,,,,,,,,,,,,,,,,,,,,,,,,,,,,,,,,,,,,,,,,,,,,,
,,,,,,,,,R_3r39WA2EXNNvc9S,2022-09-01_20h38.17.137,jpn_C02,2022.1.2,MacIntel,58.82352941,,,,,,,,,,,,,,,,,,,,,,,,,0,5,5,7,1,CartoonStims/cowboy_point_chef_r.jpg,トマ　ピク　ムク　ホレト,CartoonStims/cowboy_kick_chef_r.jpg,right,CartoonStims/cowboy_kick_chef_r.jpg,audio/tomapikumukuhoreto.mp3,"残念！ こちらが正しい画像です。

否定文は起きていないことを示しているのを思い出してください。",,,,,,,,,,,,,,,,,,,,,,,,,,,,,,,,,,,,,,,,,,,,,,,
,,,,,,,,,R_3r39WA2EXNNvc9S,2022-09-01_20h38.17.137,jpn_C02,2022.1.2,MacIntel,58.82352941,,,,,,,,,,,,,,,,,left,1,1.002,,,,,,,,,,,,,,,,,,0,0,0,0,1,,,,,,,,,,,,,,,,,,,,,,,,,,,,,,,,,,,,,,,,,,
,,,,,,,,,R_3r39WA2EXNNvc9S,2022-09-01_20h38.17.137,jpn_C02,2022.1.2,MacIntel,58.82352941,,,,,,,,,,,,,,,,,,,,,,,,,0,6,6,8,1,CartoonStims/burglar_punch_artist_r.jpg,ピク　トマ　ルピン　シド,CartoonStims/burglar_point_artist_r.jpg,left,CartoonStims/burglar_punch_artist_r.jpg,audio/pikutomalupinsido.mp3,"残念！ こちらが正しい画像です。

否定文は起きていないことを示しているのを思い出してください。",,,,,,,,,,,,,,,,,,,,,,,,,,,,,,,,,,,,,,,,,,,,,,,
,,,,,,,,,R_3r39WA2EXNNvc9S,2022-09-01_20h38.17.137,jpn_C02,2022.1.2,MacIntel,58.82352941,,,,,,,,,,,,,,,,,left,1,0.817,,,,,,,,,,,,,,,,,,0,0,0,0,1,,,,,,,,,,,,,,,,,,,,,,,,,,,,,,,,,,,,,,,,,,
,,,,,,,,,R_3r39WA2EXNNvc9S,2022-09-01_20h38.17.137,jpn_C02,2022.1.2,MacIntel,58.82352941,,,,,,,,,,,,,,,,,,,,,,,,,0,7,7,6,1,CartoonStims/artist_shoot_boxer_r.jpg,ピク　トマ　シド　ドキ,CartoonStims/artist_point_boxer_r.jpg,left,CartoonStims/artist_shoot_boxer_r.jpg,audio/pikutomasidodoki.mp3,"残念！ こちらが正しい画像です。

否定文は起きていないことを示しているのを思い出してください。",,,,,,,,,,,,,,,,,,,,,,,,,,,,,,,,,,,,,,,,,,,,,,,
,,,,,,,,,R_3r39WA2EXNNvc9S,2022-09-01_20h38.17.137,jpn_C02,2022.1.2,MacIntel,58.82352941,,,,,,,,,,,,,,,,,left,1,2.917,,,,,,,,,,,,,,,,,,0,0,0,0,1,,,,,,,,,,,,,,,,,,,,,,,,,,,,,,,,,,,,,,,,,,
,,,,,,,,,R_3r39WA2EXNNvc9S,2022-09-01_20h38.17.137,jpn_C02,2022.1.2,MacIntel,58.82352941,,,,,,,,,,,,,,,,,,,,,,,,,0,8,8,2,1,CartoonStims/doctor_point_boxer_r.jpg,ピク　プミ　ピポ　ドキ,CartoonStims/doctor_punch_boxer_r.jpg,left,CartoonStims/doctor_point_boxer_r.jpg,audio/pikupumipipodoki.mp3,"残念！ こちらが正しい画像です。

否定文は起きていないことを示しているのを思い出してください。",,,,,,,,,,,,,,,,,,,,,,,,,,,,,,,,,,,,,,,,,,,,,,,
,,,,,,,,,R_3r39WA2EXNNvc9S,2022-09-01_20h38.17.137,jpn_C02,2022.1.2,MacIntel,58.82352941,,,,,,,,,,,,,,,,,right,1,0.734,0,0,0,0,1,,,,,,,,,,,,,,,,,,,,,,,,,,,,,,,,,,,,,,,,,,,,,,,,,,,,,,,,,,,
,,,,,,,,,R_3r39WA2EXNNvc9S,2022-09-01_20h38.17.137,jpn_C02,2022.1.2,MacIntel,58.82352941,,,,,,,,,,,,,,,,,,,,,,,,,0,9,9,3,1,CartoonStims/chef_kick_artist_r.jpg,セル　ピク　ホレト　シド,CartoonStims/chef_point_artist_r.jpg,right,CartoonStims/chef_point_artist_r.jpg,audio/serupikuhoretosido.mp3,"残念！ こちらが正しい画像です。

否定文は起きていないことを示しているのを思い出してください。",,,,,,,,,,,,,,,,,,,,,,,,,,,,,,,,,,,,,,,,,,,,,,,
,,,,,,,,,R_3r39WA2EXNNvc9S,2022-09-01_20h38.17.137,jpn_C02,2022.1.2,MacIntel,58.82352941,,,,,,,,,,,,,,,,,right,1,4.224,0,0,0,0,1,,,,,,,,,,,,,,,,,,,,,,,,,,,,,,,,,,,,,,,,,,,,,,,,,,,,,,,,,,,
,,,,,,,,,R_3r39WA2EXNNvc9S,2022-09-01_20h38.17.137,jpn_C02,2022.1.2,MacIntel,58.82352941,,,,,,,,,,,,,,,,,,,,,,,,,0,10,10,1,1,CartoonStims/chef_punch_cowboy_r.jpg,ピク　プミ　ホレト　ムク,CartoonStims/chef_kick_cowboy_r.jpg,right,CartoonStims/chef_kick_cowboy_r.jpg,audio/pikupumihoretomuku.mp3,"残念！ こちらが正しい画像です。

否定文は起きていないことを示しているのを思い出してください。",,,,,,,,,,,,,,,,,,,,,,,,,,,,,,,,,,,,,,,,,,,,,,,
,,,,,,,,,R_3r39WA2EXNNvc9S,2022-09-01_20h38.17.137,jpn_C02,2022.1.2,MacIntel,58.82352941,,,,,,,,,,,,,,,,,right,1,1.318,0,0,0,0,1,,,,,,,,,,,,,,,,,,,,,,,,,,,,,,,,,,,,,,,,,,,,,,,,,,,,,,,,,,,
,,,,,,,,,R_3r39WA2EXNNvc9S,2022-09-01_20h38.17.137,jpn_C02,2022.1.2,MacIntel,58.82352941,,,,,,,,,,,,,,,,,,,,,,,,,0,11,11,11,1,CartoonStims/chef_shoot_burglar_r.jpg,ピク　パツ　ホレト　ルピン,CartoonStims/chef_kick_burglar_r.jpg,right,CartoonStims/chef_kick_burglar_r.jpg,audio/pikupatsuhoretolupin.mp3,"残念！ こちらが正しい画像です。

否定文は起きていないことを示しているのを思い出してください。",,,,,,,,,,,,,,,,,,,,,,,,,,,,,,,,,,,,,,,,,,,,,,,
,,,,,,,,,R_3r39WA2EXNNvc9S,2022-09-01_20h38.17.137,jpn_C02,2022.1.2,MacIntel,58.82352941,,,,,,,,,,,,,CartoonStims/doctor_kick_chef_r.jpg,,,,,,,,,,,,,,,,,,,,,,,,,,,,,space,3.418,セル　シド　ホレト,right,16.549,,,,,,0,0,0,25,1,,,,,,,,,,,,,,,,,,,,,,,,,セル　ピポ　ホレト,セル　ピポ　ホレト,0
,,,,,,,,,R_3r39WA2EXNNvc9S,2022-09-01_20h38.17.137,jpn_C02,2022.1.2,MacIntel,58.82352941,,,,,,,,,,,,,CartoonStims/doctor_punch_boxer_r.jpg,,,,,,,,,,,,,,,,,,,,,,,,,,,,,,,プミ　ピポ　ドキ,right,20.212,,,,,,0,1,1,34,1,,,,,,,,,,,,,,,,,,,,,,,,,プミ　ピポ　ドキ,プミ　ピポ　ドキ,0
,,,,,,,,,R_3r39WA2EXNNvc9S,2022-09-01_20h38.17.137,jpn_C02,2022.1.2,MacIntel,58.82352941,,,,,,,,,,,,,CartoonStims/cowboy_kick_burglar_r.jpg,,,,,,,,,,,,,,,,,,,,,,,,,,,,,,,セル　ムク　ルピン,right,13.712,,,,,,0,2,2,24,1,,,,,,,,,,,,,,,,,,,,,,,,,セル　ムク　ルピン,セル　ムク　ルピン,0
,,,,,,,,,R_3r39WA2EXNNvc9S,2022-09-01_20h38.17.137,jpn_C02,2022.1.2,MacIntel,58.82352941,,,,,,,,,,,,,CartoonStims/doctor_punch_burglar_r_no.jpg,,,,,,,,,,,,,,,,,,,,,,,,,,,,,,,ピク　プミ　ピポ　ルピン,right,22.923,,,,,,0,3,3,22,1,,,,,,,,,,,,,,,,,,,,,,,,,ピク　プミ　ピポ　ルピン,プミ　ピク　ピポ　ルピン,1
,,,,,,,,,R_3r39WA2EXNNvc9S,2022-09-01_20h38.17.137,jpn_C02,2022.1.2,MacIntel,58.82352941,,,,,,,,,,,,,CartoonStims/chef_point_cowboy_r_no.jpg,,,,,,,,,,,,,,,,,,,,,,,,,,,,,,,ピク　トマ　ホレト　ムク,right,17.229,,,,,,0,4,4,8,1,,,,,,,,,,,,,,,,,,,,,,,,,ピク　トマ　ホレト　ムク,トマ　ピク　ホレト　ムク,1
,,,,,,,,,R_3r39WA2EXNNvc9S,2022-09-01_20h38.17.137,jpn_C02,2022.1.2,MacIntel,58.82352941,,,,,,,,,,,,,CartoonStims/boxer_shoot_burglar_r_no.jpg,,,,,,,,,,,,,,,,,,,,,,,,,,,,,,,ピク　パツ　ドキ　ルピン,right,17.551,,,,,,0,5,5,17,1,,,,,,,,,,,,,,,,,,,,,,,,,ピク　パツ　ドキ　ルピン,パツ　ピク　ドキ　ルピン,1
,,,,,,,,,R_3r39WA2EXNNvc9S,2022-09-01_20h38.17.137,jpn_C02,2022.1.2,MacIntel,58.82352941,,,,,,,,,,,,,CartoonStims/burglar_shoot_cowboy_r_no.jpg,,,,,,,,,,,,,,,,,,,,,,,,,,,,,,,ピク　パツ　ルピン　ムク,right,15.394,,,,,,0,6,6,13,1,,,,,,,,,,,,,,,,,,,,,,,,,ピク　パツ　ルピン　ムク,パツ　ピク　ルピン　ムク,1
,,,,,,,,,R_3r39WA2EXNNvc9S,2022-09-01_20h38.17.137,jpn_C02,2022.1.2,MacIntel,58.82352941,,,,,,,,,,,,,CartoonStims/boxer_kick_cowboy_r.jpg,,,,,,,,,,,,,,,,,,,,,,,,,,,,,,,セル　ドキ　ムク,right,7.979,,,,,,0,7,7,26,1,,,,,,,,,,,,,,,,,,,,,,,,,セル　ドキ　ムク,セル　ドキ　ムク,0
,,,,,,,,,R_3r39WA2EXNNvc9S,2022-09-01_20h38.17.137,jpn_C02,2022.1.2,MacIntel,58.82352941,,,,,,,,,,,,,CartoonStims/cowboy_shoot_boxer_r_no.jpg,,,,,,,,,,,,,,,,,,,,,,,,,,,,,,,ピク　パツ　ムク　ドキ,right,15.943,,,,,,0,8,8,15,1,,,,,,,,,,,,,,,,,,,,,,,,,ピク　パツ　ムク　ドキ,パツ　ピク　ムク　ドキ,1
,,,,,,,,,R_3r39WA2EXNNvc9S,2022-09-01_20h38.17.137,jpn_C02,2022.1.2,MacIntel,58.82352941,,,,,,,,,,,,,CartoonStims/artist_point_boxer_r.jpg,,,,,,,,,,,,,,,,,,,,,,,,,,,,,,,トマ　シド　ドキ,right,10.447,,,,,,0,9,9,27,1,,,,,,,,,,,,,,,,,,,,,,,,,トマ　シド　ドキ,トマ　シド　ドキ,0
,,,,,,,,,R_3r39WA2EXNNvc9S,2022-09-01_20h38.17.137,jpn_C02,2022.1.2,MacIntel,58.82352941,,,,,,,,,,,,,CartoonStims/cowboy_kick_chef_r_no.jpg,,,,,,,,,,,,,,,,,,,,,,,,,,,,,,,ピク　セル　ムク　ホレト,right,16.326,,,,,,0,10,10,3,1,,,,,,,,,,,,,,,,,,,,,,,,,ピク　セル　ムク　ホレト,セル　ピク　ムク　ホレト,1
,,,,,,,,,R_3r39WA2EXNNvc9S,2022-09-01_20h38.17.137,jpn_C02,2022.1.2,MacIntel,58.82352941,,,,,,,,,,,,,CartoonStims/burglar_point_chef_r_no.jpg,,,,,,,,,,,,,,,,,,,,,,,,,,,,,,,ピク　トマ　ルピン　ホレト,right,19.742,,,,,,0,11,11,7,1,,,,,,,,,,,,,,,,,,,,,,,,,ピク　トマ　ルピン　ホレト,トマ　ピク　ルピン　ホレト,1
,,,,,,,,,R_3r39WA2EXNNvc9S,2022-09-01_20h38.17.137,jpn_C02,2022.1.2,MacIntel,58.82352941,,,,,,,,,,,,,CartoonStims/chef_point_burglar_r.jpg,,,,,,,,,,,,,,,,,,,,,,,,,,,,,,,トマ　ホレト　ルピン,right,12.562,,,,,,0,12,12,29,1,,,,,,,,,,,,,,,,,,,,,,,,,トマ　ホレト　ルピン,トマ　ホレト　ルピン,0
,,,,,,,,,R_3r39WA2EXNNvc9S,2022-09-01_20h38.17.137,jpn_C02,2022.1.2,MacIntel,58.82352941,,,,,,,,,,,,,CartoonStims/burglar_punch_doctor_r_no.jpg,,,,,,,,,,,,,,,,,,,,,,,,,,,,,,,ピク　プミ　ルピン　ピポ,right,23.469,,,,,,0,13,13,19,1,,,,,,,,,,,,,,,,,,,,,,,,,ピク　プミ　ルピン　ピポ,プミ　ピク　ルピン　ピポ,1
,,,,,,,,,R_3r39WA2EXNNvc9S,2022-09-01_20h38.17.137,jpn_C02,2022.1.2,MacIntel,58.82352941,,,,,,,,,,,,,CartoonStims/artist_punch_burglar_r.jpg,,,,,,,,,,,,,,,,,,,,,,,,,,,,,,,プミ　シド　ルピン,right,12.645,,,,,,0,14,14,33,1,,,,,,,,,,,,,,,,,,,,,,,,,プミ　シド　ルピン,プミ　シド　ルピン,0
,,,,,,,,,R_3r39WA2EXNNvc9S,2022-09-01_20h38.17.137,jpn_C02,2022.1.2,MacIntel,58.82352941,,,,,,,,,,,,,CartoonStims/boxer_kick_doctor_r_no.jpg,,,,,,,,,,,,,,,,,,,,,,,,,,,,,,,ピク　セル　ドキ　シド,right,13.445,,,,,,0,15,15,5,1,,,,,,,,,,,,,,,,,,,,,,,,,ピク　セル　ドキ　ピポ,セル　ピク　ドキ　ピポ,1
,,,,,,,,,R_3r39WA2EXNNvc9S,2022-09-01_20h38.17.137,jpn_C02,2022.1.2,MacIntel,58.82352941,,,,,,,,,,,,,CartoonStims/burglar_point_artist_r.jpg,,,,,,,,,,,,,,,,,,,,,,,,,,,,,,,トマ　ルピン　シド,right,10.914,,,,,,0,16,16,28,1,,,,,,,,,,,,,,,,,,,,,,,,,トマ　ルピン　シド,トマ　ルピン　シド,0
,,,,,,,,,R_3r39WA2EXNNvc9S,2022-09-01_20h38.17.137,jpn_C02,2022.1.2,MacIntel,58.82352941,,,,,,,,,,,,,CartoonStims/cowboy_point_doctor_r_no.jpg,,,,,,,,,,,,,,,,,,,,,,,,,,,,,,,ピク　トマ　ムク　ピポ,right,15.202,,,,,,0,17,17,9,1,,,,,,,,,,,,,,,,,,,,,,,,,ピク　トマ　ムク　ピポ,トマ　ピク　ムク　ピポ,1
,,,,,,,,,R_3r39WA2EXNNvc9S,2022-09-01_20h38.17.137,jpn_C02,2022.1.2,MacIntel,58.82352941,,,,,,,,,,,,,CartoonStims/boxer_point_artist_r_no.jpg,,,,,,,,,,,,,,,,,,,,,,,,,,,,,,,ピク　トマ　ドキ　シド,right,12.873,,,,,,0,18,18,11,1,,,,,,,,,,,,,,,,,,,,,,,,,ピク　トマ　ドキ　シド,トマ　ピク　ドキ　シド,1
,,,,,,,,,R_3r39WA2EXNNvc9S,2022-09-01_20h38.17.137,jpn_C02,2022.1.2,MacIntel,58.82352941,,,,,,,,,,,,,CartoonStims/chef_kick_burglar_r_no.jpg,,,,,,,,,,,,,,,,,,,,,,,,,,,,,,,ピク　セル　ホレト　ルピン,right,19.676,,,,,,0,19,19,2,1,,,,,,,,,,,,,,,,,,,,,,,,,ピク　セル　ホレト　ルピン,セル　ピク　ホレト　ルピン,1
,,,,,,,,,R_3r39WA2EXNNvc9S,2022-09-01_20h38.17.137,jpn_C02,2022.1.2,MacIntel,58.82352941,,,,,,,,,,,,,CartoonStims/boxer_punch_artist_r.jpg,,,,,,,,,,,,,,,,,,,,,,,,,,,,,,,プミ　ドキ　シド,right,12.813,,,,,,0,20,20,35,1,,,,,,,,,,,,,,,,,,,,,,,,,プミ　ドキ　シド,プミ　ドキ　シド,0
,,,,,,,,,R_3r39WA2EXNNvc9S,2022-09-01_20h38.17.137,jpn_C02,2022.1.2,MacIntel,58.82352941,,,,,,,,,,,,,CartoonStims/burglar_kick_artist_r_no.jpg,,,,,,,,,,,,,,,,,,,,,,,,,,,,,,,ピク　セル　ルピン　シド,right,11.313,,,,,,0,21,21,1,1,,,,,,,,,,,,,,,,,,,,,,,,,ピク　セル　ルピン　シド,セル　ピク　ルピン　シド,1
,,,,,,,,,R_3r39WA2EXNNvc9S,2022-09-01_20h38.17.137,jpn_C02,2022.1.2,MacIntel,58.82352941,,,,,,,,,,,,,CartoonStims/doctor_point_boxer_r_no.jpg,,,,,,,,,,,,,,,,,,,,,,,,,,,,,,,ピク　トマ　ピポ　ドキ,right,11.454,,,,,,0,22,22,10,1,,,,,,,,,,,,,,,,,,,,,,,,,ピク　トマ　ピポ　ドキ,トマ　ピク　ピポ　ドキ,1
,,,,,,,,,R_3r39WA2EXNNvc9S,2022-09-01_20h38.17.137,jpn_C02,2022.1.2,MacIntel,58.82352941,,,,,,,,,,,,,CartoonStims/doctor_kick_cowboy_r_no.jpg,,,,,,,,,,,,,,,,,,,,,,,,,,,,,,,ピク　セル　シド　ムク,right,14.041,,,,,,0,23,23,4,1,,,,,,,,,,,,,,,,,,,,,,,,,ピク　セル　ピポ　ムク,セル　ピク　ピポ　ムク,1
,,,,,,,,,R_3r39WA2EXNNvc9S,2022-09-01_20h38.17.137,jpn_C02,2022.1.2,MacIntel,58.82352941,,,,,,,,,,,,,CartoonStims/burglar_shoot_chef_r.jpg,,,,,,,,,,,,,,,,,,,,,,,,,,,,,,,ハツ　ルピン　ホレト,right,17.198,,,,,,0,24,24,30,1,,,,,,,,,,,,,,,,,,,,,,,,,パツ　ルピン　ホレト,パツ　ルピン　ホレト,0
,,,,,,,,,R_3r39WA2EXNNvc9S,2022-09-01_20h38.17.137,jpn_C02,2022.1.2,MacIntel,58.82352941,,,,,,,,,,,,,CartoonStims/chef_shoot_cowboy_r.jpg,,,,,,,,,,,,,,,,,,,,,,,,,,,,,,,ハツ　ホレト　ムク,right,12.962,,,,,,0,25,25,31,1,,,,,,,,,,,,,,,,,,,,,,,,,パツ　ホレト　ムク,パツ　ホレト　ムク,0
,,,,,,,,,R_3r39WA2EXNNvc9S,2022-09-01_20h38.17.137,jpn_C02,2022.1.2,MacIntel,58.82352941,,,,,,,,,,,,,CartoonStims/boxer_punch_chef_r_no.jpg,,,,,,,,,,,,,,,,,,,,,,,,,,,,,,,ピク　プミ　ドキ　ホレト,right,20.676,,,,,,0,26,26,23,1,,,,,,,,,,,,,,,,,,,,,,,,,ピク　プミ　ドキ　ホレト,プミ　ピク　ドキ　ホレト,1
,,,,,,,,,R_3r39WA2EXNNvc9S,2022-09-01_20h38.17.137,jpn_C02,2022.1.2,MacIntel,58.82352941,,,,,,,,,,,,,CartoonStims/cowboy_shoot_doctor_r.jpg,,,,,,,,,,,,,,,,,,,,,,,,,,,,,,,ハツ　ムク　ホレト,right,15.016,,,,,,0,27,27,32,1,,,,,,,,,,,,,,,,,,,,,,,,,パツ　ムク　ピポ,パツ　ムク　ピポ,0
,,,,,,,,,R_3r39WA2EXNNvc9S,2022-09-01_20h38.17.137,jpn_C02,2022.1.2,MacIntel,58.82352941,,,,,,,,,,,,,CartoonStims/chef_shoot_doctor_r_no.jpg,,,,,,,,,,,,,,,,,,,,,,,,,,,,,,,ピク　ハツ　ホレト　ピポ,right,17.055,,,,,,0,28,28,14,1,,,,,,,,,,,,,,,,,,,,,,,,,ピク　パツ　ホレト　ピポ,パツ　ピク　ホレト　ピポ,1
,,,,,,,,,R_3r39WA2EXNNvc9S,2022-09-01_20h38.17.137,jpn_C02,2022.1.2,MacIntel,58.82352941,,,,,,,,,,,,,CartoonStims/artist_punch_cowboy_r_no.jpg,,,,,,,,,,,,,,,,,,,,,,,,,,,,,,,ピク　プミ　シド　ムク,right,17.347,,,,,,0,29,29,18,1,,,,,,,,,,,,,,,,,,,,,,,,,ピク　プミ　シド　ムク,プミ　ピク　シド　ムク,1
,,,,,,,,,R_3r39WA2EXNNvc9S,2022-09-01_20h38.17.137,jpn_C02,2022.1.2,MacIntel,58.82352941,,,,,,,,,,,,,CartoonStims/cowboy_punch_artist_r_no.jpg,,,,,,,,,,,,,,,,,,,,,,,,,,,,,,,ピク　プミ　,right,16.157,,,,,,0,30,30,21,1,,,,,,,,,,,,,,,,,,,,,,,,,ピク　プミ　ムク　シド,プミ　ピク　ムク　シド,1
,,,,,,,,,R_3r39WA2EXNNvc9S,2022-09-01_20h38.17.137,jpn_C02,2022.1.2,MacIntel,58.82352941,,,,,,,,,,,,,CartoonStims/artist_kick_boxer_r_no.jpg,,,,,,,,,,,,,,,,,,,,,,,,,,,,,,,,right,0.145,,,,,,0,31,31,0,1,,,,,,,,,,,,,,,,,,,,,,,,,ピク　セル　シド　ドキ,セル　ピク　シド　ドキ,1
,,,,,,,,,R_3r39WA2EXNNvc9S,2022-09-01_20h38.17.137,jpn_C02,2022.1.2,MacIntel,58.82352941,,,,,,,,,,,,,CartoonStims/artist_point_burglar_r_no.jpg,,,,,,,,,,,,,,,,,,,,,,,,,,,,,,,ピク　トマ　シド　ルピン,right,20.362,,,,,,0,32,32,6,1,,,,,,,,,,,,,,,,,,,,,,,,,ピク　トマ　シド　ルピン,トマ　ピク　シド　ルピン,1
,,,,,,,,,R_3r39WA2EXNNvc9S,2022-09-01_20h38.17.137,jpn_C02,2022.1.2,MacIntel,58.82352941,,,,,,,,,,,,,CartoonStims/chef_punch_boxer_r_no.jpg,,,,,,,,,,,,,,,,,,,,,,,,,,,,,,,ピク　プミ　ホレト　ドキ,right,22.427,,,,,,0,33,33,20,1,,,,,,,,,,,,,,,,,,,,,,,,,ピク　プミ　ホレト　ドキ,プミ　ピク　ホレト　ドキ,1
,,,,,,,,,R_3r39WA2EXNNvc9S,2022-09-01_20h38.17.137,jpn_C02,2022.1.2,MacIntel,58.82352941,,,,,,,,,,,,,CartoonStims/doctor_shoot_artist_r_no.jpg,,,,,,,,,,,,,,,,,,,,,,,,,,,,,,,プミ　ハツ　ピポ　シド,right,16.426,,,,,,0,34,34,16,1,,,,,,,,,,,,,,,,,,,,,,,,,ピク　パツ　ピポ　シド,パツ　ピク　ピポ　シド,1
,,,,,,,,,R_3r39WA2EXNNvc9S,2022-09-01_20h38.17.137,jpn_C02,2022.1.2,MacIntel,58.82352941,,,,,,,,,,,,,CartoonStims/artist_shoot_chef_r_no.jpg,,,,,,,,,,,,,,,,,,,,,,,,,,,,,,,プミ　ハツ　シド　ホレト,right,21.369,,,,,,0,35,35,12,1,,,,,,,,,,,,,,,,,,,,,,,,,ピク　パツ　シド　ホレト,パツ　ピク　シド　ホレト,1
,,,,,,,,,R_3r39WA2EXNNvc9S,2022-09-01_20h38.17.137,jpn_C02,2022.1.2,MacIntel,58.82352941,,,,,,,,,,,,,,,,,,,,,,,,,,,,,,,,,,,,,,,,,,,,,,,,,,,,,,,,,,,space,0.431,0,2,2,2,1,NegVCondition.xlsx,"ここではこの言語における否定の文を学習していただきます。引き続き注意して、 聞こえた音を復唱してください。

スペースキーを押してください。",1,NegVFCT.xlsx,ここからクイズが始まります。 スクリーンに表示されるテキストに合うイメージを選んでください。,NegTest.xlsx,1,最後にここまで学んだことをアウトプットしていただきます。 テキストボックスにあるイメージを描写するテキストを入力してください。 このタスクでは、 答え合わせは行いません。,0,これですべての実験が終わりました。 お疲れさまです。 この後はアンケートに答えていただきます。,,,,,,,,