key_resp_instr_a.keys,key_resp_instr_a.rt,key_resp_instr_b.keys,key_resp_instr_b.rt,dummy.thisRepN,dummy.thisTrialN,dummy.thisN,dummy.thisIndex,dummy.ran,participant,date,expName,psychopyVersion,OS,frameRate,key_resp_instr1.keys,key_resp_instr1.rt,key_resp.keys,key_resp.rt,exp_loop.thisRepN,exp_loop.thisTrialN,exp_loop.thisN,exp_loop.thisIndex,exp_loop.ran,Word,English,Flip,Path,Audio,key_resp_instr2.keys,key_resp_instr2.rt,key_resp_fct.keys,key_resp_fct.corr,key_resp_fct.rt,trials_2.thisRepN,trials_2.thisTrialN,trials_2.thisN,trials_2.thisIndex,trials_2.ran,fct_loop.thisRepN,fct_loop.thisTrialN,fct_loop.thisN,fct_loop.thisIndex,fct_loop.ran,left_img,word,right_img,correctans,correct_img,audio,incorrect_feedback,trials.thisRepN,trials.thisTrialN,trials.thisN,trials.thisIndex,trials.ran,key_resp_instr3.keys,key_resp_instr3.rt,textbox.text,key_resp_2.keys,key_resp_2.rt,fb_yn.thisRepN,fb_yn.thisTrialN,fb_yn.thisN,fb_yn.thisIndex,fb_yn.ran,gather_loop.thisRepN,gather_loop.thisTrialN,gather_loop.thisN,gather_loop.thisIndex,gather_loop.ran,Text,Wordbank,key_resp_instr4.keys,key_resp_instr4.rt,master_loop.thisRepN,master_loop.thisTrialN,master_loop.thisN,master_loop.thisIndex,master_loop.ran,exposure_file,instr_1,exp_reps,fct_file,instr_2,gather_file,gather_reps,instr_3,fReps,instr_4,trials_4.thisRepN,trials_4.thisTrialN,trials_4.thisN,trials_4.thisIndex,trials_4.ran,NegVSentence,VNegSentence,NegTF
space,4.0504,space,13.6958,0,0,0,0,1,R_27DR21DT8Syo7Qh,2022-06-26_23h25.38.573,jpn_C01,2022.1.2,MacIntel,60.0024001,,,,,,,,,,,,,,,,,,,,,,,,,,,,,,,,,,,,,,,,,,,,,,,,,,,,,,,,,,,,,,,,,,,,,,,,,,,,,,,,,,,
,,,,,,,,,R_27DR21DT8Syo7Qh,2022-06-26_23h25.38.573,jpn_C01,2022.1.2,MacIntel,60.0024001,space,4.608,space,3.9908,0,0,0,2,1,ホレト,chef,,CartoonStims/chef_r.jpg,audio/horeto.mp3,,,,,,,,,,,,,,,,,,,,,,,,,,,,,,,,,,,,,,,,,,,,,,,,,,,,,,,,,,,,,,,,,,,,,
,,,,,,,,,R_27DR21DT8Syo7Qh,2022-06-26_23h25.38.573,jpn_C01,2022.1.2,MacIntel,60.0024001,,,space,4.7356,0,1,1,3,1,ムク,cowboy,,CartoonStims/cowboy_r.jpg,audio/muku.mp3,,,,,,,,,,,,,,,,,,,,,,,,,,,,,,,,,,,,,,,,,,,,,,,,,,,,,,,,,,,,,,,,,,,,,
,,,,,,,,,R_27DR21DT8Syo7Qh,2022-06-26_23h25.38.573,jpn_C01,2022.1.2,MacIntel,60.0024001,,,space,5.2817,0,2,2,0,1,シド,artist,,CartoonStims/artist_r.jpg,audio/sido.mp3,,,,,,,,,,,,,,,,,,,,,,,,,,,,,,,,,,,,,,,,,,,,,,,,,,,,,,,,,,,,,,,,,,,,,
,,,,,,,,,R_27DR21DT8Syo7Qh,2022-06-26_23h25.38.573,jpn_C01,2022.1.2,MacIntel,60.0024001,,,space,4.4665,0,3,3,5,1,ドキ,boxer,,CartoonStims/boxer_r.jpg,audio/doki.mp3,,,,,,,,,,,,,,,,,,,,,,,,,,,,,,,,,,,,,,,,,,,,,,,,,,,,,,,,,,,,,,,,,,,,,
,,,,,,,,,R_27DR21DT8Syo7Qh,2022-06-26_23h25.38.573,jpn_C01,2022.1.2,MacIntel,60.0024001,,,space,3.9402,0,4,4,4,1,ピポ,doctor,,CartoonStims/doctor_r.jpg,audio/pipo.mp3,,,,,,,,,,,,,,,,,,,,,,,,,,,,,,,,,,,,,,,,,,,,,,,,,,,,,,,,,,,,,,,,,,,,,
,,,,,,,,,R_27DR21DT8Syo7Qh,2022-06-26_23h25.38.573,jpn_C01,2022.1.2,MacIntel,60.0024001,,,space,4.5131,0,5,5,1,1,ルピン,burglar,,CartoonStims/burglar_r.jpg,audio/lupin.mp3,,,,,,,,,,,,,,,,,,,,,,,,,,,,,,,,,,,,,,,,,,,,,,,,,,,,,,,,,,,,,,,,,,,,,
,,,,,,,,,R_27DR21DT8Syo7Qh,2022-06-26_23h25.38.573,jpn_C01,2022.1.2,MacIntel,60.0024001,,,space,5.2929,1,0,6,4,1,ピポ,doctor,,CartoonStims/doctor_r.jpg,audio/pipo.mp3,,,,,,,,,,,,,,,,,,,,,,,,,,,,,,,,,,,,,,,,,,,,,,,,,,,,,,,,,,,,,,,,,,,,,
,,,,,,,,,R_27DR21DT8Syo7Qh,2022-06-26_23h25.38.573,jpn_C01,2022.1.2,MacIntel,60.0024001,,,space,3.6337,1,1,7,5,1,ドキ,boxer,,CartoonStims/boxer_r.jpg,audio/doki.mp3,,,,,,,,,,,,,,,,,,,,,,,,,,,,,,,,,,,,,,,,,,,,,,,,,,,,,,,,,,,,,,,,,,,,,
,,,,,,,,,R_27DR21DT8Syo7Qh,2022-06-26_23h25.38.573,jpn_C01,2022.1.2,MacIntel,60.0024001,,,space,1.4858,1,2,8,2,1,ホレト,chef,,CartoonStims/chef_r.jpg,audio/horeto.mp3,,,,,,,,,,,,,,,,,,,,,,,,,,,,,,,,,,,,,,,,,,,,,,,,,,,,,,,,,,,,,,,,,,,,,
,,,,,,,,,R_27DR21DT8Syo7Qh,2022-06-26_23h25.38.573,jpn_C01,2022.1.2,MacIntel,60.0024001,,,space,1.7607,1,3,9,0,1,シド,artist,,CartoonStims/artist_r.jpg,audio/sido.mp3,,,,,,,,,,,,,,,,,,,,,,,,,,,,,,,,,,,,,,,,,,,,,,,,,,,,,,,,,,,,,,,,,,,,,
,,,,,,,,,R_27DR21DT8Syo7Qh,2022-06-26_23h25.38.573,jpn_C01,2022.1.2,MacIntel,60.0024001,,,space,1.2901,1,4,10,3,1,ムク,cowboy,,CartoonStims/cowboy_r.jpg,audio/muku.mp3,,,,,,,,,,,,,,,,,,,,,,,,,,,,,,,,,,,,,,,,,,,,,,,,,,,,,,,,,,,,,,,,,,,,,
,,,,,,,,,R_27DR21DT8Syo7Qh,2022-06-26_23h25.38.573,jpn_C01,2022.1.2,MacIntel,60.0024001,,,space,2.323,1,5,11,1,1,ルピン,burglar,,CartoonStims/burglar_r.jpg,audio/lupin.mp3,,,,,,,,,,,,,,,,,,,,,,,,,,,,,,,,,,,,,,,,,,,,,,,,,,,,,,,,,,,,,,,,,,,,,
,,,,,,,,,R_27DR21DT8Syo7Qh,2022-06-26_23h25.38.573,jpn_C01,2022.1.2,MacIntel,60.0024001,,,space,1.3358,2,0,12,2,1,ホレト,chef,,CartoonStims/chef_r.jpg,audio/horeto.mp3,,,,,,,,,,,,,,,,,,,,,,,,,,,,,,,,,,,,,,,,,,,,,,,,,,,,,,,,,,,,,,,,,,,,,
,,,,,,,,,R_27DR21DT8Syo7Qh,2022-06-26_23h25.38.573,jpn_C01,2022.1.2,MacIntel,60.0024001,,,space,1.7002,2,1,13,5,1,ドキ,boxer,,CartoonStims/boxer_r.jpg,audio/doki.mp3,,,,,,,,,,,,,,,,,,,,,,,,,,,,,,,,,,,,,,,,,,,,,,,,,,,,,,,,,,,,,,,,,,,,,
,,,,,,,,,R_27DR21DT8Syo7Qh,2022-06-26_23h25.38.573,jpn_C01,2022.1.2,MacIntel,60.0024001,,,space,1.4271,2,2,14,3,1,ムク,cowboy,,CartoonStims/cowboy_r.jpg,audio/muku.mp3,,,,,,,,,,,,,,,,,,,,,,,,,,,,,,,,,,,,,,,,,,,,,,,,,,,,,,,,,,,,,,,,,,,,,
,,,,,,,,,R_27DR21DT8Syo7Qh,2022-06-26_23h25.38.573,jpn_C01,2022.1.2,MacIntel,60.0024001,,,space,1.1591,2,3,15,0,1,シド,artist,,CartoonStims/artist_r.jpg,audio/sido.mp3,,,,,,,,,,,,,,,,,,,,,,,,,,,,,,,,,,,,,,,,,,,,,,,,,,,,,,,,,,,,,,,,,,,,,
,,,,,,,,,R_27DR21DT8Syo7Qh,2022-06-26_23h25.38.573,jpn_C01,2022.1.2,MacIntel,60.0024001,,,space,1.343,2,4,16,1,1,ルピン,burglar,,CartoonStims/burglar_r.jpg,audio/lupin.mp3,,,,,,,,,,,,,,,,,,,,,,,,,,,,,,,,,,,,,,,,,,,,,,,,,,,,,,,,,,,,,,,,,,,,,
,,,,,,,,,R_27DR21DT8Syo7Qh,2022-06-26_23h25.38.573,jpn_C01,2022.1.2,MacIntel,60.0024001,,,space,4.4164,2,5,17,4,1,ピポ,doctor,,CartoonStims/doctor_r.jpg,audio/pipo.mp3,,,,,,,,,,,,,,,,,,,,,,,,,,,,,,,,,,,,,,,,,,,,,,,,,,,,,,,,,,,,,,,,,,,,,
,,,,,,,,,R_27DR21DT8Syo7Qh,2022-06-26_23h25.38.573,jpn_C01,2022.1.2,MacIntel,60.0024001,,,,,,,,,,,,,,,space,1.1275,right,1,2.1752,0,0,0,0,1,,,,,,,,,,,,,,,,,,,,,,,,,,,,,,,,,,,,,,,,,,,,,,,,,,,,,,,,,,,
,,,,,,,,,R_27DR21DT8Syo7Qh,2022-06-26_23h25.38.573,jpn_C01,2022.1.2,MacIntel,60.0024001,,,,,,,,,,,,,,,,,,,,,,,,,0,0,0,10,1,CartoonStims/artist_r.jpg,ピポ,CartoonStims/doctor_r.jpg,right,CartoonStims/doctor_r.jpg,audio/pipo.mp3,残念！ こちらが正しい画像です。,,,,,,,,,,,,,,,,,,,,,,,,,,,,,,,,,,,,,,,,,,,,,,,
,,,,,,,,,R_27DR21DT8Syo7Qh,2022-06-26_23h25.38.573,jpn_C01,2022.1.2,MacIntel,60.0024001,,,,,,,,,,,,,,,,,left,1,0.6596,,,,,,,,,,,,,,,,,,0,0,0,0,1,,,,,,,,,,,,,,,,,,,,,,,,,,,,,,,,,,,,,,,,,,
,,,,,,,,,R_27DR21DT8Syo7Qh,2022-06-26_23h25.38.573,jpn_C01,2022.1.2,MacIntel,60.0024001,,,,,,,,,,,,,,,,,,,,,,,,,0,1,1,5,1,CartoonStims/boxer_r.jpg,ドキ,CartoonStims/artist_r.jpg,left,CartoonStims/boxer_r.jpg,audio/doki.mp3,残念！ こちらが正しい画像です。,,,,,,,,,,,,,,,,,,,,,,,,,,,,,,,,,,,,,,,,,,,,,,,
,,,,,,,,,R_27DR21DT8Syo7Qh,2022-06-26_23h25.38.573,jpn_C01,2022.1.2,MacIntel,60.0024001,,,,,,,,,,,,,,,,,right,1,0.67,0,0,0,0,1,,,,,,,,,,,,,,,,,,,,,,,,,,,,,,,,,,,,,,,,,,,,,,,,,,,,,,,,,,,
,,,,,,,,,R_27DR21DT8Syo7Qh,2022-06-26_23h25.38.573,jpn_C01,2022.1.2,MacIntel,60.0024001,,,,,,,,,,,,,,,,,,,,,,,,,0,2,2,8,1,CartoonStims/doctor_r.jpg,ホレト,CartoonStims/chef_r.jpg,right,CartoonStims/chef_r.jpg,audio/horeto.mp3,残念！ こちらが正しい画像です。,,,,,,,,,,,,,,,,,,,,,,,,,,,,,,,,,,,,,,,,,,,,,,,
,,,,,,,,,R_27DR21DT8Syo7Qh,2022-06-26_23h25.38.573,jpn_C01,2022.1.2,MacIntel,60.0024001,,,,,,,,,,,,,,,,,left,1,0.6997,,,,,,,,,,,,,,,,,,0,0,0,0,1,,,,,,,,,,,,,,,,,,,,,,,,,,,,,,,,,,,,,,,,,,
,,,,,,,,,R_27DR21DT8Syo7Qh,2022-06-26_23h25.38.573,jpn_C01,2022.1.2,MacIntel,60.0024001,,,,,,,,,,,,,,,,,,,,,,,,,0,3,3,0,1,CartoonStims/artist_r.jpg,シド,CartoonStims/burglar_r.jpg,left,CartoonStims/artist_r.jpg,audio/sido.mp3,残念！ こちらが正しい画像です。,,,,,,,,,,,,,,,,,,,,,,,,,,,,,,,,,,,,,,,,,,,,,,,
,,,,,,,,,R_27DR21DT8Syo7Qh,2022-06-26_23h25.38.573,jpn_C01,2022.1.2,MacIntel,60.0024001,,,,,,,,,,,,,,,,,right,1,1.1272,0,0,0,0,1,,,,,,,,,,,,,,,,,,,,,,,,,,,,,,,,,,,,,,,,,,,,,,,,,,,,,,,,,,,
,,,,,,,,,R_27DR21DT8Syo7Qh,2022-06-26_23h25.38.573,jpn_C01,2022.1.2,MacIntel,60.0024001,,,,,,,,,,,,,,,,,,,,,,,,,0,4,4,9,1,CartoonStims/boxer_r.jpg,ムク,CartoonStims/cowboy_r.jpg,right,CartoonStims/cowboy_r.jpg,audio/muku.mp3,残念！ こちらが正しい画像です。,,,,,,,,,,,,,,,,,,,,,,,,,,,,,,,,,,,,,,,,,,,,,,,
,,,,,,,,,R_27DR21DT8Syo7Qh,2022-06-26_23h25.38.573,jpn_C01,2022.1.2,MacIntel,60.0024001,,,,,,,,,,,,,,,,,left,1,0.6402,,,,,,,,,,,,,,,,,,0,0,0,0,1,,,,,,,,,,,,,,,,,,,,,,,,,,,,,,,,,,,,,,,,,,
,,,,,,,,,R_27DR21DT8Syo7Qh,2022-06-26_23h25.38.573,jpn_C01,2022.1.2,MacIntel,60.0024001,,,,,,,,,,,,,,,,,,,,,,,,,0,5,5,1,1,CartoonStims/burglar_r.jpg,ルピン,CartoonStims/chef_r.jpg,left,CartoonStims/burglar_r.jpg,audio/lupin.mp3,残念！ こちらが正しい画像です。,,,,,,,,,,,,,,,,,,,,,,,,,,,,,,,,,,,,,,,,,,,,,,,
,,,,,,,,,R_27DR21DT8Syo7Qh,2022-06-26_23h25.38.573,jpn_C01,2022.1.2,MacIntel,60.0024001,,,,,,,,,,,,,,,,,left,1,7.1163,,,,,,,,,,,,,,,,,,0,0,0,0,1,,,,,,,,,,,,,,,,,,,,,,,,,,,,,,,,,,,,,,,,,,
,,,,,,,,,R_27DR21DT8Syo7Qh,2022-06-26_23h25.38.573,jpn_C01,2022.1.2,MacIntel,60.0024001,,,,,,,,,,,,,,,,,,,,,,,,,0,6,6,3,1,CartoonStims/cowboy_r.jpg,ムク,CartoonStims/doctor_r.jpg,left,CartoonStims/cowboy_r.jpg,audio/muku.mp3,残念！ こちらが正しい画像です。,,,,,,,,,,,,,,,,,,,,,,,,,,,,,,,,,,,,,,,,,,,,,,,
,,,,,,,,,R_27DR21DT8Syo7Qh,2022-06-26_23h25.38.573,jpn_C01,2022.1.2,MacIntel,60.0024001,,,,,,,,,,,,,,,,,left,1,1.1795,,,,,,,,,,,,,,,,,,0,0,0,0,1,,,,,,,,,,,,,,,,,,,,,,,,,,,,,,,,,,,,,,,,,,
,,,,,,,,,R_27DR21DT8Syo7Qh,2022-06-26_23h25.38.573,jpn_C01,2022.1.2,MacIntel,60.0024001,,,,,,,,,,,,,,,,,,,,,,,,,0,7,7,2,1,CartoonStims/chef_r.jpg,ホレト,CartoonStims/cowboy_r.jpg,left,CartoonStims/chef_r.jpg,audio/horeto.mp3,残念！ こちらが正しい画像です。,,,,,,,,,,,,,,,,,,,,,,,,,,,,,,,,,,,,,,,,,,,,,,,
,,,,,,,,,R_27DR21DT8Syo7Qh,2022-06-26_23h25.38.573,jpn_C01,2022.1.2,MacIntel,60.0024001,,,,,,,,,,,,,,,,,left,1,1.2742,,,,,,,,,,,,,,,,,,0,0,0,0,1,,,,,,,,,,,,,,,,,,,,,,,,,,,,,,,,,,,,,,,,,,
,,,,,,,,,R_27DR21DT8Syo7Qh,2022-06-26_23h25.38.573,jpn_C01,2022.1.2,MacIntel,60.0024001,,,,,,,,,,,,,,,,,,,,,,,,,0,8,8,4,1,CartoonStims/doctor_r.jpg,ピポ,CartoonStims/boxer_r.jpg,left,CartoonStims/doctor_r.jpg,audio/pipo.mp3,残念！ こちらが正しい画像です。,,,,,,,,,,,,,,,,,,,,,,,,,,,,,,,,,,,,,,,,,,,,,,,
,,,,,,,,,R_27DR21DT8Syo7Qh,2022-06-26_23h25.38.573,jpn_C01,2022.1.2,MacIntel,60.0024001,,,,,,,,,,,,,,,,,right,1,0.6355,0,0,0,0,1,,,,,,,,,,,,,,,,,,,,,,,,,,,,,,,,,,,,,,,,,,,,,,,,,,,,,,,,,,,
,,,,,,,,,R_27DR21DT8Syo7Qh,2022-06-26_23h25.38.573,jpn_C01,2022.1.2,MacIntel,60.0024001,,,,,,,,,,,,,,,,,,,,,,,,,0,9,9,7,1,CartoonStims/cowboy_r.jpg,ルピン,CartoonStims/burglar_r.jpg,right,CartoonStims/burglar_r.jpg,audio/lupin.mp3,残念！ こちらが正しい画像です。,,,,,,,,,,,,,,,,,,,,,,,,,,,,,,,,,,,,,,,,,,,,,,,
,,,,,,,,,R_27DR21DT8Syo7Qh,2022-06-26_23h25.38.573,jpn_C01,2022.1.2,MacIntel,60.0024001,,,,,,,,,,,,,,,,,right,1,1.7273,0,0,0,0,1,,,,,,,,,,,,,,,,,,,,,,,,,,,,,,,,,,,,,,,,,,,,,,,,,,,,,,,,,,,
,,,,,,,,,R_27DR21DT8Syo7Qh,2022-06-26_23h25.38.573,jpn_C01,2022.1.2,MacIntel,60.0024001,,,,,,,,,,,,,,,,,,,,,,,,,0,10,10,6,1,CartoonStims/chef_r.jpg,シド,CartoonStims/artist_r.jpg,right,CartoonStims/artist_r.jpg,audio/sido.mp3,残念！ こちらが正しい画像です。,,,,,,,,,,,,,,,,,,,,,,,,,,,,,,,,,,,,,,,,,,,,,,,
,,,,,,,,,R_27DR21DT8Syo7Qh,2022-06-26_23h25.38.573,jpn_C01,2022.1.2,MacIntel,60.0024001,,,,,,,,,,,,,,,,,right,1,0.8699,0,0,0,0,1,,,,,,,,,,,,,,,,,,,,,,,,,,,,,,,,,,,,,,,,,,,,,,,,,,,,,,,,,,,
,,,,,,,,,R_27DR21DT8Syo7Qh,2022-06-26_23h25.38.573,jpn_C01,2022.1.2,MacIntel,60.0024001,,,,,,,,,,,,,,,,,,,,,,,,,0,11,11,11,1,CartoonStims/burglar_r.jpg,ドキ,CartoonStims/boxer_r.jpg,right,CartoonStims/boxer_r.jpg,audio/doki.mp3,残念！ こちらが正しい画像です。,,,,,,,,,,,,,,,,,,,,,,,,,,,,,,,,,,,,,,,,,,,,,,,
,,,,,,,,,R_27DR21DT8Syo7Qh,2022-06-26_23h25.38.573,jpn_C01,2022.1.2,MacIntel,60.0024001,,,,,,,,,,,,,,,,,,,,,,,,,,,,,,,,,,,,,,,,,,space,2.1685,シド,right,11.6434,0,0,0,0,1,,,,,,,,,,,,,,,,,,,,,,,,,,,,,,,,
,,,,,,,,,R_27DR21DT8Syo7Qh,2022-06-26_23h25.38.573,jpn_C01,2022.1.2,MacIntel,60.0024001,,,,,,,,,,,,,CartoonStims/artist_r.jpg,audio/sido.mp3,,,,,,,,,,,,,,,,,,,,,,,,,,,,,,,,,,,,,,0,0,0,0,1,シド,,,,,,,,,,,,,,,,,,,,,,,,,,
,,,,,,,,,R_27DR21DT8Syo7Qh,2022-06-26_23h25.38.573,jpn_C01,2022.1.2,MacIntel,60.0024001,,,,,,,,,,,,,,,,,,,,,,,,,,,,,,,,,,,,,,,,,,,,ルピン,right,6.6622,0,0,0,0,1,,,,,,,,,,,,,,,,,,,,,,,,,,,,,,,,
,,,,,,,,,R_27DR21DT8Syo7Qh,2022-06-26_23h25.38.573,jpn_C01,2022.1.2,MacIntel,60.0024001,,,,,,,,,,,,,CartoonStims/burglar_r.jpg,audio/lupin.mp3,,,,,,,,,,,,,,,,,,,,,,,,,,,,,,,,,,,,,,0,1,1,1,1,ルピン,,,,,,,,,,,,,,,,,,,,,,,,,,
,,,,,,,,,R_27DR21DT8Syo7Qh,2022-06-26_23h25.38.573,jpn_C01,2022.1.2,MacIntel,60.0024001,,,,,,,,,,,,,,,,,,,,,,,,,,,,,,,,,,,,,,,,,,,,ドキ,right,5.337,0,0,0,0,1,,,,,,,,,,,,,,,,,,,,,,,,,,,,,,,,
,,,,,,,,,R_27DR21DT8Syo7Qh,2022-06-26_23h25.38.573,jpn_C01,2022.1.2,MacIntel,60.0024001,,,,,,,,,,,,,CartoonStims/boxer_r.jpg,audio/doki.mp3,,,,,,,,,,,,,,,,,,,,,,,,,,,,,,,,,,,,,,0,2,2,5,1,ドキ,,,,,,,,,,,,,,,,,,,,,,,,,,
,,,,,,,,,R_27DR21DT8Syo7Qh,2022-06-26_23h25.38.573,jpn_C01,2022.1.2,MacIntel,60.0024001,,,,,,,,,,,,,,,,,,,,,,,,,,,,,,,,,,,,,,,,,,,,ホレト,right,6.1937,0,0,0,0,1,,,,,,,,,,,,,,,,,,,,,,,,,,,,,,,,
,,,,,,,,,R_27DR21DT8Syo7Qh,2022-06-26_23h25.38.573,jpn_C01,2022.1.2,MacIntel,60.0024001,,,,,,,,,,,,,CartoonStims/chef_r.jpg,audio/horeto.mp3,,,,,,,,,,,,,,,,,,,,,,,,,,,,,,,,,,,,,,0,3,3,2,1,ホレト,,,,,,,,,,,,,,,,,,,,,,,,,,
,,,,,,,,,R_27DR21DT8Syo7Qh,2022-06-26_23h25.38.573,jpn_C01,2022.1.2,MacIntel,60.0024001,,,,,,,,,,,,,,,,,,,,,,,,,,,,,,,,,,,,,,,,,,,,ピポ,right,11.5915,0,0,0,0,1,,,,,,,,,,,,,,,,,,,,,,,,,,,,,,,,
,,,,,,,,,R_27DR21DT8Syo7Qh,2022-06-26_23h25.38.573,jpn_C01,2022.1.2,MacIntel,60.0024001,,,,,,,,,,,,,CartoonStims/doctor_r.jpg,audio/pipo.mp3,,,,,,,,,,,,,,,,,,,,,,,,,,,,,,,,,,,,,,0,4,4,4,1,ピポ,,,,,,,,,,,,,,,,,,,,,,,,,,
,,,,,,,,,R_27DR21DT8Syo7Qh,2022-06-26_23h25.38.573,jpn_C01,2022.1.2,MacIntel,60.0024001,,,,,,,,,,,,,,,,,,,,,,,,,,,,,,,,,,,,,,,,,,,,ムク,right,6.3899,0,0,0,0,1,,,,,,,,,,,,,,,,,,,,,,,,,,,,,,,,
,,,,,,,,,R_27DR21DT8Syo7Qh,2022-06-26_23h25.38.573,jpn_C01,2022.1.2,MacIntel,60.0024001,,,,,,,,,,,,,CartoonStims/cowboy_r.jpg,audio/muku.mp3,,,,,,,,,,,,,,,,,,,,,,,,,,,,,,,,,,,,,,0,5,5,3,1,ムク,,,,,,,,,,,,,,,,,,,,,,,,,,
,,,,,,,,,R_27DR21DT8Syo7Qh,2022-06-26_23h25.38.573,jpn_C01,2022.1.2,MacIntel,60.0024001,,,,,,,,,,,,,,,,,,,,,,,,,,,,,,,,,,,,,,,,,,,,ルピン,right,7.2276,0,0,0,0,1,,,,,,,,,,,,,,,,,,,,,,,,,,,,,,,,
,,,,,,,,,R_27DR21DT8Syo7Qh,2022-06-26_23h25.38.573,jpn_C01,2022.1.2,MacIntel,60.0024001,,,,,,,,,,,,,CartoonStims/burglar_r.jpg,audio/lupin.mp3,,,,,,,,,,,,,,,,,,,,,,,,,,,,,,,,,,,,,,1,0,6,1,1,ルピン,,,,,,,,,,,,,,,,,,,,,,,,,,
,,,,,,,,,R_27DR21DT8Syo7Qh,2022-06-26_23h25.38.573,jpn_C01,2022.1.2,MacIntel,60.0024001,,,,,,,,,,,,,,,,,,,,,,,,,,,,,,,,,,,,,,,,,,,,ムク,right,8.2684,0,0,0,0,1,,,,,,,,,,,,,,,,,,,,,,,,,,,,,,,,
,,,,,,,,,R_27DR21DT8Syo7Qh,2022-06-26_23h25.38.573,jpn_C01,2022.1.2,MacIntel,60.0024001,,,,,,,,,,,,,CartoonStims/cowboy_r.jpg,audio/muku.mp3,,,,,,,,,,,,,,,,,,,,,,,,,,,,,,,,,,,,,,1,1,7,3,1,ムク,,,,,,,,,,,,,,,,,,,,,,,,,,
,,,,,,,,,R_27DR21DT8Syo7Qh,2022-06-26_23h25.38.573,jpn_C01,2022.1.2,MacIntel,60.0024001,,,,,,,,,,,,,,,,,,,,,,,,,,,,,,,,,,,,,,,,,,,,ホレト,right,4.6149,0,0,0,0,1,,,,,,,,,,,,,,,,,,,,,,,,,,,,,,,,
,,,,,,,,,R_27DR21DT8Syo7Qh,2022-06-26_23h25.38.573,jpn_C01,2022.1.2,MacIntel,60.0024001,,,,,,,,,,,,,CartoonStims/chef_r.jpg,audio/horeto.mp3,,,,,,,,,,,,,,,,,,,,,,,,,,,,,,,,,,,,,,1,2,8,2,1,ホレト,,,,,,,,,,,,,,,,,,,,,,,,,,
,,,,,,,,,R_27DR21DT8Syo7Qh,2022-06-26_23h25.38.573,jpn_C01,2022.1.2,MacIntel,60.0024001,,,,,,,,,,,,,,,,,,,,,,,,,,,,,,,,,,,,,,,,,,,,ドキ,right,3.2483,0,0,0,0,1,,,,,,,,,,,,,,,,,,,,,,,,,,,,,,,,
,,,,,,,,,R_27DR21DT8Syo7Qh,2022-06-26_23h25.38.573,jpn_C01,2022.1.2,MacIntel,60.0024001,,,,,,,,,,,,,CartoonStims/boxer_r.jpg,audio/doki.mp3,,,,,,,,,,,,,,,,,,,,,,,,,,,,,,,,,,,,,,1,3,9,5,1,ドキ,,,,,,,,,,,,,,,,,,,,,,,,,,
,,,,,,,,,R_27DR21DT8Syo7Qh,2022-06-26_23h25.38.573,jpn_C01,2022.1.2,MacIntel,60.0024001,,,,,,,,,,,,,,,,,,,,,,,,,,,,,,,,,,,,,,,,,,,,ピポ,right,7.6449,0,0,0,0,1,,,,,,,,,,,,,,,,,,,,,,,,,,,,,,,,
,,,,,,,,,R_27DR21DT8Syo7Qh,2022-06-26_23h25.38.573,jpn_C01,2022.1.2,MacIntel,60.0024001,,,,,,,,,,,,,CartoonStims/doctor_r.jpg,audio/pipo.mp3,,,,,,,,,,,,,,,,,,,,,,,,,,,,,,,,,,,,,,1,4,10,4,1,ピポ,,,,,,,,,,,,,,,,,,,,,,,,,,
,,,,,,,,,R_27DR21DT8Syo7Qh,2022-06-26_23h25.38.573,jpn_C01,2022.1.2,MacIntel,60.0024001,,,,,,,,,,,,,,,,,,,,,,,,,,,,,,,,,,,,,,,,,,,,,right,0.1634,0,0,0,0,1,,,,,,,,,,,,,,,,,,,,,,,,,,,,,,,,
,,,,,,,,,R_27DR21DT8Syo7Qh,2022-06-26_23h25.38.573,jpn_C01,2022.1.2,MacIntel,60.0024001,,,,,,,,,,,,,CartoonStims/artist_r.jpg,audio/sido.mp3,,,,,,,,,,,,,,,,,,,,,,,,,,,,,,,,,,,,,,1,5,11,0,1,シド,,,,,,,,,,,,,,,,,,,,,,,,,,
,,,,,,,,,R_27DR21DT8Syo7Qh,2022-06-26_23h25.38.573,jpn_C01,2022.1.2,MacIntel,60.0024001,,,,,,,,,,,,,,,,,,,,,,,,,,,,,,,,,,,,,,,,,,,,,,,,,,,,,,,,,,,space,1.0438,0,0,0,0,1,NounExposure.xlsx,"最初のトライアルでは、 画像が表示され、 その画像の下に単語が出てきます。 またこの単語の音も聞くことができます。 この音を大きな声で復唱してください。 そしてこの画像がどのような単語を示しているのか, 考えてみてください。 その後、 続きのボタンを押すと次の単語の学習が始まります。

スペースキーを押して、学習を始めましょう。",3,NounFCT.xlsx,ここから語彙のクイズが始まります。スクリーンに表示される単語に合う画像をキーボードの右と左の矢印キーを使って選択してください。,NounTest.xlsx,2,次に、これまで学習してきたことをアウトプットしていただきます。 表示される画像を描写していると思う単語を、テキストボックスにタイプしてください。,1,"ここまでが最初のトライアルです。ここで休憩をとっても構いません。

休憩が済みましたら、スペースキーを押して続きを始めましょう。",,,,,,,,
,,,,,,,,,R_27DR21DT8Syo7Qh,2022-06-26_23h25.38.573,jpn_C01,2022.1.2,MacIntel,60.0024001,space,12.6005,space,26.6591,0,0,0,43,1,プミ　ムク　ホレト,,,CartoonStims/cowboy_punch_chef_r.jpg,audio/pumimukuhoreto.mp3,,,,,,,,,,,,,,,,,,,,,,,,,,,,,,,,,,,,,,,,,,,,,,,,,,,,,,,,,,,,,,,,,,,,,
,,,,,,,,,R_27DR21DT8Syo7Qh,2022-06-26_23h25.38.573,jpn_C01,2022.1.2,MacIntel,60.0024001,,,space,11.5331,0,1,1,9,1,セル　ピポ　シド,,,CartoonStims/doctor_kick_artist_r.jpg,audio/serupiposido.mp3,,,,,,,,,,,,,,,,,,,,,,,,,,,,,,,,,,,,,,,,,,,,,,,,,,,,,,,,,,,,,,,,,,,,,
,,,,,,,,,R_27DR21DT8Syo7Qh,2022-06-26_23h25.38.573,jpn_C01,2022.1.2,MacIntel,60.0024001,,,space,5.5117,0,2,2,34,1,パツ　ドキ　ホレト,,,CartoonStims/boxer_shoot_chef_r.jpg,audio/patsudokihoreto.mp3,,,,,,,,,,,,,,,,,,,,,,,,,,,,,,,,,,,,,,,,,,,,,,,,,,,,,,,,,,,,,,,,,,,,,
,,,,,,,,,R_27DR21DT8Syo7Qh,2022-06-26_23h25.38.573,jpn_C01,2022.1.2,MacIntel,60.0024001,,,space,13.0924,0,3,3,47,1,プミ　ドキ　ピポ,,,CartoonStims/boxer_punch_doctor_r.jpg,audio/pumidokipipo.mp3,,,,,,,,,,,,,,,,,,,,,,,,,,,,,,,,,,,,,,,,,,,,,,,,,,,,,,,,,,,,,,,,,,,,,
,,,,,,,,,R_27DR21DT8Syo7Qh,2022-06-26_23h25.38.573,jpn_C01,2022.1.2,MacIntel,60.0024001,,,space,8.4247,0,4,4,21,1,トマ　ピポ　ルピン,,,CartoonStims/doctor_point_burglar_r.jpg,audio/tomapipolupin.mp3,,,,,,,,,,,,,,,,,,,,,,,,,,,,,,,,,,,,,,,,,,,,,,,,,,,,,,,,,,,,,,,,,,,,,
,,,,,,,,,R_27DR21DT8Syo7Qh,2022-06-26_23h25.38.573,jpn_C01,2022.1.2,MacIntel,60.0024001,,,space,4.2787,0,5,5,37,1,プミ　シド　ドキ,,,CartoonStims/artist_punch_boxer_r.jpg,audio/pumisidodoki.mp3,,,,,,,,,,,,,,,,,,,,,,,,,,,,,,,,,,,,,,,,,,,,,,,,,,,,,,,,,,,,,,,,,,,,,
,,,,,,,,,R_27DR21DT8Syo7Qh,2022-06-26_23h25.38.573,jpn_C01,2022.1.2,MacIntel,60.0024001,,,space,6.4343,0,6,6,3,1,セル　ルピン　ムク,,,CartoonStims/burglar_kick_cowboy_r.jpg,audio/serulupinmuku.mp3,,,,,,,,,,,,,,,,,,,,,,,,,,,,,,,,,,,,,,,,,,,,,,,,,,,,,,,,,,,,,,,,,,,,,
,,,,,,,,,R_27DR21DT8Syo7Qh,2022-06-26_23h25.38.573,jpn_C01,2022.1.2,MacIntel,60.0024001,,,space,5.4971,0,7,7,46,1,プミ　ドキ　ムク,,,CartoonStims/boxer_punch_cowboy_r.jpg,audio/pumidokimuku.mp3,,,,,,,,,,,,,,,,,,,,,,,,,,,,,,,,,,,,,,,,,,,,,,,,,,,,,,,,,,,,,,,,,,,,,
,,,,,,,,,R_27DR21DT8Syo7Qh,2022-06-26_23h25.38.573,jpn_C01,2022.1.2,MacIntel,60.0024001,,,space,5.7069,0,8,8,15,1,トマ　ルピン　ピポ,,,CartoonStims/burglar_point_doctor_r.jpg,audio/tomalupinpipo.mp3,,,,,,,,,,,,,,,,,,,,,,,,,,,,,,,,,,,,,,,,,,,,,,,,,,,,,,,,,,,,,,,,,,,,,
,,,,,,,,,R_27DR21DT8Syo7Qh,2022-06-26_23h25.38.573,jpn_C01,2022.1.2,MacIntel,60.0024001,,,space,12.9161,0,9,9,7,1,セル　ムク　ドキ,,,CartoonStims/cowboy_kick_boxer_r.jpg,audio/serumukudoki.mp3,,,,,,,,,,,,,,,,,,,,,,,,,,,,,,,,,,,,,,,,,,,,,,,,,,,,,,,,,,,,,,,,,,,,,
,,,,,,,,,R_27DR21DT8Syo7Qh,2022-06-26_23h25.38.573,jpn_C01,2022.1.2,MacIntel,60.0024001,,,space,5.4613,0,10,10,12,1,トマ　シド　ホレト,,,CartoonStims/artist_point_chef_r.jpg,audio/tomasidohoreto.mp3,,,,,,,,,,,,,,,,,,,,,,,,,,,,,,,,,,,,,,,,,,,,,,,,,,,,,,,,,,,,,,,,,,,,,
,,,,,,,,,R_27DR21DT8Syo7Qh,2022-06-26_23h25.38.573,jpn_C01,2022.1.2,MacIntel,60.0024001,,,space,6.0673,0,11,11,4,1,セル　ホレト　ムク,,,CartoonStims/chef_kick_cowboy_r.jpg,audio/seruhoretomuku.mp3,,,,,,,,,,,,,,,,,,,,,,,,,,,,,,,,,,,,,,,,,,,,,,,,,,,,,,,,,,,,,,,,,,,,,
,,,,,,,,,R_27DR21DT8Syo7Qh,2022-06-26_23h25.38.573,jpn_C01,2022.1.2,MacIntel,60.0024001,,,space,3.5237,0,12,12,23,1,トマ　ドキ　ホレト,,,CartoonStims/boxer_point_chef_r.jpg,audio/tomadokihoreto.mp3,,,,,,,,,,,,,,,,,,,,,,,,,,,,,,,,,,,,,,,,,,,,,,,,,,,,,,,,,,,,,,,,,,,,,
,,,,,,,,,R_27DR21DT8Syo7Qh,2022-06-26_23h25.38.573,jpn_C01,2022.1.2,MacIntel,60.0024001,,,space,5.2245,0,13,13,5,1,セル　ホレト　ピポ,,,CartoonStims/chef_kick_doctor_r.jpg,audio/seruhoretopipo.mp3,,,,,,,,,,,,,,,,,,,,,,,,,,,,,,,,,,,,,,,,,,,,,,,,,,,,,,,,,,,,,,,,,,,,,
,,,,,,,,,R_27DR21DT8Syo7Qh,2022-06-26_23h25.38.573,jpn_C01,2022.1.2,MacIntel,60.0024001,,,space,6.7855,0,14,14,44,1,プミ　ピポ　ホレト,,,CartoonStims/doctor_punch_chef_r.jpg,audio/pumipipohoreto.mp3,,,,,,,,,,,,,,,,,,,,,,,,,,,,,,,,,,,,,,,,,,,,,,,,,,,,,,,,,,,,,,,,,,,,,
,,,,,,,,,R_27DR21DT8Syo7Qh,2022-06-26_23h25.38.573,jpn_C01,2022.1.2,MacIntel,60.0024001,,,space,5.4439,0,15,15,41,1,プミ　ホレト　ルピン,,,CartoonStims/chef_punch_burglar_r.jpg,audio/pumihoretolupin.mp3,,,,,,,,,,,,,,,,,,,,,,,,,,,,,,,,,,,,,,,,,,,,,,,,,,,,,,,,,,,,,,,,,,,,,
,,,,,,,,,R_27DR21DT8Syo7Qh,2022-06-26_23h25.38.573,jpn_C01,2022.1.2,MacIntel,60.0024001,,,space,3.7175,0,16,16,35,1,パツ　ドキ　ムク,,,CartoonStims/boxer_shoot_cowboy_r.jpg,audio/patsudokimuku.mp3,,,,,,,,,,,,,,,,,,,,,,,,,,,,,,,,,,,,,,,,,,,,,,,,,,,,,,,,,,,,,,,,,,,,,
,,,,,,,,,R_27DR21DT8Syo7Qh,2022-06-26_23h25.38.573,jpn_C01,2022.1.2,MacIntel,60.0024001,,,space,3.4995,0,17,17,39,1,プミ　ルピン　シド,,,CartoonStims/burglar_punch_artist_r.jpg,audio/pumilupinsido.mp3,,,,,,,,,,,,,,,,,,,,,,,,,,,,,,,,,,,,,,,,,,,,,,,,,,,,,,,,,,,,,,,,,,,,,
,,,,,,,,,R_27DR21DT8Syo7Qh,2022-06-26_23h25.38.573,jpn_C01,2022.1.2,MacIntel,60.0024001,,,space,4.2333,0,18,18,42,1,プミ　ムク　ルピン,,,CartoonStims/cowboy_punch_burglar_r.jpg,audio/pumimukulupin.mp3,,,,,,,,,,,,,,,,,,,,,,,,,,,,,,,,,,,,,,,,,,,,,,,,,,,,,,,,,,,,,,,,,,,,,
,,,,,,,,,R_27DR21DT8Syo7Qh,2022-06-26_23h25.38.573,jpn_C01,2022.1.2,MacIntel,60.0024001,,,space,5.4925,0,19,19,8,1,セル　ピポ　ドキ,,,CartoonStims/doctor_kick_boxer_r.jpg,audio/serupipodoki.mp3,,,,,,,,,,,,,,,,,,,,,,,,,,,,,,,,,,,,,,,,,,,,,,,,,,,,,,,,,,,,,,,,,,,,,
,,,,,,,,,R_27DR21DT8Syo7Qh,2022-06-26_23h25.38.573,jpn_C01,2022.1.2,MacIntel,60.0024001,,,space,7.699,0,20,20,22,1,トマ　ドキ　ルピン,,,CartoonStims/boxer_point_burglar_r.jpg,audio/tomadokilupin.mp3,,,,,,,,,,,,,,,,,,,,,,,,,,,,,,,,,,,,,,,,,,,,,,,,,,,,,,,,,,,,,,,,,,,,,
,,,,,,,,,R_27DR21DT8Syo7Qh,2022-06-26_23h25.38.573,jpn_C01,2022.1.2,MacIntel,60.0024001,,,space,4.8849,0,21,21,13,1,トマ　シド　ムク,,,CartoonStims/artist_point_cowboy_r.jpg,audio/tomasidomuku.mp3,,,,,,,,,,,,,,,,,,,,,,,,,,,,,,,,,,,,,,,,,,,,,,,,,,,,,,,,,,,,,,,,,,,,,
,,,,,,,,,R_27DR21DT8Syo7Qh,2022-06-26_23h25.38.573,jpn_C01,2022.1.2,MacIntel,60.0024001,,,space,3.7505,0,22,22,28,1,パツ　ホレト　ドキ,,,CartoonStims/chef_shoot_boxer_r.jpg,audio/patsuhoretodoki.mp3,,,,,,,,,,,,,,,,,,,,,,,,,,,,,,,,,,,,,,,,,,,,,,,,,,,,,,,,,,,,,,,,,,,,,
,,,,,,,,,R_27DR21DT8Syo7Qh,2022-06-26_23h25.38.573,jpn_C01,2022.1.2,MacIntel,60.0024001,,,space,4.4254,0,23,23,19,1,トマ　ムク　シド,,,CartoonStims/cowboy_point_artist_r.jpg,audio/tomamukusido.mp3,,,,,,,,,,,,,,,,,,,,,,,,,,,,,,,,,,,,,,,,,,,,,,,,,,,,,,,,,,,,,,,,,,,,,
,,,,,,,,,R_27DR21DT8Syo7Qh,2022-06-26_23h25.38.573,jpn_C01,2022.1.2,MacIntel,60.0024001,,,space,4.0336,0,24,24,29,1,パツ　ホレト　シド,,,CartoonStims/chef_shoot_artist_r.jpg,audio/patsuhoretosido.mp3,,,,,,,,,,,,,,,,,,,,,,,,,,,,,,,,,,,,,,,,,,,,,,,,,,,,,,,,,,,,,,,,,,,,,
,,,,,,,,,R_27DR21DT8Syo7Qh,2022-06-26_23h25.38.573,jpn_C01,2022.1.2,MacIntel,60.0024001,,,space,8.7665,0,25,25,40,1,プミ　ホレト　シド,,,CartoonStims/chef_punch_artist_r.jpg,audio/pumihoretosido.mp3,,,,,,,,,,,,,,,,,,,,,,,,,,,,,,,,,,,,,,,,,,,,,,,,,,,,,,,,,,,,,,,,,,,,,
,,,,,,,,,R_27DR21DT8Syo7Qh,2022-06-26_23h25.38.573,jpn_C01,2022.1.2,MacIntel,60.0024001,,,space,11.0564,0,26,26,6,1,セル　ムク　ピポ,,,CartoonStims/cowboy_kick_doctor_r.jpg,audio/serumukupipo.mp3,,,,,,,,,,,,,,,,,,,,,,,,,,,,,,,,,,,,,,,,,,,,,,,,,,,,,,,,,,,,,,,,,,,,,
,,,,,,,,,R_27DR21DT8Syo7Qh,2022-06-26_23h25.38.573,jpn_C01,2022.1.2,MacIntel,60.0024001,,,space,18.7274,0,27,27,14,1,トマ　ルピン　ムク,,,CartoonStims/burglar_point_cowboy_r.jpg,audio/tomalupinmuku.mp3,,,,,,,,,,,,,,,,,,,,,,,,,,,,,,,,,,,,,,,,,,,,,,,,,,,,,,,,,,,,,,,,,,,,,
,,,,,,,,,R_27DR21DT8Syo7Qh,2022-06-26_23h25.38.573,jpn_C01,2022.1.2,MacIntel,60.0024001,,,space,7.0333,0,28,28,33,1,パツ　ピポ　ホレト,,,CartoonStims/doctor_shoot_chef_r.jpg,audio/patsupipohoreto.mp3,,,,,,,,,,,,,,,,,,,,,,,,,,,,,,,,,,,,,,,,,,,,,,,,,,,,,,,,,,,,,,,,,,,,,
,,,,,,,,,R_27DR21DT8Syo7Qh,2022-06-26_23h25.38.573,jpn_C01,2022.1.2,MacIntel,60.0024001,,,space,6.6246,0,29,29,38,1,プミ　ルピン　ドキ,,,CartoonStims/burglar_punch_boxer_r.jpg,audio/pumilupindoki.mp3,,,,,,,,,,,,,,,,,,,,,,,,,,,,,,,,,,,,,,,,,,,,,,,,,,,,,,,,,,,,,,,,,,,,,
,,,,,,,,,R_27DR21DT8Syo7Qh,2022-06-26_23h25.38.573,jpn_C01,2022.1.2,MacIntel,60.0024001,,,space,4.9007,0,30,30,30,1,パツ　ムク　シド,,,CartoonStims/cowboy_shoot_artist_r.jpg,audio/patsumukusido.mp3,,,,,,,,,,,,,,,,,,,,,,,,,,,,,,,,,,,,,,,,,,,,,,,,,,,,,,,,,,,,,,,,,,,,,
,,,,,,,,,R_27DR21DT8Syo7Qh,2022-06-26_23h25.38.573,jpn_C01,2022.1.2,MacIntel,60.0024001,,,space,3.9018,0,31,31,45,1,プミ　ピポ　ムク,,,CartoonStims/doctor_punch_cowboy_r.jpg,audio/pumipipomuku.mp3,,,,,,,,,,,,,,,,,,,,,,,,,,,,,,,,,,,,,,,,,,,,,,,,,,,,,,,,,,,,,,,,,,,,,
,,,,,,,,,R_27DR21DT8Syo7Qh,2022-06-26_23h25.38.573,jpn_C01,2022.1.2,MacIntel,60.0024001,,,space,6.1175,0,32,32,1,1,セル 　シド 　ホレト,,,CartoonStims/artist_kick_chef_r.jpg,audio/serusidohoreto.mp3,,,,,,,,,,,,,,,,,,,,,,,,,,,,,,,,,,,,,,,,,,,,,,,,,,,,,,,,,,,,,,,,,,,,,
,,,,,,,,,R_27DR21DT8Syo7Qh,2022-06-26_23h25.38.573,jpn_C01,2022.1.2,MacIntel,60.0024001,,,space,5.2681,0,33,33,24,1,パツ　シド　ムク,,,CartoonStims/artist_shoot_cowboy_r.jpg,audio/patsusidomuku.mp3,,,,,,,,,,,,,,,,,,,,,,,,,,,,,,,,,,,,,,,,,,,,,,,,,,,,,,,,,,,,,,,,,,,,,
,,,,,,,,,R_27DR21DT8Syo7Qh,2022-06-26_23h25.38.573,jpn_C01,2022.1.2,MacIntel,60.0024001,,,space,4.5451,0,34,34,25,1,パツ　シド　ピポ,,,CartoonStims/artist_shoot_doctor_r.jpg,audio/patsusidopipo.mp3,,,,,,,,,,,,,,,,,,,,,,,,,,,,,,,,,,,,,,,,,,,,,,,,,,,,,,,,,,,,,,,,,,,,,
,,,,,,,,,R_27DR21DT8Syo7Qh,2022-06-26_23h25.38.573,jpn_C01,2022.1.2,MacIntel,60.0024001,,,space,5.0002,0,35,35,0,1,セル　シド　ルピン,,,CartoonStims/artist_kick_burglar_r.jpg,audio/serusidolupin.mp3,,,,,,,,,,,,,,,,,,,,,,,,,,,,,,,,,,,,,,,,,,,,,,,,,,,,,,,,,,,,,,,,,,,,,
,,,,,,,,,R_27DR21DT8Syo7Qh,2022-06-26_23h25.38.573,jpn_C01,2022.1.2,MacIntel,60.0024001,,,space,11.1605,0,36,36,20,1,トマ　ピポ　シド,,,CartoonStims/doctor_point_artist_r.jpg,audio/tomapiposido.mp3,,,,,,,,,,,,,,,,,,,,,,,,,,,,,,,,,,,,,,,,,,,,,,,,,,,,,,,,,,,,,,,,,,,,,
,,,,,,,,,R_27DR21DT8Syo7Qh,2022-06-26_23h25.38.573,jpn_C01,2022.1.2,MacIntel,60.0024001,,,space,3.383,0,37,37,27,1,パツ　ルピン　ドキ,,,CartoonStims/burglar_shoot_boxer_r.jpg,audio/patsulupindoki.mp3,,,,,,,,,,,,,,,,,,,,,,,,,,,,,,,,,,,,,,,,,,,,,,,,,,,,,,,,,,,,,,,,,,,,,
,,,,,,,,,R_27DR21DT8Syo7Qh,2022-06-26_23h25.38.573,jpn_C01,2022.1.2,MacIntel,60.0024001,,,space,2.3972,0,38,38,31,1,パツ　ムク　ルピン,,,CartoonStims/cowboy_shoot_burglar_r.jpg,audio/patsumukulupin.mp3,,,,,,,,,,,,,,,,,,,,,,,,,,,,,,,,,,,,,,,,,,,,,,,,,,,,,,,,,,,,,,,,,,,,,
,,,,,,,,,R_27DR21DT8Syo7Qh,2022-06-26_23h25.38.573,jpn_C01,2022.1.2,MacIntel,60.0024001,,,space,5.0941,0,39,39,16,1,トマ　ホレト　ピポ,,,CartoonStims/chef_point_doctor_r.jpg,audio/tomahoretopipo.mp3,,,,,,,,,,,,,,,,,,,,,,,,,,,,,,,,,,,,,,,,,,,,,,,,,,,,,,,,,,,,,,,,,,,,,
,,,,,,,,,R_27DR21DT8Syo7Qh,2022-06-26_23h25.38.573,jpn_C01,2022.1.2,MacIntel,60.0024001,,,space,5.7056,0,40,40,26,1,パツ　ルピン　ピポ,,,CartoonStims/burglar_shoot_doctor_r.jpg,audio/patsulupinpipo.mp3,,,,,,,,,,,,,,,,,,,,,,,,,,,,,,,,,,,,,,,,,,,,,,,,,,,,,,,,,,,,,,,,,,,,,
,,,,,,,,,R_27DR21DT8Syo7Qh,2022-06-26_23h25.38.573,jpn_C01,2022.1.2,MacIntel,60.0024001,,,space,5.3673,0,41,41,32,1,パツ　ピポ　ルピン,,,CartoonStims/doctor_shoot_burglar_r.jpg,audio/patsupipolupin.mp3,,,,,,,,,,,,,,,,,,,,,,,,,,,,,,,,,,,,,,,,,,,,,,,,,,,,,,,,,,,,,,,,,,,,,
,,,,,,,,,R_27DR21DT8Syo7Qh,2022-06-26_23h25.38.573,jpn_C01,2022.1.2,MacIntel,60.0024001,,,space,5.5496,0,42,42,11,1,セル　ドキ　ルピン,,,CartoonStims/boxer_kick_burglar_r.jpg,audio/serudokilupin.mp3,,,,,,,,,,,,,,,,,,,,,,,,,,,,,,,,,,,,,,,,,,,,,,,,,,,,,,,,,,,,,,,,,,,,,
,,,,,,,,,R_27DR21DT8Syo7Qh,2022-06-26_23h25.38.573,jpn_C01,2022.1.2,MacIntel,60.0024001,,,space,3.4494,0,43,43,10,1,セル　ドキ　シド,,,CartoonStims/boxer_kick_artist_r.jpg,audio/serudokisido.mp3,,,,,,,,,,,,,,,,,,,,,,,,,,,,,,,,,,,,,,,,,,,,,,,,,,,,,,,,,,,,,,,,,,,,,
,,,,,,,,,R_27DR21DT8Syo7Qh,2022-06-26_23h25.38.573,jpn_C01,2022.1.2,MacIntel,60.0024001,,,space,18.5969,0,44,44,36,1,プミ　シド　ピポ,,,CartoonStims/artist_punch_doctor_r.jpg,audio/pumisidopipo.mp3,,,,,,,,,,,,,,,,,,,,,,,,,,,,,,,,,,,,,,,,,,,,,,,,,,,,,,,,,,,,,,,,,,,,,
,,,,,,,,,R_27DR21DT8Syo7Qh,2022-06-26_23h25.38.573,jpn_C01,2022.1.2,MacIntel,60.0024001,,,space,2.7383,0,45,45,18,1,トマ　ムク　ドキ,,,CartoonStims/cowboy_point_boxer_r.jpg,audio/tomamukudoki.mp3,,,,,,,,,,,,,,,,,,,,,,,,,,,,,,,,,,,,,,,,,,,,,,,,,,,,,,,,,,,,,,,,,,,,,
,,,,,,,,,R_27DR21DT8Syo7Qh,2022-06-26_23h25.38.573,jpn_C01,2022.1.2,MacIntel,60.0024001,,,space,2.9188,0,46,46,17,1,トマ　ホレト　ドキ,,,CartoonStims/chef_point_boxer_r.jpg,audio/tomahoretodoki.mp3,,,,,,,,,,,,,,,,,,,,,,,,,,,,,,,,,,,,,,,,,,,,,,,,,,,,,,,,,,,,,,,,,,,,,
,,,,,,,,,R_27DR21DT8Syo7Qh,2022-06-26_23h25.38.573,jpn_C01,2022.1.2,MacIntel,60.0024001,,,space,5.482,0,47,47,2,1,セル 　ルピン 　ホレト,,,CartoonStims/burglar_kick_chef_r.jpg,audio/serulupinhoreto.mp3,,,,,,,,,,,,,,,,,,,,,,,,,,,,,,,,,,,,,,,,,,,,,,,,,,,,,,,,,,,,,,,,,,,,,
,,,,,,,,,R_27DR21DT8Syo7Qh,2022-06-26_23h25.38.573,jpn_C01,2022.1.2,MacIntel,60.0024001,,,,,,,,,,,,,,,space,0.4773,left,1,3.6334,,,,,,,,,,,,,,,,,,0,0,0,0,1,,,,,,,,,,,,,,,,,,,,,,,,,,,,,,,,,,,,,,,,,,
,,,,,,,,,R_27DR21DT8Syo7Qh,2022-06-26_23h25.38.573,jpn_C01,2022.1.2,MacIntel,60.0024001,,,,,,,,,,,,,,,,,,,,,,,,,0,0,0,6,1,CartoonStims/doctor_punch_boxer_r.jpg,プミ　ピポ　ドキ,CartoonStims/doctor_shoot_boxer_r.jpg,left,CartoonStims/doctor_punch_boxer_r.jpg,audio/pumipipodoki.mp3,残念！ こちらが正しい画像です。,,,,,,,,,,,,,,,,,,,,,,,,,,,,,,,,,,,,,,,,,,,,,,,
,,,,,,,,,R_27DR21DT8Syo7Qh,2022-06-26_23h25.38.573,jpn_C01,2022.1.2,MacIntel,60.0024001,,,,,,,,,,,,,,,,,right,1,2.9248,0,0,0,0,1,,,,,,,,,,,,,,,,,,,,,,,,,,,,,,,,,,,,,,,,,,,,,,,,,,,,,,,,,,,
,,,,,,,,,R_27DR21DT8Syo7Qh,2022-06-26_23h25.38.573,jpn_C01,2022.1.2,MacIntel,60.0024001,,,,,,,,,,,,,,,,,,,,,,,,,0,1,1,1,1,CartoonStims/chef_point_burglar_r.jpg,トマ　ホレト　シド,CartoonStims/chef_point_artist_r.jpg,right,CartoonStims/chef_point_artist_r.jpg,audio/tomahoretosido.mp3,残念！ こちらが正しい画像です。,,,,,,,,,,,,,,,,,,,,,,,,,,,,,,,,,,,,,,,,,,,,,,,
,,,,,,,,,R_27DR21DT8Syo7Qh,2022-06-26_23h25.38.573,jpn_C01,2022.1.2,MacIntel,60.0024001,,,,,,,,,,,,,,,,,right,1,1.6071,0,0,0,0,1,,,,,,,,,,,,,,,,,,,,,,,,,,,,,,,,,,,,,,,,,,,,,,,,,,,,,,,,,,,
,,,,,,,,,R_27DR21DT8Syo7Qh,2022-06-26_23h25.38.573,jpn_C01,2022.1.2,MacIntel,60.0024001,,,,,,,,,,,,,,,,,,,,,,,,,0,2,2,5,1,CartoonStims/cowboy_point_chef_r.jpg,パツ　ムク　ホレト,CartoonStims/cowboy_shoot_chef_r.jpg,right,CartoonStims/cowboy_shoot_chef_r.jpg,audio/patsumukuhoreto.mp3,残念！ こちらが正しい画像です。,,,,,,,,,,,,,,,,,,,,,,,,,,,,,,,,,,,,,,,,,,,,,,,
,,,,,,,,,R_27DR21DT8Syo7Qh,2022-06-26_23h25.38.573,jpn_C01,2022.1.2,MacIntel,60.0024001,,,,,,,,,,,,,,,,,left,1,3.1671,,,,,,,,,,,,,,,,,,0,0,0,0,1,,,,,,,,,,,,,,,,,,,,,,,,,,,,,,,,,,,,,,,,,,
,,,,,,,,,R_27DR21DT8Syo7Qh,2022-06-26_23h25.38.573,jpn_C01,2022.1.2,MacIntel,60.0024001,,,,,,,,,,,,,,,,,,,,,,,,,0,3,3,4,1,CartoonStims/burglar_point_boxer_r.jpg,トマ　ルピン　ドキ,CartoonStims/burglar_kick_boxer_r.jpg,left,CartoonStims/burglar_point_boxer_r.jpg,audio/tomalupindoki.mp3,残念！ こちらが正しい画像です。,,,,,,,,,,,,,,,,,,,,,,,,,,,,,,,,,,,,,,,,,,,,,,,
,,,,,,,,,R_27DR21DT8Syo7Qh,2022-06-26_23h25.38.573,jpn_C01,2022.1.2,MacIntel,60.0024001,,,,,,,,,,,,,,,,,left,1,2.4506,,,,,,,,,,,,,,,,,,0,0,0,0,1,,,,,,,,,,,,,,,,,,,,,,,,,,,,,,,,,,,,,,,,,,
,,,,,,,,,R_27DR21DT8Syo7Qh,2022-06-26_23h25.38.573,jpn_C01,2022.1.2,MacIntel,60.0024001,,,,,,,,,,,,,,,,,,,,,,,,,0,4,4,8,1,CartoonStims/doctor_point_cowboy_r.jpg,トマ　ピポ　ムク,CartoonStims/boxer_point_cowboy_r.jpg,left,CartoonStims/doctor_point_cowboy_r.jpg,audio/tomapipomuku.mp3,残念！ こちらが正しい画像です。,,,,,,,,,,,,,,,,,,,,,,,,,,,,,,,,,,,,,,,,,,,,,,,
,,,,,,,,,R_27DR21DT8Syo7Qh,2022-06-26_23h25.38.573,jpn_C01,2022.1.2,MacIntel,60.0024001,,,,,,,,,,,,,,,,,left,1,2.4601,,,,,,,,,,,,,,,,,,0,0,0,0,1,,,,,,,,,,,,,,,,,,,,,,,,,,,,,,,,,,,,,,,,,,
,,,,,,,,,R_27DR21DT8Syo7Qh,2022-06-26_23h25.38.573,jpn_C01,2022.1.2,MacIntel,60.0024001,,,,,,,,,,,,,,,,,,,,,,,,,0,5,5,0,1,CartoonStims/doctor_kick_burglar_r.jpg,セル　ピポ　ルピン,CartoonStims/doctor_kick_chef_r.jpg,left,CartoonStims/doctor_kick_burglar_r.jpg,audio/serupipolupin.mp3,残念！ こちらが正しい画像です。,,,,,,,,,,,,,,,,,,,,,,,,,,,,,,,,,,,,,,,,,,,,,,,
,,,,,,,,,R_27DR21DT8Syo7Qh,2022-06-26_23h25.38.573,jpn_C01,2022.1.2,MacIntel,60.0024001,,,,,,,,,,,,,,,,,right,1,2.8682,0,0,0,0,1,,,,,,,,,,,,,,,,,,,,,,,,,,,,,,,,,,,,,,,,,,,,,,,,,,,,,,,,,,,
,,,,,,,,,R_27DR21DT8Syo7Qh,2022-06-26_23h25.38.573,jpn_C01,2022.1.2,MacIntel,60.0024001,,,,,,,,,,,,,,,,,,,,,,,,,0,6,6,3,1,CartoonStims/cowboy_punch_doctor_r.jpg,プミ　ムク　ドキ,CartoonStims/cowboy_punch_boxer_r.jpg,right,CartoonStims/cowboy_punch_boxer_r.jpg,audio/pumimukudoki.mp3,残念！ こちらが正しい画像です。,,,,,,,,,,,,,,,,,,,,,,,,,,,,,,,,,,,,,,,,,,,,,,,
,,,,,,,,,R_27DR21DT8Syo7Qh,2022-06-26_23h25.38.573,jpn_C01,2022.1.2,MacIntel,60.0024001,,,,,,,,,,,,,,,,,right,1,1.7044,0,0,0,0,1,,,,,,,,,,,,,,,,,,,,,,,,,,,,,,,,,,,,,,,,,,,,,,,,,,,,,,,,,,,
,,,,,,,,,R_27DR21DT8Syo7Qh,2022-06-26_23h25.38.573,jpn_C01,2022.1.2,MacIntel,60.0024001,,,,,,,,,,,,,,,,,,,,,,,,,0,7,7,11,1,CartoonStims/burglar_punch_cowboy_r.jpg,プミ　ホレト　ムク,CartoonStims/chef_punch_cowboy_r.jpg,right,CartoonStims/chef_punch_cowboy_r.jpg,audio/pumihoretomuku.mp3,残念！ こちらが正しい画像です。,,,,,,,,,,,,,,,,,,,,,,,,,,,,,,,,,,,,,,,,,,,,,,,
,,,,,,,,,R_27DR21DT8Syo7Qh,2022-06-26_23h25.38.573,jpn_C01,2022.1.2,MacIntel,60.0024001,,,,,,,,,,,,,,,,,left,1,3.2276,,,,,,,,,,,,,,,,,,0,0,0,0,1,,,,,,,,,,,,,,,,,,,,,,,,,,,,,,,,,,,,,,,,,,
,,,,,,,,,R_27DR21DT8Syo7Qh,2022-06-26_23h25.38.573,jpn_C01,2022.1.2,MacIntel,60.0024001,,,,,,,,,,,,,,,,,,,,,,,,,0,8,8,10,1,CartoonStims/artist_shoot_burglar_r.jpg,パツ　シド　ルピン,CartoonStims/chef_shoot_burglar_r.jpg,left,CartoonStims/artist_shoot_burglar_r.jpg,audio/patsusidolupin.mp3,残念！ こちらが正しい画像です。,,,,,,,,,,,,,,,,,,,,,,,,,,,,,,,,,,,,,,,,,,,,,,,
,,,,,,,,,R_27DR21DT8Syo7Qh,2022-06-26_23h25.38.573,jpn_C01,2022.1.2,MacIntel,60.0024001,,,,,,,,,,,,,,,,,left,1,2.5177,,,,,,,,,,,,,,,,,,0,0,0,0,1,,,,,,,,,,,,,,,,,,,,,,,,,,,,,,,,,,,,,,,,,,
,,,,,,,,,R_27DR21DT8Syo7Qh,2022-06-26_23h25.38.573,jpn_C01,2022.1.2,MacIntel,60.0024001,,,,,,,,,,,,,,,,,,,,,,,,,0,9,9,2,1,CartoonStims/boxer_shoot_doctor_r.jpg,パツ　ドキ　ピポ,CartoonStims/boxer_shoot_artist_r.jpg,left,CartoonStims/boxer_shoot_doctor_r.jpg,audio/patsudokipipo.mp3,残念！ こちらが正しい画像です。,,,,,,,,,,,,,,,,,,,,,,,,,,,,,,,,,,,,,,,,,,,,,,,
,,,,,,,,,R_27DR21DT8Syo7Qh,2022-06-26_23h25.38.573,jpn_C01,2022.1.2,MacIntel,60.0024001,,,,,,,,,,,,,,,,,right,1,1.8576,0,0,0,0,1,,,,,,,,,,,,,,,,,,,,,,,,,,,,,,,,,,,,,,,,,,,,,,,,,,,,,,,,,,,
,,,,,,,,,R_27DR21DT8Syo7Qh,2022-06-26_23h25.38.573,jpn_C01,2022.1.2,MacIntel,60.0024001,,,,,,,,,,,,,,,,,,,,,,,,,0,10,10,7,1,CartoonStims/artist_punch_cowboy_r.jpg,セル　シド　ムク,CartoonStims/artist_kick_cowboy_r.jpg,right,CartoonStims/artist_kick_cowboy_r.jpg,audio/serusidomuku.mp3,残念！ こちらが正しい画像です。,,,,,,,,,,,,,,,,,,,,,,,,,,,,,,,,,,,,,,,,,,,,,,,
,,,,,,,,,R_27DR21DT8Syo7Qh,2022-06-26_23h25.38.573,jpn_C01,2022.1.2,MacIntel,60.0024001,,,,,,,,,,,,,,,,,right,1,1.4714,0,0,0,0,1,,,,,,,,,,,,,,,,,,,,,,,,,,,,,,,,,,,,,,,,,,,,,,,,,,,,,,,,,,,
,,,,,,,,,R_27DR21DT8Syo7Qh,2022-06-26_23h25.38.573,jpn_C01,2022.1.2,MacIntel,60.0024001,,,,,,,,,,,,,,,,,,,,,,,,,0,11,11,9,1,CartoonStims/chef_kick_artist_r.jpg,セル　ムク　シド,CartoonStims/cowboy_kick_artist_r.jpg,right,CartoonStims/cowboy_kick_artist_r.jpg,audio/serumukusido.mp3,残念！ こちらが正しい画像です。,,,,,,,,,,,,,,,,,,,,,,,,,,,,,,,,,,,,,,,,,,,,,,,
,,,,,,,,,R_27DR21DT8Syo7Qh,2022-06-26_23h25.38.573,jpn_C01,2022.1.2,MacIntel,60.0024001,,,,,,,,,,,,,,,,,,,,,,,,,,,,,,,,,,,,,,,,,,space,2.2007,トマ　ホレト　ルピン,right,14.7333,0,0,0,0,1,,,,,,,,,,,,,,,,,,,,,,,,,,,,,,,,
,,,,,,,,,R_27DR21DT8Syo7Qh,2022-06-26_23h25.38.573,jpn_C01,2022.1.2,MacIntel,60.0024001,,,,,,,,,,,,,CartoonStims/chef_point_burglar_r.jpg,audio/tomahoretolupin.mp3,,,,,,,,,,,,,,,,,,,,,,,,,,,,,,,,,,,,,,0,0,0,5,1,トマ　ホレト　ルピン,,,,,,,,,,,,,,,,,,,,,,,,,,
,,,,,,,,,R_27DR21DT8Syo7Qh,2022-06-26_23h25.38.573,jpn_C01,2022.1.2,MacIntel,60.0024001,,,,,,,,,,,,,,,,,,,,,,,,,,,,,,,,,,,,,,,,,,,,パツ　ムク　ピポ,right,13.8708,0,0,0,0,1,,,,,,,,,,,,,,,,,,,,,,,,,,,,,,,,
,,,,,,,,,R_27DR21DT8Syo7Qh,2022-06-26_23h25.38.573,jpn_C01,2022.1.2,MacIntel,60.0024001,,,,,,,,,,,,,CartoonStims/cowboy_shoot_doctor_r.jpg,audio/patsumukupipo.mp3,,,,,,,,,,,,,,,,,,,,,,,,,,,,,,,,,,,,,,0,1,1,8,1,パツ　ムク　ピポ,,,,,,,,,,,,,,,,,,,,,,,,,,
,,,,,,,,,R_27DR21DT8Syo7Qh,2022-06-26_23h25.38.573,jpn_C01,2022.1.2,MacIntel,60.0024001,,,,,,,,,,,,,,,,,,,,,,,,,,,,,,,,,,,,,,,,,,,,パツ　ルピン　ホレト,right,12.4194,0,0,0,0,1,,,,,,,,,,,,,,,,,,,,,,,,,,,,,,,,
,,,,,,,,,R_27DR21DT8Syo7Qh,2022-06-26_23h25.38.573,jpn_C01,2022.1.2,MacIntel,60.0024001,,,,,,,,,,,,,CartoonStims/burglar_shoot_chef_r.jpg,audio/patsulupinhoreto.mp3,,,,,,,,,,,,,,,,,,,,,,,,,,,,,,,,,,,,,,0,2,2,6,1,パツ　ルピン　ホレト,,,,,,,,,,,,,,,,,,,,,,,,,,
,,,,,,,,,R_27DR21DT8Syo7Qh,2022-06-26_23h25.38.573,jpn_C01,2022.1.2,MacIntel,60.0024001,,,,,,,,,,,,,,,,,,,,,,,,,,,,,,,,,,,,,,,,,,,,セル　ピポ　ドキ,right,18.7529,0,0,0,0,1,,,,,,,,,,,,,,,,,,,,,,,,,,,,,,,,
,,,,,,,,,R_27DR21DT8Syo7Qh,2022-06-26_23h25.38.573,jpn_C01,2022.1.2,MacIntel,60.0024001,,,,,,,,,,,,,CartoonStims/doctor_punch_boxer_r.jpg,audio/pumipipodoki.mp3,,,,,,,,,,,,,,,,,,,,,,,,,,,,,,,,,,,,,,0,3,3,10,1,プミ　ピポ　ドキ,,,,,,,,,,,,,,,,,,,,,,,,,,
,,,,,,,,,R_27DR21DT8Syo7Qh,2022-06-26_23h25.38.573,jpn_C01,2022.1.2,MacIntel,60.0024001,,,,,,,,,,,,,,,,,,,,,,,,,,,,,,,,,,,,,,,,,,,,トマ　ルピン　シド,right,11.3686,0,0,0,0,1,,,,,,,,,,,,,,,,,,,,,,,,,,,,,,,,
,,,,,,,,,R_27DR21DT8Syo7Qh,2022-06-26_23h25.38.573,jpn_C01,2022.1.2,MacIntel,60.0024001,,,,,,,,,,,,,CartoonStims/burglar_point_artist_r.jpg,audio/tomalupinsido.mp3,,,,,,,,,,,,,,,,,,,,,,,,,,,,,,,,,,,,,,0,4,4,4,1,トマ　ルピン　シド,,,,,,,,,,,,,,,,,,,,,,,,,,
,,,,,,,,,R_27DR21DT8Syo7Qh,2022-06-26_23h25.38.573,jpn_C01,2022.1.2,MacIntel,60.0024001,,,,,,,,,,,,,,,,,,,,,,,,,,,,,,,,,,,,,,,,,,,,セル　ドキ　ムク,right,43.3274,0,0,0,0,1,,,,,,,,,,,,,,,,,,,,,,,,,,,,,,,,
,,,,,,,,,R_27DR21DT8Syo7Qh,2022-06-26_23h25.38.573,jpn_C01,2022.1.2,MacIntel,60.0024001,,,,,,,,,,,,,CartoonStims/boxer_kick_cowboy_r.jpg,audio/serudokimuku.mp3,,,,,,,,,,,,,,,,,,,,,,,,,,,,,,,,,,,,,,0,5,5,2,1,セル　ドキ　ムク,,,,,,,,,,,,,,,,,,,,,,,,,,
,,,,,,,,,R_27DR21DT8Syo7Qh,2022-06-26_23h25.38.573,jpn_C01,2022.1.2,MacIntel,60.0024001,,,,,,,,,,,,,,,,,,,,,,,,,,,,,,,,,,,,,,,,,,,,プミ　ドキ　シド,right,10.3696,0,0,0,0,1,,,,,,,,,,,,,,,,,,,,,,,,,,,,,,,,
,,,,,,,,,R_27DR21DT8Syo7Qh,2022-06-26_23h25.38.573,jpn_C01,2022.1.2,MacIntel,60.0024001,,,,,,,,,,,,,CartoonStims/boxer_punch_artist_r.jpg,audio/pumidokisido.mp3,,,,,,,,,,,,,,,,,,,,,,,,,,,,,,,,,,,,,,0,6,6,11,1,プミ　ドキ　シド,,,,,,,,,,,,,,,,,,,,,,,,,,
,,,,,,,,,R_27DR21DT8Syo7Qh,2022-06-26_23h25.38.573,jpn_C01,2022.1.2,MacIntel,60.0024001,,,,,,,,,,,,,,,,,,,,,,,,,,,,,,,,,,,,,,,,,,,,プミ　シド　ルピン,right,10.1286,0,0,0,0,1,,,,,,,,,,,,,,,,,,,,,,,,,,,,,,,,
,,,,,,,,,R_27DR21DT8Syo7Qh,2022-06-26_23h25.38.573,jpn_C01,2022.1.2,MacIntel,60.0024001,,,,,,,,,,,,,CartoonStims/artist_punch_burglar_r.jpg,audio/pumisidolupin.mp3,,,,,,,,,,,,,,,,,,,,,,,,,,,,,,,,,,,,,,0,7,7,9,1,プミ　シド　ルピン,,,,,,,,,,,,,,,,,,,,,,,,,,
,,,,,,,,,R_27DR21DT8Syo7Qh,2022-06-26_23h25.38.573,jpn_C01,2022.1.2,MacIntel,60.0024001,,,,,,,,,,,,,,,,,,,,,,,,,,,,,,,,,,,,,,,,,,,,セル　ムク　ルピン,right,7.889,0,0,0,0,1,,,,,,,,,,,,,,,,,,,,,,,,,,,,,,,,
,,,,,,,,,R_27DR21DT8Syo7Qh,2022-06-26_23h25.38.573,jpn_C01,2022.1.2,MacIntel,60.0024001,,,,,,,,,,,,,CartoonStims/cowboy_kick_burglar_r.jpg,audio/serumukulupin.mp3,,,,,,,,,,,,,,,,,,,,,,,,,,,,,,,,,,,,,,0,8,8,0,1,セル　ムク　ルピン,,,,,,,,,,,,,,,,,,,,,,,,,,
,,,,,,,,,R_27DR21DT8Syo7Qh,2022-06-26_23h25.38.573,jpn_C01,2022.1.2,MacIntel,60.0024001,,,,,,,,,,,,,,,,,,,,,,,,,,,,,,,,,,,,,,,,,,,,パツ　ホレト　ムク,right,9.5802,0,0,0,0,1,,,,,,,,,,,,,,,,,,,,,,,,,,,,,,,,
,,,,,,,,,R_27DR21DT8Syo7Qh,2022-06-26_23h25.38.573,jpn_C01,2022.1.2,MacIntel,60.0024001,,,,,,,,,,,,,CartoonStims/chef_shoot_cowboy_r.jpg,audio/patsuhoretomuku.mp3,,,,,,,,,,,,,,,,,,,,,,,,,,,,,,,,,,,,,,0,9,9,7,1,パツ　ホレト　ムク,,,,,,,,,,,,,,,,,,,,,,,,,,
,,,,,,,,,R_27DR21DT8Syo7Qh,2022-06-26_23h25.38.573,jpn_C01,2022.1.2,MacIntel,60.0024001,,,,,,,,,,,,,,,,,,,,,,,,,,,,,,,,,,,,,,,,,,,,トマ　シド　ドキ,right,8.4547,0,0,0,0,1,,,,,,,,,,,,,,,,,,,,,,,,,,,,,,,,
,,,,,,,,,R_27DR21DT8Syo7Qh,2022-06-26_23h25.38.573,jpn_C01,2022.1.2,MacIntel,60.0024001,,,,,,,,,,,,,CartoonStims/artist_point_boxer_r.jpg,audio/tomasidodoki.mp3,,,,,,,,,,,,,,,,,,,,,,,,,,,,,,,,,,,,,,0,10,10,3,1,トマ　シド　ドキ,,,,,,,,,,,,,,,,,,,,,,,,,,
,,,,,,,,,R_27DR21DT8Syo7Qh,2022-06-26_23h25.38.573,jpn_C01,2022.1.2,MacIntel,60.0024001,,,,,,,,,,,,,,,,,,,,,,,,,,,,,,,,,,,,,,,,,,,,セル　ピポ　ホレト,right,9.562,0,0,0,0,1,,,,,,,,,,,,,,,,,,,,,,,,,,,,,,,,
,,,,,,,,,R_27DR21DT8Syo7Qh,2022-06-26_23h25.38.573,jpn_C01,2022.1.2,MacIntel,60.0024001,,,,,,,,,,,,,CartoonStims/doctor_kick_chef_r.jpg,audio/serupipohoreto.mp3,,,,,,,,,,,,,,,,,,,,,,,,,,,,,,,,,,,,,,0,11,11,1,1,セル　ピポ　ホレト,,,,,,,,,,,,,,,,,,,,,,,,,,
,,,,,,,,,R_27DR21DT8Syo7Qh,2022-06-26_23h25.38.573,jpn_C01,2022.1.2,MacIntel,60.0024001,,,,,,,,,,,,,,,,,,,,,,,,,,,,,,,,,,,,,,,,,,,,,,,,,,,,,,,,,,,space,12.7116,0,1,1,1,1,AffExposure.xlsx,"第二のトライアルの学習では、この言語で書かれた文を見ていただきます。引き続き注意して、 聞こえた音を復唱してください。


スペースキーを押してください。",1,AffFCT.xlsx,ここからクイズが始まります。 スクリーンに表示されるテキストに合う画像を選んでください。,AffTest.xlsx,1,次にここまで学んだことをアウトプットしていただきます。 表示される画像を描写していると思う単語を、テキストボックスにタイプしてください。 答えを提出したあとに正しい正解が少しの間画面に写ります。,1,"これで第二のトライアルが終了しました。 ここで休憩をとっていただいても構いません。

休憩が終わりましたら、 スペースキーを押して続きの学習を行いましょう。",,,,,,,,
,,,,,,,,,R_27DR21DT8Syo7Qh,2022-06-26_23h25.38.573,jpn_C01,2022.1.2,MacIntel,60.0024001,space,3.4511,space,11.2337,0,0,0,38,1,ピク　プミ　ルピン　ドキ,,,CartoonStims/burglar_punch_boxer_r_no.jpg,audio/pikupumilupindoki.mp3,,,,,,,,,,,,,,,,,,,,,,,,,,,,,,,,,,,,,,,,,,,,,,,,,,,,,,,,,,,,,,,,,,,,,
,,,,,,,,,R_27DR21DT8Syo7Qh,2022-06-26_23h25.38.573,jpn_C01,2022.1.2,MacIntel,60.0024001,,,space,3.783,0,1,1,27,1,ピク　パツ　ルピン　ドキ,,,CartoonStims/burglar_shoot_boxer_r_no.jpg,audio/pikupatsulupindoki.mp3,,,,,,,,,,,,,,,,,,,,,,,,,,,,,,,,,,,,,,,,,,,,,,,,,,,,,,,,,,,,,,,,,,,,,
,,,,,,,,,R_27DR21DT8Syo7Qh,2022-06-26_23h25.38.573,jpn_C01,2022.1.2,MacIntel,60.0024001,,,space,17.005,0,2,2,26,1,パツ　ピク　ルピン　ピポ,,,CartoonStims/burglar_shoot_doctor_r_no.jpg,audio/patsupikulupinpipo.mp3,,,,,,,,,,,,,,,,,,,,,,,,,,,,,,,,,,,,,,,,,,,,,,,,,,,,,,,,,,,,,,,,,,,,,
,,,,,,,,,R_27DR21DT8Syo7Qh,2022-06-26_23h25.38.573,jpn_C01,2022.1.2,MacIntel,60.0024001,,,space,6.5293,0,3,3,40,1,ピク　プミ　ホレト　シド,,,CartoonStims/chef_punch_artist_r_no.jpg,audio/pikupumihoretosido.mp3,,,,,,,,,,,,,,,,,,,,,,,,,,,,,,,,,,,,,,,,,,,,,,,,,,,,,,,,,,,,,,,,,,,,,
,,,,,,,,,R_27DR21DT8Syo7Qh,2022-06-26_23h25.38.573,jpn_C01,2022.1.2,MacIntel,60.0024001,,,space,6.9442,0,4,4,46,1,ピク　プミ　ドキ　ムク,,,CartoonStims/boxer_punch_cowboy_r_no.jpg,audio/pikupumidokimuku.mp3,,,,,,,,,,,,,,,,,,,,,,,,,,,,,,,,,,,,,,,,,,,,,,,,,,,,,,,,,,,,,,,,,,,,,
,,,,,,,,,R_27DR21DT8Syo7Qh,2022-06-26_23h25.38.573,jpn_C01,2022.1.2,MacIntel,60.0024001,,,space,4.935,0,5,5,21,1,ピク　トマ　ピポ　ルピン,,,CartoonStims/doctor_point_burglar_r_no.jpg,audio/pikutomapipolupin.mp3,,,,,,,,,,,,,,,,,,,,,,,,,,,,,,,,,,,,,,,,,,,,,,,,,,,,,,,,,,,,,,,,,,,,,
,,,,,,,,,R_27DR21DT8Syo7Qh,2022-06-26_23h25.38.573,jpn_C01,2022.1.2,MacIntel,60.0024001,,,space,12.0094,0,6,6,20,1,トマ　ピク　ピポ　シド,,,CartoonStims/doctor_point_artist_r_no.jpg,audio/tomapikupiposido.mp3,,,,,,,,,,,,,,,,,,,,,,,,,,,,,,,,,,,,,,,,,,,,,,,,,,,,,,,,,,,,,,,,,,,,,
,,,,,,,,,R_27DR21DT8Syo7Qh,2022-06-26_23h25.38.573,jpn_C01,2022.1.2,MacIntel,60.0024001,,,space,8.3189,0,7,7,9,1,セル　ピク　ピポ　シド,,,CartoonStims/doctor_kick_artist_r_no.jpg,audio/serupikupiposido.mp3,,,,,,,,,,,,,,,,,,,,,,,,,,,,,,,,,,,,,,,,,,,,,,,,,,,,,,,,,,,,,,,,,,,,,
,,,,,,,,,R_27DR21DT8Syo7Qh,2022-06-26_23h25.38.573,jpn_C01,2022.1.2,MacIntel,60.0024001,,,space,22.6106,0,8,8,24,1,パツ　ピク　シド　ムク,,,CartoonStims/artist_shoot_cowboy_r_no.jpg,audio/patsupikusidomuku.mp3,,,,,,,,,,,,,,,,,,,,,,,,,,,,,,,,,,,,,,,,,,,,,,,,,,,,,,,,,,,,,,,,,,,,,
,,,,,,,,,R_27DR21DT8Syo7Qh,2022-06-26_23h25.38.573,jpn_C01,2022.1.2,MacIntel,60.0024001,,,space,9.3006,0,9,9,44,1,ピク　プミ　ピポ　ホレト,,,CartoonStims/doctor_punch_chef_r_no.jpg,audio/pikupumipipohoreto.mp3,,,,,,,,,,,,,,,,,,,,,,,,,,,,,,,,,,,,,,,,,,,,,,,,,,,,,,,,,,,,,,,,,,,,,
,,,,,,,,,R_27DR21DT8Syo7Qh,2022-06-26_23h25.38.573,jpn_C01,2022.1.2,MacIntel,60.0024001,,,space,7.4787,0,10,10,5,1,セル　ピク　ホレト　ピポ,,,CartoonStims/chef_kick_doctor_r_no.jpg,audio/serupikuhoretopipo.mp3,,,,,,,,,,,,,,,,,,,,,,,,,,,,,,,,,,,,,,,,,,,,,,,,,,,,,,,,,,,,,,,,,,,,,
,,,,,,,,,R_27DR21DT8Syo7Qh,2022-06-26_23h25.38.573,jpn_C01,2022.1.2,MacIntel,60.0024001,,,space,7.5572,0,11,11,28,1,パツ　ピク　ホレト　ドキ,,,CartoonStims/chef_shoot_boxer_r_no.jpg,audio/patsupikuhoretodoki.mp3,,,,,,,,,,,,,,,,,,,,,,,,,,,,,,,,,,,,,,,,,,,,,,,,,,,,,,,,,,,,,,,,,,,,,
,,,,,,,,,R_27DR21DT8Syo7Qh,2022-06-26_23h25.38.573,jpn_C01,2022.1.2,MacIntel,60.0024001,,,space,2.7346,0,12,12,32,1,パツ　ピク　ピポ　ルピン,,,CartoonStims/doctor_shoot_burglar_r_no.jpg,audio/patsupikupipolupin.mp3,,,,,,,,,,,,,,,,,,,,,,,,,,,,,,,,,,,,,,,,,,,,,,,,,,,,,,,,,,,,,,,,,,,,,
,,,,,,,,,R_27DR21DT8Syo7Qh,2022-06-26_23h25.38.573,jpn_C01,2022.1.2,MacIntel,60.0024001,,,space,11.1331,0,13,13,25,1,ピク　パツ　シド　ピポ,,,CartoonStims/artist_shoot_doctor_r_no.jpg,audio/pikupatsusidopipo.mp3,,,,,,,,,,,,,,,,,,,,,,,,,,,,,,,,,,,,,,,,,,,,,,,,,,,,,,,,,,,,,,,,,,,,,
,,,,,,,,,R_27DR21DT8Syo7Qh,2022-06-26_23h25.38.573,jpn_C01,2022.1.2,MacIntel,60.0024001,,,space,6.4939,0,14,14,4,1,ピク　セル　ホレト　ムク,,,CartoonStims/chef_kick_cowboy_r_no.jpg,audio/pikuseruhoretomuku.mp3,,,,,,,,,,,,,,,,,,,,,,,,,,,,,,,,,,,,,,,,,,,,,,,,,,,,,,,,,,,,,,,,,,,,,
,,,,,,,,,R_27DR21DT8Syo7Qh,2022-06-26_23h25.38.573,jpn_C01,2022.1.2,MacIntel,60.0024001,,,space,4.259,0,15,15,18,1,トマ　ピク　ムク　ドキ,,,CartoonStims/cowboy_point_boxer_r_no.jpg,audio/tomapikumukudoki.mp3,,,,,,,,,,,,,,,,,,,,,,,,,,,,,,,,,,,,,,,,,,,,,,,,,,,,,,,,,,,,,,,,,,,,,
,,,,,,,,,R_27DR21DT8Syo7Qh,2022-06-26_23h25.38.573,jpn_C01,2022.1.2,MacIntel,60.0024001,,,space,5.3109,0,16,16,23,1,ピク　トマ　ドキ　ホレト,,,CartoonStims/boxer_point_chef_r_no.jpg,audio/pikutomadokihoreto.mp3,,,,,,,,,,,,,,,,,,,,,,,,,,,,,,,,,,,,,,,,,,,,,,,,,,,,,,,,,,,,,,,,,,,,,
,,,,,,,,,R_27DR21DT8Syo7Qh,2022-06-26_23h25.38.573,jpn_C01,2022.1.2,MacIntel,60.0024001,,,space,7.156,0,17,17,11,1,セル　ピク　ドキ　ルピン,,,CartoonStims/boxer_kick_burglar_r_no.jpg,audio/serupikudokilupin.mp3,,,,,,,,,,,,,,,,,,,,,,,,,,,,,,,,,,,,,,,,,,,,,,,,,,,,,,,,,,,,,,,,,,,,,
,,,,,,,,,R_27DR21DT8Syo7Qh,2022-06-26_23h25.38.573,jpn_C01,2022.1.2,MacIntel,60.0024001,,,space,8.5914,0,18,18,47,1,プミ　ピク　ドキ　ピポ,,,CartoonStims/boxer_punch_doctor_r_no.jpg,audio/pumipikudokipipo.mp3,,,,,,,,,,,,,,,,,,,,,,,,,,,,,,,,,,,,,,,,,,,,,,,,,,,,,,,,,,,,,,,,,,,,,
,,,,,,,,,R_27DR21DT8Syo7Qh,2022-06-26_23h25.38.573,jpn_C01,2022.1.2,MacIntel,60.0024001,,,space,6.5411,0,19,19,14,1,トマ　ピク　ルピン　ムク,,,CartoonStims/burglar_point_cowboy_r_no.jpg,audio/tomapikulupinmuku.mp3,,,,,,,,,,,,,,,,,,,,,,,,,,,,,,,,,,,,,,,,,,,,,,,,,,,,,,,,,,,,,,,,,,,,,
,,,,,,,,,R_27DR21DT8Syo7Qh,2022-06-26_23h25.38.573,jpn_C01,2022.1.2,MacIntel,60.0024001,,,space,5.3502,0,20,20,42,1,ピク　プミ　ムク　ルピン,,,CartoonStims/cowboy_punch_burglar_r_no.jpg,audio/pikupumimukulupin.mp3,,,,,,,,,,,,,,,,,,,,,,,,,,,,,,,,,,,,,,,,,,,,,,,,,,,,,,,,,,,,,,,,,,,,,
,,,,,,,,,R_27DR21DT8Syo7Qh,2022-06-26_23h25.38.573,jpn_C01,2022.1.2,MacIntel,60.0024001,,,space,7.3832,0,21,21,30,1,パツ　ピク　ムク　シド,,,CartoonStims/cowboy_shoot_artist_r_no.jpg,audio/patsupikumukusido.mp3,,,,,,,,,,,,,,,,,,,,,,,,,,,,,,,,,,,,,,,,,,,,,,,,,,,,,,,,,,,,,,,,,,,,,
,,,,,,,,,R_27DR21DT8Syo7Qh,2022-06-26_23h25.38.573,jpn_C01,2022.1.2,MacIntel,60.0024001,,,space,4.4162,0,22,22,37,1,プミ　ピク　シド　ドキ,,,CartoonStims/artist_punch_boxer_r_no.jpg,audio/pumipikusidodoki.mp3,,,,,,,,,,,,,,,,,,,,,,,,,,,,,,,,,,,,,,,,,,,,,,,,,,,,,,,,,,,,,,,,,,,,,
,,,,,,,,,R_27DR21DT8Syo7Qh,2022-06-26_23h25.38.573,jpn_C01,2022.1.2,MacIntel,60.0024001,,,space,7.8202,0,23,23,22,1,トマ　ピク　ドキ　ルピン,,,CartoonStims/boxer_point_burglar_r_no.jpg,audio/tomapikudokilupin.mp3,,,,,,,,,,,,,,,,,,,,,,,,,,,,,,,,,,,,,,,,,,,,,,,,,,,,,,,,,,,,,,,,,,,,,
,,,,,,,,,R_27DR21DT8Syo7Qh,2022-06-26_23h25.38.573,jpn_C01,2022.1.2,MacIntel,60.0024001,,,space,5.7577,0,24,24,8,1,ピク　セル　ピポ　ドキ,,,CartoonStims/doctor_kick_boxer_r_no.jpg,audio/pikuserupipodoki.mp3,,,,,,,,,,,,,,,,,,,,,,,,,,,,,,,,,,,,,,,,,,,,,,,,,,,,,,,,,,,,,,,,,,,,,
,,,,,,,,,R_27DR21DT8Syo7Qh,2022-06-26_23h25.38.573,jpn_C01,2022.1.2,MacIntel,60.0024001,,,space,6.013,0,25,25,29,1,ピク　パツ　ホレト　シド,,,CartoonStims/chef_shoot_artist_r_no.jpg,audio/pikupatsuhoretosido.mp3,,,,,,,,,,,,,,,,,,,,,,,,,,,,,,,,,,,,,,,,,,,,,,,,,,,,,,,,,,,,,,,,,,,,,
,,,,,,,,,R_27DR21DT8Syo7Qh,2022-06-26_23h25.38.573,jpn_C01,2022.1.2,MacIntel,60.0024001,,,space,3.6735,0,26,26,16,1,トマ　ピク　ホレト　ピポ,,,CartoonStims/chef_point_doctor_r_no.jpg,audio/tomapikuhoretopipo.mp3,,,,,,,,,,,,,,,,,,,,,,,,,,,,,,,,,,,,,,,,,,,,,,,,,,,,,,,,,,,,,,,,,,,,,
,,,,,,,,,R_27DR21DT8Syo7Qh,2022-06-26_23h25.38.573,jpn_C01,2022.1.2,MacIntel,60.0024001,,,space,6.3421,0,27,27,17,1,ピク　トマ　ホレト　ドキ,,,CartoonStims/chef_point_boxer_r_no.jpg,audio/pikutomahoretodoki.mp3,,,,,,,,,,,,,,,,,,,,,,,,,,,,,,,,,,,,,,,,,,,,,,,,,,,,,,,,,,,,,,,,,,,,,
,,,,,,,,,R_27DR21DT8Syo7Qh,2022-06-26_23h25.38.573,jpn_C01,2022.1.2,MacIntel,60.0024001,,,space,7.0505,0,28,28,43,1,プミ　ピク　ムク　ホレト,,,CartoonStims/cowboy_punch_chef_r_no.jpg,audio/pumipikumukuhoreto.mp3,,,,,,,,,,,,,,,,,,,,,,,,,,,,,,,,,,,,,,,,,,,,,,,,,,,,,,,,,,,,,,,,,,,,,
,,,,,,,,,R_27DR21DT8Syo7Qh,2022-06-26_23h25.38.573,jpn_C01,2022.1.2,MacIntel,60.0024001,,,space,8.1285,0,29,29,31,1,ピク　パツ　ムク　ルピン,,,CartoonStims/cowboy_shoot_burglar_r_no.jpg,audio/pikupatsumukulupin.mp3,,,,,,,,,,,,,,,,,,,,,,,,,,,,,,,,,,,,,,,,,,,,,,,,,,,,,,,,,,,,,,,,,,,,,
,,,,,,,,,R_27DR21DT8Syo7Qh,2022-06-26_23h25.38.573,jpn_C01,2022.1.2,MacIntel,60.0024001,,,space,4.8767,0,30,30,15,1,ピク　トマ　ルピン　ピポ,,,CartoonStims/burglar_point_doctor_r_no.jpg,audio/pikutomalupinpipo.mp3,,,,,,,,,,,,,,,,,,,,,,,,,,,,,,,,,,,,,,,,,,,,,,,,,,,,,,,,,,,,,,,,,,,,,
,,,,,,,,,R_27DR21DT8Syo7Qh,2022-06-26_23h25.38.573,jpn_C01,2022.1.2,MacIntel,60.0024001,,,space,4.9994,0,31,31,1,1,セル　ピク　シド　ホレト,,,CartoonStims/artist_kick_chef_r_no.jpg,audio/serupikusidohoreto.mp3,,,,,,,,,,,,,,,,,,,,,,,,,,,,,,,,,,,,,,,,,,,,,,,,,,,,,,,,,,,,,,,,,,,,,
,,,,,,,,,R_27DR21DT8Syo7Qh,2022-06-26_23h25.38.573,jpn_C01,2022.1.2,MacIntel,60.0024001,,,space,5.5812,0,32,32,33,1,ピク　パツ　ピポ　ホレト,,,CartoonStims/doctor_shoot_chef_r_no.jpg,audio/pikupatsupipohoreto.mp3,,,,,,,,,,,,,,,,,,,,,,,,,,,,,,,,,,,,,,,,,,,,,,,,,,,,,,,,,,,,,,,,,,,,,
,,,,,,,,,R_27DR21DT8Syo7Qh,2022-06-26_23h25.38.573,jpn_C01,2022.1.2,MacIntel,60.0024001,,,space,4.861,0,33,33,19,1,ピク　トマ　ムク　シド,,,CartoonStims/cowboy_point_artist_r_no.jpg,audio/pikutomamukusido.mp3,,,,,,,,,,,,,,,,,,,,,,,,,,,,,,,,,,,,,,,,,,,,,,,,,,,,,,,,,,,,,,,,,,,,,
,,,,,,,,,R_27DR21DT8Syo7Qh,2022-06-26_23h25.38.573,jpn_C01,2022.1.2,MacIntel,60.0024001,,,space,8.6665,0,34,34,45,1,プミ　ピク　ピポ　ムク,,,CartoonStims/doctor_punch_cowboy_r_no.jpg,audio/pumipikupipomuku.mp3,,,,,,,,,,,,,,,,,,,,,,,,,,,,,,,,,,,,,,,,,,,,,,,,,,,,,,,,,,,,,,,,,,,,,
,,,,,,,,,R_27DR21DT8Syo7Qh,2022-06-26_23h25.38.573,jpn_C01,2022.1.2,MacIntel,60.0024001,,,space,4.0903,0,35,35,36,1,ピク　プミ　シド　ピポ,,,CartoonStims/artist_punch_doctor_r_no.jpg,audio/pikupumisidopipo.mp3,,,,,,,,,,,,,,,,,,,,,,,,,,,,,,,,,,,,,,,,,,,,,,,,,,,,,,,,,,,,,,,,,,,,,
,,,,,,,,,R_27DR21DT8Syo7Qh,2022-06-26_23h25.38.573,jpn_C01,2022.1.2,MacIntel,60.0024001,,,space,5.6826,0,36,36,2,1,ピク　セル　ルピン　ホレト,,,CartoonStims/burglar_kick_chef_r_no.jpg,audio/pikuserulupinhoreto.mp3,,,,,,,,,,,,,,,,,,,,,,,,,,,,,,,,,,,,,,,,,,,,,,,,,,,,,,,,,,,,,,,,,,,,,
,,,,,,,,,R_27DR21DT8Syo7Qh,2022-06-26_23h25.38.573,jpn_C01,2022.1.2,MacIntel,60.0024001,,,space,9.9853,0,37,37,3,1,セル　ピク　ルピン　ムク,,,CartoonStims/burglar_kick_cowboy_r_no.jpg,audio/serupikulupinmuku.mp3,,,,,,,,,,,,,,,,,,,,,,,,,,,,,,,,,,,,,,,,,,,,,,,,,,,,,,,,,,,,,,,,,,,,,
,,,,,,,,,R_27DR21DT8Syo7Qh,2022-06-26_23h25.38.573,jpn_C01,2022.1.2,MacIntel,60.0024001,,,space,9.2222,0,38,38,6,1,ピク　セル　ムク　ピポ,,,CartoonStims/cowboy_kick_doctor_r_no.jpg,audio/pikuserumukupipo.mp3,,,,,,,,,,,,,,,,,,,,,,,,,,,,,,,,,,,,,,,,,,,,,,,,,,,,,,,,,,,,,,,,,,,,,
,,,,,,,,,R_27DR21DT8Syo7Qh,2022-06-26_23h25.38.573,jpn_C01,2022.1.2,MacIntel,60.0024001,,,space,14.8512,0,39,39,39,1,プミ　ピク　ルピン　シド,,,CartoonStims/burglar_punch_artist_r_no.jpg,audio/pumipikulupinsido.mp3,,,,,,,,,,,,,,,,,,,,,,,,,,,,,,,,,,,,,,,,,,,,,,,,,,,,,,,,,,,,,,,,,,,,,
,,,,,,,,,R_27DR21DT8Syo7Qh,2022-06-26_23h25.38.573,jpn_C01,2022.1.2,MacIntel,60.0024001,,,space,6.3658,0,40,40,7,1,セル　ピク　ムク　ドキ,,,CartoonStims/cowboy_kick_boxer_r_no.jpg,audio/serupikumukudoki.mp3,,,,,,,,,,,,,,,,,,,,,,,,,,,,,,,,,,,,,,,,,,,,,,,,,,,,,,,,,,,,,,,,,,,,,
,,,,,,,,,R_27DR21DT8Syo7Qh,2022-06-26_23h25.38.573,jpn_C01,2022.1.2,MacIntel,60.0024001,,,space,4.6157,0,41,41,10,1,ピク　セル　ドキ　シド,,,CartoonStims/boxer_kick_artist_r_no.jpg,audio/pikuserudokisido.mp3,,,,,,,,,,,,,,,,,,,,,,,,,,,,,,,,,,,,,,,,,,,,,,,,,,,,,,,,,,,,,,,,,,,,,
,,,,,,,,,R_27DR21DT8Syo7Qh,2022-06-26_23h25.38.573,jpn_C01,2022.1.2,MacIntel,60.0024001,,,space,10.111,0,42,42,12,1,トマ　ピク　シド　ホレト,,,CartoonStims/artist_point_chef_r_no.jpg,audio/tomapikusidohoreto.mp3,,,,,,,,,,,,,,,,,,,,,,,,,,,,,,,,,,,,,,,,,,,,,,,,,,,,,,,,,,,,,,,,,,,,,
,,,,,,,,,R_27DR21DT8Syo7Qh,2022-06-26_23h25.38.573,jpn_C01,2022.1.2,MacIntel,60.0024001,,,space,5.5093,0,43,43,35,1,ピク　パツ　ドキ　ムク,,,CartoonStims/boxer_shoot_cowboy_r_no.jpg,audio/pikupatsudokimuku.mp3,,,,,,,,,,,,,,,,,,,,,,,,,,,,,,,,,,,,,,,,,,,,,,,,,,,,,,,,,,,,,,,,,,,,,
,,,,,,,,,R_27DR21DT8Syo7Qh,2022-06-26_23h25.38.573,jpn_C01,2022.1.2,MacIntel,60.0024001,,,space,9.3245,0,44,44,41,1,プミ　ピク　ホレト　ルピン,,,CartoonStims/chef_punch_burglar_r_no.jpg,audio/pumipikuhoretolupin.mp3,,,,,,,,,,,,,,,,,,,,,,,,,,,,,,,,,,,,,,,,,,,,,,,,,,,,,,,,,,,,,,,,,,,,,
,,,,,,,,,R_27DR21DT8Syo7Qh,2022-06-26_23h25.38.573,jpn_C01,2022.1.2,MacIntel,60.0024001,,,space,7.4308,0,45,45,34,1,パツ　ピク　ドキ　ホレト,,,CartoonStims/boxer_shoot_chef_r_no.jpg,audio/patsupikudokihoreto.mp3,,,,,,,,,,,,,,,,,,,,,,,,,,,,,,,,,,,,,,,,,,,,,,,,,,,,,,,,,,,,,,,,,,,,,
,,,,,,,,,R_27DR21DT8Syo7Qh,2022-06-26_23h25.38.573,jpn_C01,2022.1.2,MacIntel,60.0024001,,,space,4.77,0,46,46,13,1,ピク　トマ　シド　ムク,,,CartoonStims/artist_point_cowboy_r_no.jpg,audio/pikutomasidomuku.mp3,,,,,,,,,,,,,,,,,,,,,,,,,,,,,,,,,,,,,,,,,,,,,,,,,,,,,,,,,,,,,,,,,,,,,
,,,,,,,,,R_27DR21DT8Syo7Qh,2022-06-26_23h25.38.573,jpn_C01,2022.1.2,MacIntel,60.0024001,,,space,3.3854,0,47,47,0,1,ピク　セル　シド　ルピン,,,CartoonStims/artist_kick_burglar_r_no.jpg,audio/pikuserusidolupin.mp3,,,,,,,,,,,,,,,,,,,,,,,,,,,,,,,,,,,,,,,,,,,,,,,,,,,,,,,,,,,,,,,,,,,,,
,,,,,,,,,R_27DR21DT8Syo7Qh,2022-06-26_23h25.38.573,jpn_C01,2022.1.2,MacIntel,60.0024001,,,,,,,,,,,,,,,space,0.0934,left,0,6.1243,,,,,,,,,,,,,,,,,,,,,,,,,,,,,,,,,,,,,,,,,,,,,,,,,,,,,,,,,0,0,0,0,1,,,
,,,,,,,,,R_27DR21DT8Syo7Qh,2022-06-26_23h25.38.573,jpn_C01,2022.1.2,MacIntel,60.0024001,,,,,,,,,,,,,,,,,,,,,,,,,0,0,0,9,1,CartoonStims/boxer_shoot_doctor_r.jpg,パツ　ピク　ドキ　ピポ,CartoonStims/boxer_point_doctor_r.jpg,right,CartoonStims/boxer_point_doctor_r.jpg,audio/patsupikudokipipo.mp3,"残念！ こちらが正しい画像です。

否定文は起きていないことを示しているのを思い出してください。",,,,,,,,,,,,,,,,,,,,,,,,,,,,,,,,,,,,,,,,,,,,,,,
,,,,,,,,,R_27DR21DT8Syo7Qh,2022-06-26_23h25.38.573,jpn_C01,2022.1.2,MacIntel,60.0024001,,,,,,,,,,,,,,,,,right,1,7.8439,0,0,0,0,1,,,,,,,,,,,,,,,,,,,,,,,,,,,,,,,,,,,,,,,,,,,,,,,,,,,,,,,,,,,
,,,,,,,,,R_27DR21DT8Syo7Qh,2022-06-26_23h25.38.573,jpn_C01,2022.1.2,MacIntel,60.0024001,,,,,,,,,,,,,,,,,,,,,,,,,0,1,1,1,1,CartoonStims/chef_punch_cowboy_r.jpg,プミ　ピク　ホレト　ムク,CartoonStims/chef_kick_cowboy_r.jpg,right,CartoonStims/chef_kick_cowboy_r.jpg,audio/pumipikuhoretomuku.mp3,"残念！ こちらが正しい画像です。

否定文は起きていないことを示しているのを思い出してください。",,,,,,,,,,,,,,,,,,,,,,,,,,,,,,,,,,,,,,,,,,,,,,,
,,,,,,,,,R_27DR21DT8Syo7Qh,2022-06-26_23h25.38.573,jpn_C01,2022.1.2,MacIntel,60.0024001,,,,,,,,,,,,,,,,,right,1,4.6345,0,0,0,0,1,,,,,,,,,,,,,,,,,,,,,,,,,,,,,,,,,,,,,,,,,,,,,,,,,,,,,,,,,,,
,,,,,,,,,R_27DR21DT8Syo7Qh,2022-06-26_23h25.38.573,jpn_C01,2022.1.2,MacIntel,60.0024001,,,,,,,,,,,,,,,,,,,,,,,,,0,2,2,7,1,CartoonStims/cowboy_point_chef_r.jpg,ピク　トマ　ムク　ホレト,CartoonStims/cowboy_kick_chef_r.jpg,right,CartoonStims/cowboy_kick_chef_r.jpg,audio/pikutomamukuhoreto.mp3,"残念！ こちらが正しい画像です。

否定文は起きていないことを示しているのを思い出してください。",,,,,,,,,,,,,,,,,,,,,,,,,,,,,,,,,,,,,,,,,,,,,,,
,,,,,,,,,R_27DR21DT8Syo7Qh,2022-06-26_23h25.38.573,jpn_C01,2022.1.2,MacIntel,60.0024001,,,,,,,,,,,,,,,,,left,1,8.5988,,,,,,,,,,,,,,,,,,0,0,0,0,1,,,,,,,,,,,,,,,,,,,,,,,,,,,,,,,,,,,,,,,,,,
,,,,,,,,,R_27DR21DT8Syo7Qh,2022-06-26_23h25.38.573,jpn_C01,2022.1.2,MacIntel,60.0024001,,,,,,,,,,,,,,,,,,,,,,,,,0,3,3,4,1,CartoonStims/burglar_shoot_doctor_r.jpg,セル　ピク　ルピン　ピポ,CartoonStims/burglar_kick_doctor_r.jpg,left,CartoonStims/burglar_shoot_doctor_r.jpg,audio/serupikulupinpipo.mp3,"残念！ こちらが正しい画像です。

否定文は起きていないことを示しているのを思い出してください。",,,,,,,,,,,,,,,,,,,,,,,,,,,,,,,,,,,,,,,,,,,,,,,
,,,,,,,,,R_27DR21DT8Syo7Qh,2022-06-26_23h25.38.573,jpn_C01,2022.1.2,MacIntel,60.0024001,,,,,,,,,,,,,,,,,right,1,6.3509,0,0,0,0,1,,,,,,,,,,,,,,,,,,,,,,,,,,,,,,,,,,,,,,,,,,,,,,,,,,,,,,,,,,,
,,,,,,,,,R_27DR21DT8Syo7Qh,2022-06-26_23h25.38.573,jpn_C01,2022.1.2,MacIntel,60.0024001,,,,,,,,,,,,,,,,,,,,,,,,,0,4,4,11,1,CartoonStims/chef_shoot_burglar_r.jpg,パツ　ピク　ホレト　ルピン,CartoonStims/chef_kick_burglar_r.jpg,right,CartoonStims/chef_kick_burglar_r.jpg,audio/patsupikuhoretolupin.mp3,"残念！ こちらが正しい画像です。

否定文は起きていないことを示しているのを思い出してください。",,,,,,,,,,,,,,,,,,,,,,,,,,,,,,,,,,,,,,,,,,,,,,,
,,,,,,,,,R_27DR21DT8Syo7Qh,2022-06-26_23h25.38.573,jpn_C01,2022.1.2,MacIntel,60.0024001,,,,,,,,,,,,,,,,,right,1,3.5929,0,0,0,0,1,,,,,,,,,,,,,,,,,,,,,,,,,,,,,,,,,,,,,,,,,,,,,,,,,,,,,,,,,,,
,,,,,,,,,R_27DR21DT8Syo7Qh,2022-06-26_23h25.38.573,jpn_C01,2022.1.2,MacIntel,60.0024001,,,,,,,,,,,,,,,,,,,,,,,,,0,5,5,3,1,CartoonStims/chef_kick_artist_r.jpg,ピク　セル　ホレト　シド,CartoonStims/chef_point_artist_r.jpg,right,CartoonStims/chef_point_artist_r.jpg,audio/pikuseruhoretosido.mp3,"残念！ こちらが正しい画像です。

否定文は起きていないことを示しているのを思い出してください。",,,,,,,,,,,,,,,,,,,,,,,,,,,,,,,,,,,,,,,,,,,,,,,
,,,,,,,,,R_27DR21DT8Syo7Qh,2022-06-26_23h25.38.573,jpn_C01,2022.1.2,MacIntel,60.0024001,,,,,,,,,,,,,,,,,left,1,1.451,,,,,,,,,,,,,,,,,,0,0,0,0,1,,,,,,,,,,,,,,,,,,,,,,,,,,,,,,,,,,,,,,,,,,
,,,,,,,,,R_27DR21DT8Syo7Qh,2022-06-26_23h25.38.573,jpn_C01,2022.1.2,MacIntel,60.0024001,,,,,,,,,,,,,,,,,,,,,,,,,0,6,6,0,1,CartoonStims/artist_shoot_burglar_r.jpg,ピク　プミ　シド　ルピン,CartoonStims/artist_punch_burglar_r.jpg,left,CartoonStims/artist_shoot_burglar_r.jpg,audio/pikupumisidolupin.mp3,"残念！ こちらが正しい画像です。

否定文は起きていないことを示しているのを思い出してください。",,,,,,,,,,,,,,,,,,,,,,,,,,,,,,,,,,,,,,,,,,,,,,,
,,,,,,,,,R_27DR21DT8Syo7Qh,2022-06-26_23h25.38.573,jpn_C01,2022.1.2,MacIntel,60.0024001,,,,,,,,,,,,,,,,,right,1,1.3785,0,0,0,0,1,,,,,,,,,,,,,,,,,,,,,,,,,,,,,,,,,,,,,,,,,,,,,,,,,,,,,,,,,,,
,,,,,,,,,R_27DR21DT8Syo7Qh,2022-06-26_23h25.38.573,jpn_C01,2022.1.2,MacIntel,60.0024001,,,,,,,,,,,,,,,,,,,,,,,,,0,7,7,5,1,CartoonStims/boxer_kick_cowboy_r.jpg,ピク　セル　ドキ　ムク,CartoonStims/boxer_punch_cowboy_r.jpg,right,CartoonStims/boxer_punch_cowboy_r.jpg,audio/pikuserudokimuku.mp3,"残念！ こちらが正しい画像です。

否定文は起きていないことを示しているのを思い出してください。",,,,,,,,,,,,,,,,,,,,,,,,,,,,,,,,,,,,,,,,,,,,,,,
,,,,,,,,,R_27DR21DT8Syo7Qh,2022-06-26_23h25.38.573,jpn_C01,2022.1.2,MacIntel,60.0024001,,,,,,,,,,,,,,,,,left,1,1.5276,,,,,,,,,,,,,,,,,,0,0,0,0,1,,,,,,,,,,,,,,,,,,,,,,,,,,,,,,,,,,,,,,,,,,
,,,,,,,,,R_27DR21DT8Syo7Qh,2022-06-26_23h25.38.573,jpn_C01,2022.1.2,MacIntel,60.0024001,,,,,,,,,,,,,,,,,,,,,,,,,0,8,8,10,1,CartoonStims/doctor_punch_cowboy_r.jpg,ピク　パツ　ピポ　ムク,CartoonStims/doctor_shoot_cowboy_r.jpg,left,CartoonStims/doctor_punch_cowboy_r.jpg,audio/pikupatsupipomuku.mp3,"残念！ こちらが正しい画像です。

否定文は起きていないことを示しているのを思い出してください。",,,,,,,,,,,,,,,,,,,,,,,,,,,,,,,,,,,,,,,,,,,,,,,
,,,,,,,,,R_27DR21DT8Syo7Qh,2022-06-26_23h25.38.573,jpn_C01,2022.1.2,MacIntel,60.0024001,,,,,,,,,,,,,,,,,left,1,3.7729,,,,,,,,,,,,,,,,,,0,0,0,0,1,,,,,,,,,,,,,,,,,,,,,,,,,,,,,,,,,,,,,,,,,,
,,,,,,,,,R_27DR21DT8Syo7Qh,2022-06-26_23h25.38.573,jpn_C01,2022.1.2,MacIntel,60.0024001,,,,,,,,,,,,,,,,,,,,,,,,,0,9,9,2,1,CartoonStims/doctor_point_boxer_r.jpg,ピク　プミ　ピポ　ドキ,CartoonStims/doctor_punch_boxer_r.jpg,left,CartoonStims/doctor_point_boxer_r.jpg,audio/pikupumipipodoki.mp3,"残念！ こちらが正しい画像です。

否定文は起きていないことを示しているのを思い出してください。",,,,,,,,,,,,,,,,,,,,,,,,,,,,,,,,,,,,,,,,,,,,,,,
,,,,,,,,,R_27DR21DT8Syo7Qh,2022-06-26_23h25.38.573,jpn_C01,2022.1.2,MacIntel,60.0024001,,,,,,,,,,,,,,,,,left,1,2.2677,,,,,,,,,,,,,,,,,,0,0,0,0,1,,,,,,,,,,,,,,,,,,,,,,,,,,,,,,,,,,,,,,,,,,
,,,,,,,,,R_27DR21DT8Syo7Qh,2022-06-26_23h25.38.573,jpn_C01,2022.1.2,MacIntel,60.0024001,,,,,,,,,,,,,,,,,,,,,,,,,0,10,10,8,1,CartoonStims/burglar_punch_artist_r.jpg,トマ　ピク　ルピン　シド,CartoonStims/burglar_point_artist_r.jpg,left,CartoonStims/burglar_punch_artist_r.jpg,audio/tomapikulupinsido.mp3,"残念！ こちらが正しい画像です。

否定文は起きていないことを示しているのを思い出してください。",,,,,,,,,,,,,,,,,,,,,,,,,,,,,,,,,,,,,,,,,,,,,,,
,,,,,,,,,R_27DR21DT8Syo7Qh,2022-06-26_23h25.38.573,jpn_C01,2022.1.2,MacIntel,60.0024001,,,,,,,,,,,,,,,,,left,1,2.6343,,,,,,,,,,,,,,,,,,0,0,0,0,1,,,,,,,,,,,,,,,,,,,,,,,,,,,,,,,,,,,,,,,,,,
,,,,,,,,,R_27DR21DT8Syo7Qh,2022-06-26_23h25.38.573,jpn_C01,2022.1.2,MacIntel,60.0024001,,,,,,,,,,,,,,,,,,,,,,,,,0,11,11,6,1,CartoonStims/artist_shoot_boxer_r.jpg,トマ　ピク　シド　ドキ,CartoonStims/artist_point_boxer_r.jpg,left,CartoonStims/artist_shoot_boxer_r.jpg,audio/tomapikusidodoki.mp3,"残念！ こちらが正しい画像です。

否定文は起きていないことを示しているのを思い出してください。",,,,,,,,,,,,,,,,,,,,,,,,,,,,,,,,,,,,,,,,,,,,,,,
,,,,,,,,,R_27DR21DT8Syo7Qh,2022-06-26_23h25.38.573,jpn_C01,2022.1.2,MacIntel,60.0024001,,,,,,,,,,,,,CartoonStims/artist_shoot_chef_r_no.jpg,,,,,,,,,,,,,,,,,,,,,,,,,,,,,space,5.0663,パツ　ピク　シド　ホレト,right,34.953,,,,,,0,0,0,12,1,,,,,,,,,,,,,,,,,,,,,,,,,ピク　パツ　シド　ホレト,パツ　ピク　シド　ホレト,1
,,,,,,,,,R_27DR21DT8Syo7Qh,2022-06-26_23h25.38.573,jpn_C01,2022.1.2,MacIntel,60.0024001,,,,,,,,,,,,,CartoonStims/artist_point_boxer_r.jpg,,,,,,,,,,,,,,,,,,,,,,,,,,,,,,,トマ　ピク　シド　ドキ,right,21.0104,,,,,,0,1,1,27,1,,,,,,,,,,,,,,,,,,,,,,,,,トマ　シド　ドキ,トマ　シド　ドキ,0
,,,,,,,,,R_27DR21DT8Syo7Qh,2022-06-26_23h25.38.573,jpn_C01,2022.1.2,MacIntel,60.0024001,,,,,,,,,,,,,CartoonStims/cowboy_kick_burglar_r.jpg,,,,,,,,,,,,,,,,,,,,,,,,,,,,,,,ピク　セル　ムク　ルピン,right,11.954,,,,,,0,2,2,24,1,,,,,,,,,,,,,,,,,,,,,,,,,セル　ムク　ルピン,セル　ムク　ルピン,0
,,,,,,,,,R_27DR21DT8Syo7Qh,2022-06-26_23h25.38.573,jpn_C01,2022.1.2,MacIntel,60.0024001,,,,,,,,,,,,,CartoonStims/cowboy_kick_chef_r_no.jpg,,,,,,,,,,,,,,,,,,,,,,,,,,,,,,,ピク　セル　ムク　ホレト,right,16.7454,,,,,,0,3,3,3,1,,,,,,,,,,,,,,,,,,,,,,,,,ピク　セル　ムク　ホレト,セル　ピク　ムク　ホレト,1
,,,,,,,,,R_27DR21DT8Syo7Qh,2022-06-26_23h25.38.573,jpn_C01,2022.1.2,MacIntel,60.0024001,,,,,,,,,,,,,CartoonStims/boxer_punch_artist_r.jpg,,,,,,,,,,,,,,,,,,,,,,,,,,,,,,,プミ　ドキ　シド,right,14.2152,,,,,,0,4,4,35,1,,,,,,,,,,,,,,,,,,,,,,,,,プミ　ドキ　シド,プミ　ドキ　シド,0
,,,,,,,,,R_27DR21DT8Syo7Qh,2022-06-26_23h25.38.573,jpn_C01,2022.1.2,MacIntel,60.0024001,,,,,,,,,,,,,CartoonStims/doctor_point_boxer_r_no.jpg,,,,,,,,,,,,,,,,,,,,,,,,,,,,,,,トマ,right,4.1285,,,,,,0,5,5,10,1,,,,,,,,,,,,,,,,,,,,,,,,,ピク　トマ　ピポ　ドキ,トマ　ピク　ピポ　ドキ,1
,,,,,,,,,R_27DR21DT8Syo7Qh,2022-06-26_23h25.38.573,jpn_C01,2022.1.2,MacIntel,60.0024001,,,,,,,,,,,,,CartoonStims/doctor_punch_boxer_r.jpg,,,,,,,,,,,,,,,,,,,,,,,,,,,,,,,プミ　ピポ　ドキ,right,19.0055,,,,,,0,6,6,34,1,,,,,,,,,,,,,,,,,,,,,,,,,プミ　ピポ　ドキ,プミ　ピポ　ドキ,0
,,,,,,,,,R_27DR21DT8Syo7Qh,2022-06-26_23h25.38.573,jpn_C01,2022.1.2,MacIntel,60.0024001,,,,,,,,,,,,,CartoonStims/doctor_shoot_artist_r_no.jpg,,,,,,,,,,,,,,,,,,,,,,,,,,,,,,,パツ　ピク　ピポ　シド,right,12.3712,,,,,,0,7,7,16,1,,,,,,,,,,,,,,,,,,,,,,,,,ピク　パツ　ピポ　シド,パツ　ピク　ピポ　シド,1
,,,,,,,,,R_27DR21DT8Syo7Qh,2022-06-26_23h25.38.573,jpn_C01,2022.1.2,MacIntel,60.0024001,,,,,,,,,,,,,CartoonStims/chef_shoot_doctor_r_no.jpg,,,,,,,,,,,,,,,,,,,,,,,,,,,,,,,パツ　ピク　ホレト　ピポ,right,11.4313,,,,,,0,8,8,14,1,,,,,,,,,,,,,,,,,,,,,,,,,ピク　パツ　ホレト　ピポ,パツ　ピク　ホレト　ピポ,1
,,,,,,,,,R_27DR21DT8Syo7Qh,2022-06-26_23h25.38.573,jpn_C01,2022.1.2,MacIntel,60.0024001,,,,,,,,,,,,,CartoonStims/cowboy_shoot_boxer_r_no.jpg,,,,,,,,,,,,,,,,,,,,,,,,,,,,,,,パツ　ピク　ムク　ドキ,right,17.0093,,,,,,0,9,9,15,1,,,,,,,,,,,,,,,,,,,,,,,,,ピク　パツ　ムク　ドキ,パツ　ピク　ムク　ドキ,1
,,,,,,,,,R_27DR21DT8Syo7Qh,2022-06-26_23h25.38.573,jpn_C01,2022.1.2,MacIntel,60.0024001,,,,,,,,,,,,,CartoonStims/burglar_point_chef_r_no.jpg,,,,,,,,,,,,,,,,,,,,,,,,,,,,,,,トマ　ピク　ルピン　ホレト,right,12.6709,,,,,,0,10,10,7,1,,,,,,,,,,,,,,,,,,,,,,,,,ピク　トマ　ルピン　ホレト,トマ　ピク　ルピン　ホレト,1
,,,,,,,,,R_27DR21DT8Syo7Qh,2022-06-26_23h25.38.573,jpn_C01,2022.1.2,MacIntel,60.0024001,,,,,,,,,,,,,CartoonStims/chef_kick_burglar_r_no.jpg,,,,,,,,,,,,,,,,,,,,,,,,,,,,,,,ピク　セル　ホレト　ルピン,right,12.5174,,,,,,0,11,11,2,1,,,,,,,,,,,,,,,,,,,,,,,,,ピク　セル　ホレト　ルピン,セル　ピク　ホレト　ルピン,1
,,,,,,,,,R_27DR21DT8Syo7Qh,2022-06-26_23h25.38.573,jpn_C01,2022.1.2,MacIntel,60.0024001,,,,,,,,,,,,,CartoonStims/artist_kick_boxer_r_no.jpg,,,,,,,,,,,,,,,,,,,,,,,,,,,,,,,セル　ピク　シド　ドキ,right,11.0178,,,,,,0,12,12,0,1,,,,,,,,,,,,,,,,,,,,,,,,,ピク　セル　シド　ドキ,セル　ピク　シド　ドキ,1
,,,,,,,,,R_27DR21DT8Syo7Qh,2022-06-26_23h25.38.573,jpn_C01,2022.1.2,MacIntel,60.0024001,,,,,,,,,,,,,CartoonStims/boxer_kick_doctor_r_no.jpg,,,,,,,,,,,,,,,,,,,,,,,,,,,,,,,セル　ピク　ドキ　シド,right,8.0621,,,,,,0,13,13,5,1,,,,,,,,,,,,,,,,,,,,,,,,,ピク　セル　ドキ　ピポ,セル　ピク　ドキ　ピポ,1
,,,,,,,,,R_27DR21DT8Syo7Qh,2022-06-26_23h25.38.573,jpn_C01,2022.1.2,MacIntel,60.0024001,,,,,,,,,,,,,CartoonStims/burglar_shoot_chef_r.jpg,,,,,,,,,,,,,,,,,,,,,,,,,,,,,,,パツ　ルピン　ホレト,right,11.3092,,,,,,0,14,14,30,1,,,,,,,,,,,,,,,,,,,,,,,,,パツ　ルピン　ホレト,パツ　ルピン　ホレト,0
,,,,,,,,,R_27DR21DT8Syo7Qh,2022-06-26_23h25.38.573,jpn_C01,2022.1.2,MacIntel,60.0024001,,,,,,,,,,,,,CartoonStims/doctor_punch_burglar_r_no.jpg,,,,,,,,,,,,,,,,,,,,,,,,,,,,,,,プミ　ピク　ピポ　ルピン,right,13.4559,,,,,,0,15,15,22,1,,,,,,,,,,,,,,,,,,,,,,,,,ピク　プミ　ピポ　ルピン,プミ　ピク　ピポ　ルピン,1
,,,,,,,,,R_27DR21DT8Syo7Qh,2022-06-26_23h25.38.573,jpn_C01,2022.1.2,MacIntel,60.0024001,,,,,,,,,,,,,CartoonStims/chef_point_burglar_r.jpg,,,,,,,,,,,,,,,,,,,,,,,,,,,,,,,トマ　ホレト　ルピン,right,6.0489,,,,,,0,16,16,29,1,,,,,,,,,,,,,,,,,,,,,,,,,トマ　ホレト　ルピン,トマ　ホレト　ルピン,0
,,,,,,,,,R_27DR21DT8Syo7Qh,2022-06-26_23h25.38.573,jpn_C01,2022.1.2,MacIntel,60.0024001,,,,,,,,,,,,,CartoonStims/boxer_shoot_burglar_r_no.jpg,,,,,,,,,,,,,,,,,,,,,,,,,,,,,,,パツ　ピク　ドキ　ルピン,right,10.4123,,,,,,0,17,17,17,1,,,,,,,,,,,,,,,,,,,,,,,,,ピク　パツ　ドキ　ルピン,パツ　ピク　ドキ　ルピン,1
,,,,,,,,,R_27DR21DT8Syo7Qh,2022-06-26_23h25.38.573,jpn_C01,2022.1.2,MacIntel,60.0024001,,,,,,,,,,,,,CartoonStims/burglar_shoot_cowboy_r_no.jpg,,,,,,,,,,,,,,,,,,,,,,,,,,,,,,,パツ　ピク　ルピン　ムク,right,11.9542,,,,,,0,18,18,13,1,,,,,,,,,,,,,,,,,,,,,,,,,ピク　パツ　ルピン　ムク,パツ　ピク　ルピン　ムク,1
,,,,,,,,,R_27DR21DT8Syo7Qh,2022-06-26_23h25.38.573,jpn_C01,2022.1.2,MacIntel,60.0024001,,,,,,,,,,,,,CartoonStims/cowboy_punch_artist_r_no.jpg,,,,,,,,,,,,,,,,,,,,,,,,,,,,,,,プミ　ピク　ムク　シド,right,14.4787,,,,,,0,19,19,21,1,,,,,,,,,,,,,,,,,,,,,,,,,ピク　プミ　ムク　シド,プミ　ピク　ムク　シド,1
,,,,,,,,,R_27DR21DT8Syo7Qh,2022-06-26_23h25.38.573,jpn_C01,2022.1.2,MacIntel,60.0024001,,,,,,,,,,,,,CartoonStims/burglar_kick_artist_r_no.jpg,,,,,,,,,,,,,,,,,,,,,,,,,,,,,,,セル　ピク　ルピン　シド,right,15.3852,,,,,,0,20,20,1,1,,,,,,,,,,,,,,,,,,,,,,,,,ピク　セル　ルピン　シド,セル　ピク　ルピン　シド,1
,,,,,,,,,R_27DR21DT8Syo7Qh,2022-06-26_23h25.38.573,jpn_C01,2022.1.2,MacIntel,60.0024001,,,,,,,,,,,,,CartoonStims/artist_punch_cowboy_r_no.jpg,,,,,,,,,,,,,,,,,,,,,,,,,,,,,,,プミ　ピク　シド　ムク,right,17.1454,,,,,,0,21,21,18,1,,,,,,,,,,,,,,,,,,,,,,,,,ピク　プミ　シド　ムク,プミ　ピク　シド　ムク,1
,,,,,,,,,R_27DR21DT8Syo7Qh,2022-06-26_23h25.38.573,jpn_C01,2022.1.2,MacIntel,60.0024001,,,,,,,,,,,,,CartoonStims/burglar_point_artist_r.jpg,,,,,,,,,,,,,,,,,,,,,,,,,,,,,,,トマ　ルピン　シド,right,9.5291,,,,,,0,22,22,28,1,,,,,,,,,,,,,,,,,,,,,,,,,トマ　ルピン　シド,トマ　ルピン　シド,0
,,,,,,,,,R_27DR21DT8Syo7Qh,2022-06-26_23h25.38.573,jpn_C01,2022.1.2,MacIntel,60.0024001,,,,,,,,,,,,,CartoonStims/chef_shoot_cowboy_r.jpg,,,,,,,,,,,,,,,,,,,,,,,,,,,,,,,パツ　ホレト　ムク,right,8.0282,,,,,,0,23,23,31,1,,,,,,,,,,,,,,,,,,,,,,,,,パツ　ホレト　ムク,パツ　ホレト　ムク,0
,,,,,,,,,R_27DR21DT8Syo7Qh,2022-06-26_23h25.38.573,jpn_C01,2022.1.2,MacIntel,60.0024001,,,,,,,,,,,,,CartoonStims/burglar_punch_doctor_r_no.jpg,,,,,,,,,,,,,,,,,,,,,,,,,,,,,,,プミ　ピク　ルピン　ピポ,right,19.7751,,,,,,0,24,24,19,1,,,,,,,,,,,,,,,,,,,,,,,,,ピク　プミ　ルピン　ピポ,プミ　ピク　ルピン　ピポ,1
,,,,,,,,,R_27DR21DT8Syo7Qh,2022-06-26_23h25.38.573,jpn_C01,2022.1.2,MacIntel,60.0024001,,,,,,,,,,,,,CartoonStims/chef_point_cowboy_r_no.jpg,,,,,,,,,,,,,,,,,,,,,,,,,,,,,,,トマ　ピク　ホレト　ムク,right,11.5588,,,,,,0,25,25,8,1,,,,,,,,,,,,,,,,,,,,,,,,,ピク　トマ　ホレト　ムク,トマ　ピク　ホレト　ムク,1
,,,,,,,,,R_27DR21DT8Syo7Qh,2022-06-26_23h25.38.573,jpn_C01,2022.1.2,MacIntel,60.0024001,,,,,,,,,,,,,CartoonStims/artist_punch_burglar_r.jpg,,,,,,,,,,,,,,,,,,,,,,,,,,,,,,,プミ　シド　ルピン,right,17.2744,,,,,,0,26,26,33,1,,,,,,,,,,,,,,,,,,,,,,,,,プミ　シド　ルピン,プミ　シド　ルピン,0
,,,,,,,,,R_27DR21DT8Syo7Qh,2022-06-26_23h25.38.573,jpn_C01,2022.1.2,MacIntel,60.0024001,,,,,,,,,,,,,CartoonStims/boxer_punch_chef_r_no.jpg,,,,,,,,,,,,,,,,,,,,,,,,,,,,,,,プミ　ピク　ドキ　ホレト,right,13.9803,,,,,,0,27,27,23,1,,,,,,,,,,,,,,,,,,,,,,,,,ピク　プミ　ドキ　ホレト,プミ　ピク　ドキ　ホレト,1
,,,,,,,,,R_27DR21DT8Syo7Qh,2022-06-26_23h25.38.573,jpn_C01,2022.1.2,MacIntel,60.0024001,,,,,,,,,,,,,CartoonStims/doctor_kick_cowboy_r_no.jpg,,,,,,,,,,,,,,,,,,,,,,,,,,,,,,,セル　ピク　ピポ　ムク,right,13.957,,,,,,0,28,28,4,1,,,,,,,,,,,,,,,,,,,,,,,,,ピク　セル　ピポ　ムク,セル　ピク　ピポ　ムク,1
,,,,,,,,,R_27DR21DT8Syo7Qh,2022-06-26_23h25.38.573,jpn_C01,2022.1.2,MacIntel,60.0024001,,,,,,,,,,,,,CartoonStims/doctor_kick_chef_r.jpg,,,,,,,,,,,,,,,,,,,,,,,,,,,,,,,セル　ピポ　ホレト,right,5.5904,,,,,,0,29,29,25,1,,,,,,,,,,,,,,,,,,,,,,,,,セル　ピポ　ホレト,セル　ピポ　ホレト,0
,,,,,,,,,R_27DR21DT8Syo7Qh,2022-06-26_23h25.38.573,jpn_C01,2022.1.2,MacIntel,60.0024001,,,,,,,,,,,,,CartoonStims/cowboy_shoot_doctor_r.jpg,,,,,,,,,,,,,,,,,,,,,,,,,,,,,,,パツ　ムク　ピポ,right,8.1213,,,,,,0,30,30,32,1,,,,,,,,,,,,,,,,,,,,,,,,,パツ　ムク　ピポ,パツ　ムク　ピポ,0
,,,,,,,,,R_27DR21DT8Syo7Qh,2022-06-26_23h25.38.573,jpn_C01,2022.1.2,MacIntel,60.0024001,,,,,,,,,,,,,CartoonStims/boxer_point_artist_r_no.jpg,,,,,,,,,,,,,,,,,,,,,,,,,,,,,,,トマ　ピク　ドキ　シド,right,9.8904,,,,,,0,31,31,11,1,,,,,,,,,,,,,,,,,,,,,,,,,ピク　トマ　ドキ　シド,トマ　ピク　ドキ　シド,1
,,,,,,,,,R_27DR21DT8Syo7Qh,2022-06-26_23h25.38.573,jpn_C01,2022.1.2,MacIntel,60.0024001,,,,,,,,,,,,,CartoonStims/cowboy_point_doctor_r_no.jpg,,,,,,,,,,,,,,,,,,,,,,,,,,,,,,,トマ　ピク　ムク　ピポ,right,10.7459,,,,,,0,32,32,9,1,,,,,,,,,,,,,,,,,,,,,,,,,ピク　トマ　ムク　ピポ,トマ　ピク　ムク　ピポ,1
,,,,,,,,,R_27DR21DT8Syo7Qh,2022-06-26_23h25.38.573,jpn_C01,2022.1.2,MacIntel,60.0024001,,,,,,,,,,,,,CartoonStims/boxer_kick_cowboy_r.jpg,,,,,,,,,,,,,,,,,,,,,,,,,,,,,,,セル　ドキ　ムク,right,6.0117,,,,,,0,33,33,26,1,,,,,,,,,,,,,,,,,,,,,,,,,セル　ドキ　ムク,セル　ドキ　ムク,0
,,,,,,,,,R_27DR21DT8Syo7Qh,2022-06-26_23h25.38.573,jpn_C01,2022.1.2,MacIntel,60.0024001,,,,,,,,,,,,,CartoonStims/chef_punch_boxer_r_no.jpg,,,,,,,,,,,,,,,,,,,,,,,,,,,,,,,プミ　ピク　ホレト　ドキ,right,14.7556,,,,,,0,34,34,20,1,,,,,,,,,,,,,,,,,,,,,,,,,ピク　プミ　ホレト　ドキ,プミ　ピク　ホレト　ドキ,1
,,,,,,,,,R_27DR21DT8Syo7Qh,2022-06-26_23h25.38.573,jpn_C01,2022.1.2,MacIntel,60.0024001,,,,,,,,,,,,,CartoonStims/artist_point_burglar_r_no.jpg,,,,,,,,,,,,,,,,,,,,,,,,,,,,,,,トマ　ピク　シド　ルピン,right,11.4192,,,,,,0,35,35,6,1,,,,,,,,,,,,,,,,,,,,,,,,,ピク　トマ　シド　ルピン,トマ　ピク　シド　ルピン,1
,,,,,,,,,R_27DR21DT8Syo7Qh,2022-06-26_23h25.38.573,jpn_C01,2022.1.2,MacIntel,60.0024001,,,,,,,,,,,,,,,,,,,,,,,,,,,,,,,,,,,,,,,,,,,,,,,,,,,,,,,,,,,space,7.2649,0,2,2,2,1,EquiprobableCondition.xlsx,"ここではこの言語における否定の文を学習していただきます。引き続き注意して、 聞こえた音を復唱してください。

スペースキーを押してください。",1,EquiFCT.xlsx,ここからクイズが始まります。 スクリーンに表示されるテキストに合うイメージを選んでください。,NegTest.xlsx,1,最後にここまで学んだことをアウトプットしていただきます。 テキストボックスにあるイメージを描写するテキストを入力してください。 このタスクでは、 答え合わせは行いません。,0,これですべての実験が終わりました。 お疲れさまです。 この後はアンケートに答えていただきます。,,,,,,,,