key_resp_instr_a.keys,key_resp_instr_a.rt,key_resp_instr_b.keys,key_resp_instr_b.rt,dummy.thisRepN,dummy.thisTrialN,dummy.thisN,dummy.thisIndex,dummy.ran,participant,date,expName,psychopyVersion,OS,frameRate,key_resp_instr1.keys,key_resp_instr1.rt,key_resp.keys,key_resp.rt,exp_loop.thisRepN,exp_loop.thisTrialN,exp_loop.thisN,exp_loop.thisIndex,exp_loop.ran,Word,English,Flip,Path,Audio,key_resp_instr2.keys,key_resp_instr2.rt,key_resp_fct.keys,key_resp_fct.corr,key_resp_fct.rt,trials_2.thisRepN,trials_2.thisTrialN,trials_2.thisN,trials_2.thisIndex,trials_2.ran,fct_loop.thisRepN,fct_loop.thisTrialN,fct_loop.thisN,fct_loop.thisIndex,fct_loop.ran,left_img,word,right_img,correctans,correct_img,audio,incorrect_feedback,trials.thisRepN,trials.thisTrialN,trials.thisN,trials.thisIndex,trials.ran,key_resp_instr3.keys,key_resp_instr3.rt,textbox.text,key_resp_2.keys,key_resp_2.rt,fb_yn.thisRepN,fb_yn.thisTrialN,fb_yn.thisN,fb_yn.thisIndex,fb_yn.ran,gather_loop.thisRepN,gather_loop.thisTrialN,gather_loop.thisN,gather_loop.thisIndex,gather_loop.ran,Text,Wordbank,key_resp_instr4.keys,key_resp_instr4.rt,master_loop.thisRepN,master_loop.thisTrialN,master_loop.thisN,master_loop.thisIndex,master_loop.ran,exposure_file,instr_1,exp_reps,fct_file,instr_2,gather_file,gather_reps,instr_3,fReps,instr_4,trials_3.thisRepN,trials_3.thisTrialN,trials_3.thisN,trials_3.thisIndex,trials_3.ran,NegVSentence,VNegSentence,NegTF
space,10.603,space,17.909,0,0,0,0,1,R_ZKQTsabpnyV3AmB,2022-09-02_21h49.37,jpn_C03,2022.1.2,MacIntel,55.55555556,,,,,,,,,,,,,,,,,,,,,,,,,,,,,,,,,,,,,,,,,,,,,,,,,,,,,,,,,,,,,,,,,,,,,,,,,,,,,,,,,,,
,,,,,,,,,R_ZKQTsabpnyV3AmB,2022-09-02_21h49.37,jpn_C03,2022.1.2,MacIntel,55.55555556,space,13.602,space,15.82,0,0,0,0,1,シド,artist,,CartoonStims/artist_r.jpg,audio/sido.mp3,,,,,,,,,,,,,,,,,,,,,,,,,,,,,,,,,,,,,,,,,,,,,,,,,,,,,,,,,,,,,,,,,,,,,
,,,,,,,,,R_ZKQTsabpnyV3AmB,2022-09-02_21h49.37,jpn_C03,2022.1.2,MacIntel,55.55555556,,,space,19.176,0,1,1,3,1,ムク,cowboy,,CartoonStims/cowboy_r.jpg,audio/muku.mp3,,,,,,,,,,,,,,,,,,,,,,,,,,,,,,,,,,,,,,,,,,,,,,,,,,,,,,,,,,,,,,,,,,,,,
,,,,,,,,,R_ZKQTsabpnyV3AmB,2022-09-02_21h49.37,jpn_C03,2022.1.2,MacIntel,55.55555556,,,space,50.835,0,2,2,5,1,ドキ,boxer,,CartoonStims/boxer_r.jpg,audio/doki.mp3,,,,,,,,,,,,,,,,,,,,,,,,,,,,,,,,,,,,,,,,,,,,,,,,,,,,,,,,,,,,,,,,,,,,,
,,,,,,,,,R_ZKQTsabpnyV3AmB,2022-09-02_21h49.37,jpn_C03,2022.1.2,MacIntel,55.55555556,,,space,16.752,0,3,3,2,1,ホレト,chef,,CartoonStims/chef_r.jpg,audio/horeto.mp3,,,,,,,,,,,,,,,,,,,,,,,,,,,,,,,,,,,,,,,,,,,,,,,,,,,,,,,,,,,,,,,,,,,,,
,,,,,,,,,R_ZKQTsabpnyV3AmB,2022-09-02_21h49.37,jpn_C03,2022.1.2,MacIntel,55.55555556,,,space,18.669,0,4,4,1,1,ルピン,burglar,,CartoonStims/burglar_r.jpg,audio/lupin.mp3,,,,,,,,,,,,,,,,,,,,,,,,,,,,,,,,,,,,,,,,,,,,,,,,,,,,,,,,,,,,,,,,,,,,,
,,,,,,,,,R_ZKQTsabpnyV3AmB,2022-09-02_21h49.37,jpn_C03,2022.1.2,MacIntel,55.55555556,,,space,19.806,0,5,5,4,1,ピポ,doctor,,CartoonStims/doctor_r.jpg,audio/pipo.mp3,,,,,,,,,,,,,,,,,,,,,,,,,,,,,,,,,,,,,,,,,,,,,,,,,,,,,,,,,,,,,,,,,,,,,
,,,,,,,,,R_ZKQTsabpnyV3AmB,2022-09-02_21h49.37,jpn_C03,2022.1.2,MacIntel,55.55555556,,,space,4.02,1,0,6,5,1,ドキ,boxer,,CartoonStims/boxer_r.jpg,audio/doki.mp3,,,,,,,,,,,,,,,,,,,,,,,,,,,,,,,,,,,,,,,,,,,,,,,,,,,,,,,,,,,,,,,,,,,,,
,,,,,,,,,R_ZKQTsabpnyV3AmB,2022-09-02_21h49.37,jpn_C03,2022.1.2,MacIntel,55.55555556,,,space,6.737,1,1,7,3,1,ムク,cowboy,,CartoonStims/cowboy_r.jpg,audio/muku.mp3,,,,,,,,,,,,,,,,,,,,,,,,,,,,,,,,,,,,,,,,,,,,,,,,,,,,,,,,,,,,,,,,,,,,,
,,,,,,,,,R_ZKQTsabpnyV3AmB,2022-09-02_21h49.37,jpn_C03,2022.1.2,MacIntel,55.55555556,,,space,6.44,1,2,8,2,1,ホレト,chef,,CartoonStims/chef_r.jpg,audio/horeto.mp3,,,,,,,,,,,,,,,,,,,,,,,,,,,,,,,,,,,,,,,,,,,,,,,,,,,,,,,,,,,,,,,,,,,,,
,,,,,,,,,R_ZKQTsabpnyV3AmB,2022-09-02_21h49.37,jpn_C03,2022.1.2,MacIntel,55.55555556,,,space,2.502,1,3,9,4,1,ピポ,doctor,,CartoonStims/doctor_r.jpg,audio/pipo.mp3,,,,,,,,,,,,,,,,,,,,,,,,,,,,,,,,,,,,,,,,,,,,,,,,,,,,,,,,,,,,,,,,,,,,,
,,,,,,,,,R_ZKQTsabpnyV3AmB,2022-09-02_21h49.37,jpn_C03,2022.1.2,MacIntel,55.55555556,,,space,5.441,1,4,10,0,1,シド,artist,,CartoonStims/artist_r.jpg,audio/sido.mp3,,,,,,,,,,,,,,,,,,,,,,,,,,,,,,,,,,,,,,,,,,,,,,,,,,,,,,,,,,,,,,,,,,,,,
,,,,,,,,,R_ZKQTsabpnyV3AmB,2022-09-02_21h49.37,jpn_C03,2022.1.2,MacIntel,55.55555556,,,space,5.741,1,5,11,1,1,ルピン,burglar,,CartoonStims/burglar_r.jpg,audio/lupin.mp3,,,,,,,,,,,,,,,,,,,,,,,,,,,,,,,,,,,,,,,,,,,,,,,,,,,,,,,,,,,,,,,,,,,,,
,,,,,,,,,R_ZKQTsabpnyV3AmB,2022-09-02_21h49.37,jpn_C03,2022.1.2,MacIntel,55.55555556,,,space,4.168,2,0,12,0,1,シド,artist,,CartoonStims/artist_r.jpg,audio/sido.mp3,,,,,,,,,,,,,,,,,,,,,,,,,,,,,,,,,,,,,,,,,,,,,,,,,,,,,,,,,,,,,,,,,,,,,
,,,,,,,,,R_ZKQTsabpnyV3AmB,2022-09-02_21h49.37,jpn_C03,2022.1.2,MacIntel,55.55555556,,,space,6.825,2,1,13,2,1,ホレト,chef,,CartoonStims/chef_r.jpg,audio/horeto.mp3,,,,,,,,,,,,,,,,,,,,,,,,,,,,,,,,,,,,,,,,,,,,,,,,,,,,,,,,,,,,,,,,,,,,,
,,,,,,,,,R_ZKQTsabpnyV3AmB,2022-09-02_21h49.37,jpn_C03,2022.1.2,MacIntel,55.55555556,,,space,2.49,2,2,14,4,1,ピポ,doctor,,CartoonStims/doctor_r.jpg,audio/pipo.mp3,,,,,,,,,,,,,,,,,,,,,,,,,,,,,,,,,,,,,,,,,,,,,,,,,,,,,,,,,,,,,,,,,,,,,
,,,,,,,,,R_ZKQTsabpnyV3AmB,2022-09-02_21h49.37,jpn_C03,2022.1.2,MacIntel,55.55555556,,,space,3.584,2,3,15,1,1,ルピン,burglar,,CartoonStims/burglar_r.jpg,audio/lupin.mp3,,,,,,,,,,,,,,,,,,,,,,,,,,,,,,,,,,,,,,,,,,,,,,,,,,,,,,,,,,,,,,,,,,,,,
,,,,,,,,,R_ZKQTsabpnyV3AmB,2022-09-02_21h49.37,jpn_C03,2022.1.2,MacIntel,55.55555556,,,space,16.203,2,4,16,3,1,ムク,cowboy,,CartoonStims/cowboy_r.jpg,audio/muku.mp3,,,,,,,,,,,,,,,,,,,,,,,,,,,,,,,,,,,,,,,,,,,,,,,,,,,,,,,,,,,,,,,,,,,,,
,,,,,,,,,R_ZKQTsabpnyV3AmB,2022-09-02_21h49.37,jpn_C03,2022.1.2,MacIntel,55.55555556,,,space,7.89,2,5,17,5,1,ドキ,boxer,,CartoonStims/boxer_r.jpg,audio/doki.mp3,,,,,,,,,,,,,,,,,,,,,,,,,,,,,,,,,,,,,,,,,,,,,,,,,,,,,,,,,,,,,,,,,,,,,
,,,,,,,,,R_ZKQTsabpnyV3AmB,2022-09-02_21h49.37,jpn_C03,2022.1.2,MacIntel,55.55555556,,,,,,,,,,,,,,,space,7.057,right,1,2.072,0,0,0,0,1,,,,,,,,,,,,,,,,,,,,,,,,,,,,,,,,,,,,,,,,,,,,,,,,,,,,,,,,,,,
,,,,,,,,,R_ZKQTsabpnyV3AmB,2022-09-02_21h49.37,jpn_C03,2022.1.2,MacIntel,55.55555556,,,,,,,,,,,,,,,,,,,,,,,,,0,0,0,11,1,CartoonStims/burglar_r.jpg,ドキ,CartoonStims/boxer_r.jpg,right,CartoonStims/boxer_r.jpg,audio/doki.mp3,残念！ こちらが正しい画像です。,,,,,,,,,,,,,,,,,,,,,,,,,,,,,,,,,,,,,,,,,,,,,,,
,,,,,,,,,R_ZKQTsabpnyV3AmB,2022-09-02_21h49.37,jpn_C03,2022.1.2,MacIntel,55.55555556,,,,,,,,,,,,,,,,,left,1,1.255,,,,,,,,,,,,,,,,,,0,0,0,0,1,,,,,,,,,,,,,,,,,,,,,,,,,,,,,,,,,,,,,,,,,,
,,,,,,,,,R_ZKQTsabpnyV3AmB,2022-09-02_21h49.37,jpn_C03,2022.1.2,MacIntel,55.55555556,,,,,,,,,,,,,,,,,,,,,,,,,0,1,1,5,1,CartoonStims/boxer_r.jpg,ドキ,CartoonStims/artist_r.jpg,left,CartoonStims/boxer_r.jpg,audio/doki.mp3,残念！ こちらが正しい画像です。,,,,,,,,,,,,,,,,,,,,,,,,,,,,,,,,,,,,,,,,,,,,,,,
,,,,,,,,,R_ZKQTsabpnyV3AmB,2022-09-02_21h49.37,jpn_C03,2022.1.2,MacIntel,55.55555556,,,,,,,,,,,,,,,,,left,1,0.902,,,,,,,,,,,,,,,,,,0,0,0,0,1,,,,,,,,,,,,,,,,,,,,,,,,,,,,,,,,,,,,,,,,,,
,,,,,,,,,R_ZKQTsabpnyV3AmB,2022-09-02_21h49.37,jpn_C03,2022.1.2,MacIntel,55.55555556,,,,,,,,,,,,,,,,,,,,,,,,,0,2,2,1,1,CartoonStims/burglar_r.jpg,ルピン,CartoonStims/chef_r.jpg,left,CartoonStims/burglar_r.jpg,audio/lupin.mp3,残念！ こちらが正しい画像です。,,,,,,,,,,,,,,,,,,,,,,,,,,,,,,,,,,,,,,,,,,,,,,,
,,,,,,,,,R_ZKQTsabpnyV3AmB,2022-09-02_21h49.37,jpn_C03,2022.1.2,MacIntel,55.55555556,,,,,,,,,,,,,,,,,right,1,1.518,0,0,0,0,1,,,,,,,,,,,,,,,,,,,,,,,,,,,,,,,,,,,,,,,,,,,,,,,,,,,,,,,,,,,
,,,,,,,,,R_ZKQTsabpnyV3AmB,2022-09-02_21h49.37,jpn_C03,2022.1.2,MacIntel,55.55555556,,,,,,,,,,,,,,,,,,,,,,,,,0,3,3,6,1,CartoonStims/chef_r.jpg,シド,CartoonStims/artist_r.jpg,right,CartoonStims/artist_r.jpg,audio/sido.mp3,残念！ こちらが正しい画像です。,,,,,,,,,,,,,,,,,,,,,,,,,,,,,,,,,,,,,,,,,,,,,,,
,,,,,,,,,R_ZKQTsabpnyV3AmB,2022-09-02_21h49.37,jpn_C03,2022.1.2,MacIntel,55.55555556,,,,,,,,,,,,,,,,,right,1,0.752,0,0,0,0,1,,,,,,,,,,,,,,,,,,,,,,,,,,,,,,,,,,,,,,,,,,,,,,,,,,,,,,,,,,,
,,,,,,,,,R_ZKQTsabpnyV3AmB,2022-09-02_21h49.37,jpn_C03,2022.1.2,MacIntel,55.55555556,,,,,,,,,,,,,,,,,,,,,,,,,0,4,4,10,1,CartoonStims/artist_r.jpg,ピポ,CartoonStims/doctor_r.jpg,right,CartoonStims/doctor_r.jpg,audio/pipo.mp3,残念！ こちらが正しい画像です。,,,,,,,,,,,,,,,,,,,,,,,,,,,,,,,,,,,,,,,,,,,,,,,
,,,,,,,,,R_ZKQTsabpnyV3AmB,2022-09-02_21h49.37,jpn_C03,2022.1.2,MacIntel,55.55555556,,,,,,,,,,,,,,,,,left,1,0.85,,,,,,,,,,,,,,,,,,0,0,0,0,1,,,,,,,,,,,,,,,,,,,,,,,,,,,,,,,,,,,,,,,,,,
,,,,,,,,,R_ZKQTsabpnyV3AmB,2022-09-02_21h49.37,jpn_C03,2022.1.2,MacIntel,55.55555556,,,,,,,,,,,,,,,,,,,,,,,,,0,5,5,4,1,CartoonStims/doctor_r.jpg,ピポ,CartoonStims/boxer_r.jpg,left,CartoonStims/doctor_r.jpg,audio/pipo.mp3,残念！ こちらが正しい画像です。,,,,,,,,,,,,,,,,,,,,,,,,,,,,,,,,,,,,,,,,,,,,,,,
,,,,,,,,,R_ZKQTsabpnyV3AmB,2022-09-02_21h49.37,jpn_C03,2022.1.2,MacIntel,55.55555556,,,,,,,,,,,,,,,,,right,1,0.386,0,0,0,0,1,,,,,,,,,,,,,,,,,,,,,,,,,,,,,,,,,,,,,,,,,,,,,,,,,,,,,,,,,,,
,,,,,,,,,R_ZKQTsabpnyV3AmB,2022-09-02_21h49.37,jpn_C03,2022.1.2,MacIntel,55.55555556,,,,,,,,,,,,,,,,,,,,,,,,,0,6,6,8,1,CartoonStims/doctor_r.jpg,ホレト,CartoonStims/chef_r.jpg,right,CartoonStims/chef_r.jpg,audio/horeto.mp3,残念！ こちらが正しい画像です。,,,,,,,,,,,,,,,,,,,,,,,,,,,,,,,,,,,,,,,,,,,,,,,
,,,,,,,,,R_ZKQTsabpnyV3AmB,2022-09-02_21h49.37,jpn_C03,2022.1.2,MacIntel,55.55555556,,,,,,,,,,,,,,,,,left,1,0.569,,,,,,,,,,,,,,,,,,0,0,0,0,1,,,,,,,,,,,,,,,,,,,,,,,,,,,,,,,,,,,,,,,,,,
,,,,,,,,,R_ZKQTsabpnyV3AmB,2022-09-02_21h49.37,jpn_C03,2022.1.2,MacIntel,55.55555556,,,,,,,,,,,,,,,,,,,,,,,,,0,7,7,0,1,CartoonStims/artist_r.jpg,シド,CartoonStims/burglar_r.jpg,left,CartoonStims/artist_r.jpg,audio/sido.mp3,残念！ こちらが正しい画像です。,,,,,,,,,,,,,,,,,,,,,,,,,,,,,,,,,,,,,,,,,,,,,,,
,,,,,,,,,R_ZKQTsabpnyV3AmB,2022-09-02_21h49.37,jpn_C03,2022.1.2,MacIntel,55.55555556,,,,,,,,,,,,,,,,,right,1,0.885,0,0,0,0,1,,,,,,,,,,,,,,,,,,,,,,,,,,,,,,,,,,,,,,,,,,,,,,,,,,,,,,,,,,,
,,,,,,,,,R_ZKQTsabpnyV3AmB,2022-09-02_21h49.37,jpn_C03,2022.1.2,MacIntel,55.55555556,,,,,,,,,,,,,,,,,,,,,,,,,0,8,8,9,1,CartoonStims/boxer_r.jpg,ムク,CartoonStims/cowboy_r.jpg,right,CartoonStims/cowboy_r.jpg,audio/muku.mp3,残念！ こちらが正しい画像です。,,,,,,,,,,,,,,,,,,,,,,,,,,,,,,,,,,,,,,,,,,,,,,,
,,,,,,,,,R_ZKQTsabpnyV3AmB,2022-09-02_21h49.37,jpn_C03,2022.1.2,MacIntel,55.55555556,,,,,,,,,,,,,,,,,right,1,0.405,0,0,0,0,1,,,,,,,,,,,,,,,,,,,,,,,,,,,,,,,,,,,,,,,,,,,,,,,,,,,,,,,,,,,
,,,,,,,,,R_ZKQTsabpnyV3AmB,2022-09-02_21h49.37,jpn_C03,2022.1.2,MacIntel,55.55555556,,,,,,,,,,,,,,,,,,,,,,,,,0,9,9,7,1,CartoonStims/cowboy_r.jpg,ルピン,CartoonStims/burglar_r.jpg,right,CartoonStims/burglar_r.jpg,audio/lupin.mp3,残念！ こちらが正しい画像です。,,,,,,,,,,,,,,,,,,,,,,,,,,,,,,,,,,,,,,,,,,,,,,,
,,,,,,,,,R_ZKQTsabpnyV3AmB,2022-09-02_21h49.37,jpn_C03,2022.1.2,MacIntel,55.55555556,,,,,,,,,,,,,,,,,left,1,1.236,,,,,,,,,,,,,,,,,,0,0,0,0,1,,,,,,,,,,,,,,,,,,,,,,,,,,,,,,,,,,,,,,,,,,
,,,,,,,,,R_ZKQTsabpnyV3AmB,2022-09-02_21h49.37,jpn_C03,2022.1.2,MacIntel,55.55555556,,,,,,,,,,,,,,,,,,,,,,,,,0,10,10,3,1,CartoonStims/cowboy_r.jpg,ムク,CartoonStims/doctor_r.jpg,left,CartoonStims/cowboy_r.jpg,audio/muku.mp3,残念！ こちらが正しい画像です。,,,,,,,,,,,,,,,,,,,,,,,,,,,,,,,,,,,,,,,,,,,,,,,
,,,,,,,,,R_ZKQTsabpnyV3AmB,2022-09-02_21h49.37,jpn_C03,2022.1.2,MacIntel,55.55555556,,,,,,,,,,,,,,,,,left,1,0.503,,,,,,,,,,,,,,,,,,0,0,0,0,1,,,,,,,,,,,,,,,,,,,,,,,,,,,,,,,,,,,,,,,,,,
,,,,,,,,,R_ZKQTsabpnyV3AmB,2022-09-02_21h49.37,jpn_C03,2022.1.2,MacIntel,55.55555556,,,,,,,,,,,,,,,,,,,,,,,,,0,11,11,2,1,CartoonStims/chef_r.jpg,ホレト,CartoonStims/cowboy_r.jpg,left,CartoonStims/chef_r.jpg,audio/horeto.mp3,残念！ こちらが正しい画像です。,,,,,,,,,,,,,,,,,,,,,,,,,,,,,,,,,,,,,,,,,,,,,,,
,,,,,,,,,R_ZKQTsabpnyV3AmB,2022-09-02_21h49.37,jpn_C03,2022.1.2,MacIntel,55.55555556,,,,,,,,,,,,,,,,,,,,,,,,,,,,,,,,,,,,,,,,,,space,3.668,ピポ,right,9.506,0,0,0,0,1,,,,,,,,,,,,,,,,,,,,,,,,,,,,,,,,
,,,,,,,,,R_ZKQTsabpnyV3AmB,2022-09-02_21h49.37,jpn_C03,2022.1.2,MacIntel,55.55555556,,,,,,,,,,,,,CartoonStims/doctor_r.jpg,audio/pipo.mp3,,,,,,,,,,,,,,,,,,,,,,,,,,,,,,,,,,,,,,0,0,0,4,1,ピポ,,,,,,,,,,,,,,,,,,,,,,,,,,
,,,,,,,,,R_ZKQTsabpnyV3AmB,2022-09-02_21h49.37,jpn_C03,2022.1.2,MacIntel,55.55555556,,,,,,,,,,,,,,,,,,,,,,,,,,,,,,,,,,,,,,,,,,,,ルピン,right,9.132,0,0,0,0,1,,,,,,,,,,,,,,,,,,,,,,,,,,,,,,,,
,,,,,,,,,R_ZKQTsabpnyV3AmB,2022-09-02_21h49.37,jpn_C03,2022.1.2,MacIntel,55.55555556,,,,,,,,,,,,,CartoonStims/burglar_r.jpg,audio/lupin.mp3,,,,,,,,,,,,,,,,,,,,,,,,,,,,,,,,,,,,,,0,1,1,1,1,ルピン,,,,,,,,,,,,,,,,,,,,,,,,,,
,,,,,,,,,R_ZKQTsabpnyV3AmB,2022-09-02_21h49.37,jpn_C03,2022.1.2,MacIntel,55.55555556,,,,,,,,,,,,,,,,,,,,,,,,,,,,,,,,,,,,,,,,,,,,ホレト,right,7.029,0,0,0,0,1,,,,,,,,,,,,,,,,,,,,,,,,,,,,,,,,
,,,,,,,,,R_ZKQTsabpnyV3AmB,2022-09-02_21h49.37,jpn_C03,2022.1.2,MacIntel,55.55555556,,,,,,,,,,,,,CartoonStims/chef_r.jpg,audio/horeto.mp3,,,,,,,,,,,,,,,,,,,,,,,,,,,,,,,,,,,,,,0,2,2,2,1,ホレト,,,,,,,,,,,,,,,,,,,,,,,,,,
,,,,,,,,,R_ZKQTsabpnyV3AmB,2022-09-02_21h49.37,jpn_C03,2022.1.2,MacIntel,55.55555556,,,,,,,,,,,,,,,,,,,,,,,,,,,,,,,,,,,,,,,,,,,,シド,right,6.964,0,0,0,0,1,,,,,,,,,,,,,,,,,,,,,,,,,,,,,,,,
,,,,,,,,,R_ZKQTsabpnyV3AmB,2022-09-02_21h49.37,jpn_C03,2022.1.2,MacIntel,55.55555556,,,,,,,,,,,,,CartoonStims/artist_r.jpg,audio/sido.mp3,,,,,,,,,,,,,,,,,,,,,,,,,,,,,,,,,,,,,,0,3,3,0,1,シド,,,,,,,,,,,,,,,,,,,,,,,,,,
,,,,,,,,,R_ZKQTsabpnyV3AmB,2022-09-02_21h49.37,jpn_C03,2022.1.2,MacIntel,55.55555556,,,,,,,,,,,,,,,,,,,,,,,,,,,,,,,,,,,,,,,,,,,,ムク,right,8.615,0,0,0,0,1,,,,,,,,,,,,,,,,,,,,,,,,,,,,,,,,
,,,,,,,,,R_ZKQTsabpnyV3AmB,2022-09-02_21h49.37,jpn_C03,2022.1.2,MacIntel,55.55555556,,,,,,,,,,,,,CartoonStims/cowboy_r.jpg,audio/muku.mp3,,,,,,,,,,,,,,,,,,,,,,,,,,,,,,,,,,,,,,0,4,4,3,1,ムク,,,,,,,,,,,,,,,,,,,,,,,,,,
,,,,,,,,,R_ZKQTsabpnyV3AmB,2022-09-02_21h49.37,jpn_C03,2022.1.2,MacIntel,55.55555556,,,,,,,,,,,,,,,,,,,,,,,,,,,,,,,,,,,,,,,,,,,,ドキ,right,6.896,0,0,0,0,1,,,,,,,,,,,,,,,,,,,,,,,,,,,,,,,,
,,,,,,,,,R_ZKQTsabpnyV3AmB,2022-09-02_21h49.37,jpn_C03,2022.1.2,MacIntel,55.55555556,,,,,,,,,,,,,CartoonStims/boxer_r.jpg,audio/doki.mp3,,,,,,,,,,,,,,,,,,,,,,,,,,,,,,,,,,,,,,0,5,5,5,1,ドキ,,,,,,,,,,,,,,,,,,,,,,,,,,
,,,,,,,,,R_ZKQTsabpnyV3AmB,2022-09-02_21h49.37,jpn_C03,2022.1.2,MacIntel,55.55555556,,,,,,,,,,,,,,,,,,,,,,,,,,,,,,,,,,,,,,,,,,,,ドキ,right,7.998,0,0,0,0,1,,,,,,,,,,,,,,,,,,,,,,,,,,,,,,,,
,,,,,,,,,R_ZKQTsabpnyV3AmB,2022-09-02_21h49.37,jpn_C03,2022.1.2,MacIntel,55.55555556,,,,,,,,,,,,,CartoonStims/boxer_r.jpg,audio/doki.mp3,,,,,,,,,,,,,,,,,,,,,,,,,,,,,,,,,,,,,,1,0,6,5,1,ドキ,,,,,,,,,,,,,,,,,,,,,,,,,,
,,,,,,,,,R_ZKQTsabpnyV3AmB,2022-09-02_21h49.37,jpn_C03,2022.1.2,MacIntel,55.55555556,,,,,,,,,,,,,,,,,,,,,,,,,,,,,,,,,,,,,,,,,,,,ピポ,right,3.912,0,0,0,0,1,,,,,,,,,,,,,,,,,,,,,,,,,,,,,,,,
,,,,,,,,,R_ZKQTsabpnyV3AmB,2022-09-02_21h49.37,jpn_C03,2022.1.2,MacIntel,55.55555556,,,,,,,,,,,,,CartoonStims/doctor_r.jpg,audio/pipo.mp3,,,,,,,,,,,,,,,,,,,,,,,,,,,,,,,,,,,,,,1,1,7,4,1,ピポ,,,,,,,,,,,,,,,,,,,,,,,,,,
,,,,,,,,,R_ZKQTsabpnyV3AmB,2022-09-02_21h49.37,jpn_C03,2022.1.2,MacIntel,55.55555556,,,,,,,,,,,,,,,,,,,,,,,,,,,,,,,,,,,,,,,,,,,,ホレト,right,4.83,0,0,0,0,1,,,,,,,,,,,,,,,,,,,,,,,,,,,,,,,,
,,,,,,,,,R_ZKQTsabpnyV3AmB,2022-09-02_21h49.37,jpn_C03,2022.1.2,MacIntel,55.55555556,,,,,,,,,,,,,CartoonStims/chef_r.jpg,audio/horeto.mp3,,,,,,,,,,,,,,,,,,,,,,,,,,,,,,,,,,,,,,1,2,8,2,1,ホレト,,,,,,,,,,,,,,,,,,,,,,,,,,
,,,,,,,,,R_ZKQTsabpnyV3AmB,2022-09-02_21h49.37,jpn_C03,2022.1.2,MacIntel,55.55555556,,,,,,,,,,,,,,,,,,,,,,,,,,,,,,,,,,,,,,,,,,,,ルピン,right,6.034,0,0,0,0,1,,,,,,,,,,,,,,,,,,,,,,,,,,,,,,,,
,,,,,,,,,R_ZKQTsabpnyV3AmB,2022-09-02_21h49.37,jpn_C03,2022.1.2,MacIntel,55.55555556,,,,,,,,,,,,,CartoonStims/burglar_r.jpg,audio/lupin.mp3,,,,,,,,,,,,,,,,,,,,,,,,,,,,,,,,,,,,,,1,3,9,1,1,ルピン,,,,,,,,,,,,,,,,,,,,,,,,,,
,,,,,,,,,R_ZKQTsabpnyV3AmB,2022-09-02_21h49.37,jpn_C03,2022.1.2,MacIntel,55.55555556,,,,,,,,,,,,,,,,,,,,,,,,,,,,,,,,,,,,,,,,,,,,ムク,right,6.648,0,0,0,0,1,,,,,,,,,,,,,,,,,,,,,,,,,,,,,,,,
,,,,,,,,,R_ZKQTsabpnyV3AmB,2022-09-02_21h49.37,jpn_C03,2022.1.2,MacIntel,55.55555556,,,,,,,,,,,,,CartoonStims/cowboy_r.jpg,audio/muku.mp3,,,,,,,,,,,,,,,,,,,,,,,,,,,,,,,,,,,,,,1,4,10,3,1,ムク,,,,,,,,,,,,,,,,,,,,,,,,,,
,,,,,,,,,R_ZKQTsabpnyV3AmB,2022-09-02_21h49.37,jpn_C03,2022.1.2,MacIntel,55.55555556,,,,,,,,,,,,,,,,,,,,,,,,,,,,,,,,,,,,,,,,,,,,シド,right,4.893,0,0,0,0,1,,,,,,,,,,,,,,,,,,,,,,,,,,,,,,,,
,,,,,,,,,R_ZKQTsabpnyV3AmB,2022-09-02_21h49.37,jpn_C03,2022.1.2,MacIntel,55.55555556,,,,,,,,,,,,,CartoonStims/artist_r.jpg,audio/sido.mp3,,,,,,,,,,,,,,,,,,,,,,,,,,,,,,,,,,,,,,1,5,11,0,1,シド,,,,,,,,,,,,,,,,,,,,,,,,,,
,,,,,,,,,R_ZKQTsabpnyV3AmB,2022-09-02_21h49.37,jpn_C03,2022.1.2,MacIntel,55.55555556,,,,,,,,,,,,,,,,,,,,,,,,,,,,,,,,,,,,,,,,,,,,,,,,,,,,,,,,,,,space,26.005,0,0,0,0,1,NounExposure.xlsx,"最初のトライアルでは、 画像が表示され、 その画像の下に単語が出てきます。 またこの単語の音も聞くことができます。 この音を大きな声で復唱してください。 そしてこの画像がどのような単語を示しているのか, 考えてみてください。 その後、 続きのボタンを押すと次の単語の学習が始まります。

スペースキーを押して、学習を始めましょう。",3,NounFCT.xlsx,ここから語彙のクイズが始まります。スクリーンに表示される単語に合う画像をキーボードの右と左の矢印キーを使って選択してください。,NounTest.xlsx,2,次に、これまで学習してきたことをアウトプットしていただきます。 表示される画像を描写していると思う単語を、テキストボックスにタイプしてください。,1,"ここまでが最初のトライアルです。ここで休憩をとっても構いません。

休憩が済みましたら、スペースキーを押して続きを始めましょう。",,,,,,,,
,,,,,,,,,R_ZKQTsabpnyV3AmB,2022-09-02_21h49.37,jpn_C03,2022.1.2,MacIntel,55.55555556,space,12.586,space,32.502,0,0,0,44,1,プミ　ピポ　ホレト,,,CartoonStims/doctor_punch_chef_r.jpg,audio/pumipipohoreto.mp3,,,,,,,,,,,,,,,,,,,,,,,,,,,,,,,,,,,,,,,,,,,,,,,,,,,,,,,,,,,,,,,,,,,,,
,,,,,,,,,R_ZKQTsabpnyV3AmB,2022-09-02_21h49.37,jpn_C03,2022.1.2,MacIntel,55.55555556,,,space,12.487,0,1,1,8,1,セル　ピポ　ドキ,,,CartoonStims/doctor_kick_boxer_r.jpg,audio/serupipodoki.mp3,,,,,,,,,,,,,,,,,,,,,,,,,,,,,,,,,,,,,,,,,,,,,,,,,,,,,,,,,,,,,,,,,,,,,
,,,,,,,,,R_ZKQTsabpnyV3AmB,2022-09-02_21h49.37,jpn_C03,2022.1.2,MacIntel,55.55555556,,,space,17.009,0,2,2,15,1,トマ　ルピン　ピポ,,,CartoonStims/burglar_point_doctor_r.jpg,audio/tomalupinpipo.mp3,,,,,,,,,,,,,,,,,,,,,,,,,,,,,,,,,,,,,,,,,,,,,,,,,,,,,,,,,,,,,,,,,,,,,
,,,,,,,,,R_ZKQTsabpnyV3AmB,2022-09-02_21h49.37,jpn_C03,2022.1.2,MacIntel,55.55555556,,,space,8.851,0,3,3,27,1,パツ　ルピン　ドキ,,,CartoonStims/burglar_shoot_boxer_r.jpg,audio/patsulupindoki.mp3,,,,,,,,,,,,,,,,,,,,,,,,,,,,,,,,,,,,,,,,,,,,,,,,,,,,,,,,,,,,,,,,,,,,,
,,,,,,,,,R_ZKQTsabpnyV3AmB,2022-09-02_21h49.37,jpn_C03,2022.1.2,MacIntel,55.55555556,,,space,2.12,0,4,4,2,1,セル 　ルピン 　ホレト,,,CartoonStims/burglar_kick_chef_r.jpg,audio/serulupinhoreto.mp3,,,,,,,,,,,,,,,,,,,,,,,,,,,,,,,,,,,,,,,,,,,,,,,,,,,,,,,,,,,,,,,,,,,,,
,,,,,,,,,R_ZKQTsabpnyV3AmB,2022-09-02_21h49.37,jpn_C03,2022.1.2,MacIntel,55.55555556,,,space,1.551,0,5,5,35,1,パツ　ドキ　ムク,,,CartoonStims/boxer_shoot_cowboy_r.jpg,audio/patsudokimuku.mp3,,,,,,,,,,,,,,,,,,,,,,,,,,,,,,,,,,,,,,,,,,,,,,,,,,,,,,,,,,,,,,,,,,,,,
,,,,,,,,,R_ZKQTsabpnyV3AmB,2022-09-02_21h49.37,jpn_C03,2022.1.2,MacIntel,55.55555556,,,space,2.92,0,6,6,6,1,セル　ムク　ピポ,,,CartoonStims/cowboy_kick_doctor_r.jpg,audio/serumukupipo.mp3,,,,,,,,,,,,,,,,,,,,,,,,,,,,,,,,,,,,,,,,,,,,,,,,,,,,,,,,,,,,,,,,,,,,,
,,,,,,,,,R_ZKQTsabpnyV3AmB,2022-09-02_21h49.37,jpn_C03,2022.1.2,MacIntel,55.55555556,,,space,4.502,0,7,7,14,1,トマ　ルピン　ムク,,,CartoonStims/burglar_point_cowboy_r.jpg,audio/tomalupinmuku.mp3,,,,,,,,,,,,,,,,,,,,,,,,,,,,,,,,,,,,,,,,,,,,,,,,,,,,,,,,,,,,,,,,,,,,,
,,,,,,,,,R_ZKQTsabpnyV3AmB,2022-09-02_21h49.37,jpn_C03,2022.1.2,MacIntel,55.55555556,,,space,1.436,0,8,8,4,1,セル　ホレト　ムク,,,CartoonStims/chef_kick_cowboy_r.jpg,audio/seruhoretomuku.mp3,,,,,,,,,,,,,,,,,,,,,,,,,,,,,,,,,,,,,,,,,,,,,,,,,,,,,,,,,,,,,,,,,,,,,
,,,,,,,,,R_ZKQTsabpnyV3AmB,2022-09-02_21h49.37,jpn_C03,2022.1.2,MacIntel,55.55555556,,,space,1.512,0,9,9,26,1,パツ　ルピン　ピポ,,,CartoonStims/burglar_shoot_doctor_r.jpg,audio/patsulupinpipo.mp3,,,,,,,,,,,,,,,,,,,,,,,,,,,,,,,,,,,,,,,,,,,,,,,,,,,,,,,,,,,,,,,,,,,,,
,,,,,,,,,R_ZKQTsabpnyV3AmB,2022-09-02_21h49.37,jpn_C03,2022.1.2,MacIntel,55.55555556,,,space,4.804,0,10,10,16,1,トマ　ホレト　ピポ,,,CartoonStims/chef_point_doctor_r.jpg,audio/tomahoretopipo.mp3,,,,,,,,,,,,,,,,,,,,,,,,,,,,,,,,,,,,,,,,,,,,,,,,,,,,,,,,,,,,,,,,,,,,,
,,,,,,,,,R_ZKQTsabpnyV3AmB,2022-09-02_21h49.37,jpn_C03,2022.1.2,MacIntel,55.55555556,,,space,3.335,0,11,11,9,1,セル　ピポ　シド,,,CartoonStims/doctor_kick_artist_r.jpg,audio/serupiposido.mp3,,,,,,,,,,,,,,,,,,,,,,,,,,,,,,,,,,,,,,,,,,,,,,,,,,,,,,,,,,,,,,,,,,,,,
,,,,,,,,,R_ZKQTsabpnyV3AmB,2022-09-02_21h49.37,jpn_C03,2022.1.2,MacIntel,55.55555556,,,space,17.752,0,12,12,41,1,プミ　ホレト　ルピン,,,CartoonStims/chef_punch_burglar_r.jpg,audio/pumihoretolupin.mp3,,,,,,,,,,,,,,,,,,,,,,,,,,,,,,,,,,,,,,,,,,,,,,,,,,,,,,,,,,,,,,,,,,,,,
,,,,,,,,,R_ZKQTsabpnyV3AmB,2022-09-02_21h49.37,jpn_C03,2022.1.2,MacIntel,55.55555556,,,space,3.319,0,13,13,23,1,トマ　ドキ　ホレト,,,CartoonStims/boxer_point_chef_r.jpg,audio/tomadokihoreto.mp3,,,,,,,,,,,,,,,,,,,,,,,,,,,,,,,,,,,,,,,,,,,,,,,,,,,,,,,,,,,,,,,,,,,,,
,,,,,,,,,R_ZKQTsabpnyV3AmB,2022-09-02_21h49.37,jpn_C03,2022.1.2,MacIntel,55.55555556,,,space,2.486,0,14,14,20,1,トマ　ピポ　シド,,,CartoonStims/doctor_point_artist_r.jpg,audio/tomapiposido.mp3,,,,,,,,,,,,,,,,,,,,,,,,,,,,,,,,,,,,,,,,,,,,,,,,,,,,,,,,,,,,,,,,,,,,,
,,,,,,,,,R_ZKQTsabpnyV3AmB,2022-09-02_21h49.37,jpn_C03,2022.1.2,MacIntel,55.55555556,,,space,1.659,0,15,15,29,1,パツ　ホレト　シド,,,CartoonStims/chef_shoot_artist_r.jpg,audio/patsuhoretosido.mp3,,,,,,,,,,,,,,,,,,,,,,,,,,,,,,,,,,,,,,,,,,,,,,,,,,,,,,,,,,,,,,,,,,,,,
,,,,,,,,,R_ZKQTsabpnyV3AmB,2022-09-02_21h49.37,jpn_C03,2022.1.2,MacIntel,55.55555556,,,space,2.601,0,16,16,18,1,トマ　ムク　ドキ,,,CartoonStims/cowboy_point_boxer_r.jpg,audio/tomamukudoki.mp3,,,,,,,,,,,,,,,,,,,,,,,,,,,,,,,,,,,,,,,,,,,,,,,,,,,,,,,,,,,,,,,,,,,,,
,,,,,,,,,R_ZKQTsabpnyV3AmB,2022-09-02_21h49.37,jpn_C03,2022.1.2,MacIntel,55.55555556,,,space,2.817,0,17,17,5,1,セル　ホレト　ピポ,,,CartoonStims/chef_kick_doctor_r.jpg,audio/seruhoretopipo.mp3,,,,,,,,,,,,,,,,,,,,,,,,,,,,,,,,,,,,,,,,,,,,,,,,,,,,,,,,,,,,,,,,,,,,,
,,,,,,,,,R_ZKQTsabpnyV3AmB,2022-09-02_21h49.37,jpn_C03,2022.1.2,MacIntel,55.55555556,,,space,3.102,0,18,18,10,1,セル　ドキ　シド,,,CartoonStims/boxer_kick_artist_r.jpg,audio/serudokisido.mp3,,,,,,,,,,,,,,,,,,,,,,,,,,,,,,,,,,,,,,,,,,,,,,,,,,,,,,,,,,,,,,,,,,,,,
,,,,,,,,,R_ZKQTsabpnyV3AmB,2022-09-02_21h49.37,jpn_C03,2022.1.2,MacIntel,55.55555556,,,space,2.84,0,19,19,40,1,プミ　ホレト　シド,,,CartoonStims/chef_punch_artist_r.jpg,audio/pumihoretosido.mp3,,,,,,,,,,,,,,,,,,,,,,,,,,,,,,,,,,,,,,,,,,,,,,,,,,,,,,,,,,,,,,,,,,,,,
,,,,,,,,,R_ZKQTsabpnyV3AmB,2022-09-02_21h49.37,jpn_C03,2022.1.2,MacIntel,55.55555556,,,space,2.627,0,20,20,28,1,パツ　ホレト　ドキ,,,CartoonStims/chef_shoot_boxer_r.jpg,audio/patsuhoretodoki.mp3,,,,,,,,,,,,,,,,,,,,,,,,,,,,,,,,,,,,,,,,,,,,,,,,,,,,,,,,,,,,,,,,,,,,,
,,,,,,,,,R_ZKQTsabpnyV3AmB,2022-09-02_21h49.37,jpn_C03,2022.1.2,MacIntel,55.55555556,,,space,5.268,0,21,21,34,1,パツ　ドキ　ホレト,,,CartoonStims/boxer_shoot_chef_r.jpg,audio/patsudokihoreto.mp3,,,,,,,,,,,,,,,,,,,,,,,,,,,,,,,,,,,,,,,,,,,,,,,,,,,,,,,,,,,,,,,,,,,,,
,,,,,,,,,R_ZKQTsabpnyV3AmB,2022-09-02_21h49.37,jpn_C03,2022.1.2,MacIntel,55.55555556,,,space,7.84,0,22,22,45,1,プミ　ピポ　ムク,,,CartoonStims/doctor_punch_cowboy_r.jpg,audio/pumipipomuku.mp3,,,,,,,,,,,,,,,,,,,,,,,,,,,,,,,,,,,,,,,,,,,,,,,,,,,,,,,,,,,,,,,,,,,,,
,,,,,,,,,R_ZKQTsabpnyV3AmB,2022-09-02_21h49.37,jpn_C03,2022.1.2,MacIntel,55.55555556,,,space,2.207,0,23,23,33,1,パツ　ピポ　ホレト,,,CartoonStims/doctor_shoot_chef_r.jpg,audio/patsupipohoreto.mp3,,,,,,,,,,,,,,,,,,,,,,,,,,,,,,,,,,,,,,,,,,,,,,,,,,,,,,,,,,,,,,,,,,,,,
,,,,,,,,,R_ZKQTsabpnyV3AmB,2022-09-02_21h49.37,jpn_C03,2022.1.2,MacIntel,55.55555556,,,space,2.885,0,24,24,32,1,パツ　ピポ　ルピン,,,CartoonStims/doctor_shoot_burglar_r.jpg,audio/patsupipolupin.mp3,,,,,,,,,,,,,,,,,,,,,,,,,,,,,,,,,,,,,,,,,,,,,,,,,,,,,,,,,,,,,,,,,,,,,
,,,,,,,,,R_ZKQTsabpnyV3AmB,2022-09-02_21h49.37,jpn_C03,2022.1.2,MacIntel,55.55555556,,,space,8.786,0,25,25,1,1,セル 　シド 　ホレト,,,CartoonStims/artist_kick_chef_r.jpg,audio/serusidohoreto.mp3,,,,,,,,,,,,,,,,,,,,,,,,,,,,,,,,,,,,,,,,,,,,,,,,,,,,,,,,,,,,,,,,,,,,,
,,,,,,,,,R_ZKQTsabpnyV3AmB,2022-09-02_21h49.37,jpn_C03,2022.1.2,MacIntel,55.55555556,,,space,1.102,0,26,26,21,1,トマ　ピポ　ルピン,,,CartoonStims/doctor_point_burglar_r.jpg,audio/tomapipolupin.mp3,,,,,,,,,,,,,,,,,,,,,,,,,,,,,,,,,,,,,,,,,,,,,,,,,,,,,,,,,,,,,,,,,,,,,
,,,,,,,,,R_ZKQTsabpnyV3AmB,2022-09-02_21h49.37,jpn_C03,2022.1.2,MacIntel,55.55555556,,,space,1.118,0,27,27,19,1,トマ　ムク　シド,,,CartoonStims/cowboy_point_artist_r.jpg,audio/tomamukusido.mp3,,,,,,,,,,,,,,,,,,,,,,,,,,,,,,,,,,,,,,,,,,,,,,,,,,,,,,,,,,,,,,,,,,,,,
,,,,,,,,,R_ZKQTsabpnyV3AmB,2022-09-02_21h49.37,jpn_C03,2022.1.2,MacIntel,55.55555556,,,space,3.64,0,28,28,13,1,トマ　シド　ムク,,,CartoonStims/artist_point_cowboy_r.jpg,audio/tomasidomuku.mp3,,,,,,,,,,,,,,,,,,,,,,,,,,,,,,,,,,,,,,,,,,,,,,,,,,,,,,,,,,,,,,,,,,,,,
,,,,,,,,,R_ZKQTsabpnyV3AmB,2022-09-02_21h49.37,jpn_C03,2022.1.2,MacIntel,55.55555556,,,space,4.207,0,29,29,36,1,プミ　シド　ピポ,,,CartoonStims/artist_punch_doctor_r.jpg,audio/pumisidopipo.mp3,,,,,,,,,,,,,,,,,,,,,,,,,,,,,,,,,,,,,,,,,,,,,,,,,,,,,,,,,,,,,,,,,,,,,
,,,,,,,,,R_ZKQTsabpnyV3AmB,2022-09-02_21h49.37,jpn_C03,2022.1.2,MacIntel,55.55555556,,,space,1.553,0,30,30,46,1,プミ　ドキ　ムク,,,CartoonStims/boxer_punch_cowboy_r.jpg,audio/pumidokimuku.mp3,,,,,,,,,,,,,,,,,,,,,,,,,,,,,,,,,,,,,,,,,,,,,,,,,,,,,,,,,,,,,,,,,,,,,
,,,,,,,,,R_ZKQTsabpnyV3AmB,2022-09-02_21h49.37,jpn_C03,2022.1.2,MacIntel,55.55555556,,,space,2.153,0,31,31,30,1,パツ　ムク　シド,,,CartoonStims/cowboy_shoot_artist_r.jpg,audio/patsumukusido.mp3,,,,,,,,,,,,,,,,,,,,,,,,,,,,,,,,,,,,,,,,,,,,,,,,,,,,,,,,,,,,,,,,,,,,,
,,,,,,,,,R_ZKQTsabpnyV3AmB,2022-09-02_21h49.37,jpn_C03,2022.1.2,MacIntel,55.55555556,,,space,4.502,0,32,32,47,1,プミ　ドキ　ピポ,,,CartoonStims/boxer_punch_doctor_r.jpg,audio/pumidokipipo.mp3,,,,,,,,,,,,,,,,,,,,,,,,,,,,,,,,,,,,,,,,,,,,,,,,,,,,,,,,,,,,,,,,,,,,,
,,,,,,,,,R_ZKQTsabpnyV3AmB,2022-09-02_21h49.37,jpn_C03,2022.1.2,MacIntel,55.55555556,,,space,3.525,0,33,33,17,1,トマ　ホレト　ドキ,,,CartoonStims/chef_point_boxer_r.jpg,audio/tomahoretodoki.mp3,,,,,,,,,,,,,,,,,,,,,,,,,,,,,,,,,,,,,,,,,,,,,,,,,,,,,,,,,,,,,,,,,,,,,
,,,,,,,,,R_ZKQTsabpnyV3AmB,2022-09-02_21h49.37,jpn_C03,2022.1.2,MacIntel,55.55555556,,,space,1.57,0,34,34,31,1,パツ　ムク　ルピン,,,CartoonStims/cowboy_shoot_burglar_r.jpg,audio/patsumukulupin.mp3,,,,,,,,,,,,,,,,,,,,,,,,,,,,,,,,,,,,,,,,,,,,,,,,,,,,,,,,,,,,,,,,,,,,,
,,,,,,,,,R_ZKQTsabpnyV3AmB,2022-09-02_21h49.37,jpn_C03,2022.1.2,MacIntel,55.55555556,,,space,2.885,0,35,35,37,1,プミ　シド　ドキ,,,CartoonStims/artist_punch_boxer_r.jpg,audio/pumisidodoki.mp3,,,,,,,,,,,,,,,,,,,,,,,,,,,,,,,,,,,,,,,,,,,,,,,,,,,,,,,,,,,,,,,,,,,,,
,,,,,,,,,R_ZKQTsabpnyV3AmB,2022-09-02_21h49.37,jpn_C03,2022.1.2,MacIntel,55.55555556,,,space,1.453,0,36,36,0,1,セル　シド　ルピン,,,CartoonStims/artist_kick_burglar_r.jpg,audio/serusidolupin.mp3,,,,,,,,,,,,,,,,,,,,,,,,,,,,,,,,,,,,,,,,,,,,,,,,,,,,,,,,,,,,,,,,,,,,,
,,,,,,,,,R_ZKQTsabpnyV3AmB,2022-09-02_21h49.37,jpn_C03,2022.1.2,MacIntel,55.55555556,,,space,5.69,0,37,37,7,1,セル　ムク　ドキ,,,CartoonStims/cowboy_kick_boxer_r.jpg,audio/serumukudoki.mp3,,,,,,,,,,,,,,,,,,,,,,,,,,,,,,,,,,,,,,,,,,,,,,,,,,,,,,,,,,,,,,,,,,,,,
,,,,,,,,,R_ZKQTsabpnyV3AmB,2022-09-02_21h49.37,jpn_C03,2022.1.2,MacIntel,55.55555556,,,space,1.886,0,38,38,12,1,トマ　シド　ホレト,,,CartoonStims/artist_point_chef_r.jpg,audio/tomasidohoreto.mp3,,,,,,,,,,,,,,,,,,,,,,,,,,,,,,,,,,,,,,,,,,,,,,,,,,,,,,,,,,,,,,,,,,,,,
,,,,,,,,,R_ZKQTsabpnyV3AmB,2022-09-02_21h49.37,jpn_C03,2022.1.2,MacIntel,55.55555556,,,space,5.208,0,39,39,42,1,プミ　ムク　ルピン,,,CartoonStims/cowboy_punch_burglar_r.jpg,audio/pumimukulupin.mp3,,,,,,,,,,,,,,,,,,,,,,,,,,,,,,,,,,,,,,,,,,,,,,,,,,,,,,,,,,,,,,,,,,,,,
,,,,,,,,,R_ZKQTsabpnyV3AmB,2022-09-02_21h49.37,jpn_C03,2022.1.2,MacIntel,55.55555556,,,space,1.052,0,40,40,43,1,プミ　ムク　ホレト,,,CartoonStims/cowboy_punch_chef_r.jpg,audio/pumimukuhoreto.mp3,,,,,,,,,,,,,,,,,,,,,,,,,,,,,,,,,,,,,,,,,,,,,,,,,,,,,,,,,,,,,,,,,,,,,
,,,,,,,,,R_ZKQTsabpnyV3AmB,2022-09-02_21h49.37,jpn_C03,2022.1.2,MacIntel,55.55555556,,,space,3.053,0,41,41,22,1,トマ　ドキ　ルピン,,,CartoonStims/boxer_point_burglar_r.jpg,audio/tomadokilupin.mp3,,,,,,,,,,,,,,,,,,,,,,,,,,,,,,,,,,,,,,,,,,,,,,,,,,,,,,,,,,,,,,,,,,,,,
,,,,,,,,,R_ZKQTsabpnyV3AmB,2022-09-02_21h49.37,jpn_C03,2022.1.2,MacIntel,55.55555556,,,space,3.042,0,42,42,38,1,プミ　ルピン　ドキ,,,CartoonStims/burglar_punch_boxer_r.jpg,audio/pumilupindoki.mp3,,,,,,,,,,,,,,,,,,,,,,,,,,,,,,,,,,,,,,,,,,,,,,,,,,,,,,,,,,,,,,,,,,,,,
,,,,,,,,,R_ZKQTsabpnyV3AmB,2022-09-02_21h49.37,jpn_C03,2022.1.2,MacIntel,55.55555556,,,space,3.917,0,43,43,11,1,セル　ドキ　ルピン,,,CartoonStims/boxer_kick_burglar_r.jpg,audio/serudokilupin.mp3,,,,,,,,,,,,,,,,,,,,,,,,,,,,,,,,,,,,,,,,,,,,,,,,,,,,,,,,,,,,,,,,,,,,,
,,,,,,,,,R_ZKQTsabpnyV3AmB,2022-09-02_21h49.37,jpn_C03,2022.1.2,MacIntel,55.55555556,,,space,4.586,0,44,44,25,1,パツ　シド　ピポ,,,CartoonStims/artist_shoot_doctor_r.jpg,audio/patsusidopipo.mp3,,,,,,,,,,,,,,,,,,,,,,,,,,,,,,,,,,,,,,,,,,,,,,,,,,,,,,,,,,,,,,,,,,,,,
,,,,,,,,,R_ZKQTsabpnyV3AmB,2022-09-02_21h49.37,jpn_C03,2022.1.2,MacIntel,55.55555556,,,space,3.836,0,45,45,3,1,セル　ルピン　ムク,,,CartoonStims/burglar_kick_cowboy_r.jpg,audio/serulupinmuku.mp3,,,,,,,,,,,,,,,,,,,,,,,,,,,,,,,,,,,,,,,,,,,,,,,,,,,,,,,,,,,,,,,,,,,,,
,,,,,,,,,R_ZKQTsabpnyV3AmB,2022-09-02_21h49.37,jpn_C03,2022.1.2,MacIntel,55.55555556,,,space,1.859,0,46,46,39,1,プミ　ルピン　シド,,,CartoonStims/burglar_punch_artist_r.jpg,audio/pumilupinsido.mp3,,,,,,,,,,,,,,,,,,,,,,,,,,,,,,,,,,,,,,,,,,,,,,,,,,,,,,,,,,,,,,,,,,,,,
,,,,,,,,,R_ZKQTsabpnyV3AmB,2022-09-02_21h49.37,jpn_C03,2022.1.2,MacIntel,55.55555556,,,space,2.736,0,47,47,24,1,パツ　シド　ムク,,,CartoonStims/artist_shoot_cowboy_r.jpg,audio/patsusidomuku.mp3,,,,,,,,,,,,,,,,,,,,,,,,,,,,,,,,,,,,,,,,,,,,,,,,,,,,,,,,,,,,,,,,,,,,,
,,,,,,,,,R_ZKQTsabpnyV3AmB,2022-09-02_21h49.37,jpn_C03,2022.1.2,MacIntel,55.55555556,,,,,,,,,,,,,,,space,4.32,right,1,3.486,0,0,0,0,1,,,,,,,,,,,,,,,,,,,,,,,,,,,,,,,,,,,,,,,,,,,,,,,,,,,,,,,,,,,
,,,,,,,,,R_ZKQTsabpnyV3AmB,2022-09-02_21h49.37,jpn_C03,2022.1.2,MacIntel,55.55555556,,,,,,,,,,,,,,,,,,,,,,,,,0,0,0,5,1,CartoonStims/cowboy_point_chef_r.jpg,パツ　ムク　ホレト,CartoonStims/cowboy_shoot_chef_r.jpg,right,CartoonStims/cowboy_shoot_chef_r.jpg,audio/patsumukuhoreto.mp3,残念！ こちらが正しい画像です。,,,,,,,,,,,,,,,,,,,,,,,,,,,,,,,,,,,,,,,,,,,,,,,
,,,,,,,,,R_ZKQTsabpnyV3AmB,2022-09-02_21h49.37,jpn_C03,2022.1.2,MacIntel,55.55555556,,,,,,,,,,,,,,,,,right,1,1.02,0,0,0,0,1,,,,,,,,,,,,,,,,,,,,,,,,,,,,,,,,,,,,,,,,,,,,,,,,,,,,,,,,,,,
,,,,,,,,,R_ZKQTsabpnyV3AmB,2022-09-02_21h49.37,jpn_C03,2022.1.2,MacIntel,55.55555556,,,,,,,,,,,,,,,,,,,,,,,,,0,1,1,7,1,CartoonStims/artist_punch_cowboy_r.jpg,セル　シド　ムク,CartoonStims/artist_kick_cowboy_r.jpg,right,CartoonStims/artist_kick_cowboy_r.jpg,audio/serusidomuku.mp3,残念！ こちらが正しい画像です。,,,,,,,,,,,,,,,,,,,,,,,,,,,,,,,,,,,,,,,,,,,,,,,
,,,,,,,,,R_ZKQTsabpnyV3AmB,2022-09-02_21h49.37,jpn_C03,2022.1.2,MacIntel,55.55555556,,,,,,,,,,,,,,,,,right,1,2.035,0,0,0,0,1,,,,,,,,,,,,,,,,,,,,,,,,,,,,,,,,,,,,,,,,,,,,,,,,,,,,,,,,,,,
,,,,,,,,,R_ZKQTsabpnyV3AmB,2022-09-02_21h49.37,jpn_C03,2022.1.2,MacIntel,55.55555556,,,,,,,,,,,,,,,,,,,,,,,,,0,2,2,9,1,CartoonStims/chef_kick_artist_r.jpg,セル　ムク　シド,CartoonStims/cowboy_kick_artist_r.jpg,right,CartoonStims/cowboy_kick_artist_r.jpg,audio/serumukusido.mp3,残念！ こちらが正しい画像です。,,,,,,,,,,,,,,,,,,,,,,,,,,,,,,,,,,,,,,,,,,,,,,,
,,,,,,,,,R_ZKQTsabpnyV3AmB,2022-09-02_21h49.37,jpn_C03,2022.1.2,MacIntel,55.55555556,,,,,,,,,,,,,,,,,left,1,3.203,,,,,,,,,,,,,,,,,,0,0,0,0,1,,,,,,,,,,,,,,,,,,,,,,,,,,,,,,,,,,,,,,,,,,
,,,,,,,,,R_ZKQTsabpnyV3AmB,2022-09-02_21h49.37,jpn_C03,2022.1.2,MacIntel,55.55555556,,,,,,,,,,,,,,,,,,,,,,,,,0,3,3,10,1,CartoonStims/artist_shoot_burglar_r.jpg,パツ　シド　ルピン,CartoonStims/chef_shoot_burglar_r.jpg,left,CartoonStims/artist_shoot_burglar_r.jpg,audio/patsusidolupin.mp3,残念！ こちらが正しい画像です。,,,,,,,,,,,,,,,,,,,,,,,,,,,,,,,,,,,,,,,,,,,,,,,
,,,,,,,,,R_ZKQTsabpnyV3AmB,2022-09-02_21h49.37,jpn_C03,2022.1.2,MacIntel,55.55555556,,,,,,,,,,,,,,,,,left,1,2.125,,,,,,,,,,,,,,,,,,0,0,0,0,1,,,,,,,,,,,,,,,,,,,,,,,,,,,,,,,,,,,,,,,,,,
,,,,,,,,,R_ZKQTsabpnyV3AmB,2022-09-02_21h49.37,jpn_C03,2022.1.2,MacIntel,55.55555556,,,,,,,,,,,,,,,,,,,,,,,,,0,4,4,0,1,CartoonStims/doctor_kick_burglar_r.jpg,セル　ピポ　ルピン,CartoonStims/doctor_kick_chef_r.jpg,left,CartoonStims/doctor_kick_burglar_r.jpg,audio/serupipolupin.mp3,残念！ こちらが正しい画像です。,,,,,,,,,,,,,,,,,,,,,,,,,,,,,,,,,,,,,,,,,,,,,,,
,,,,,,,,,R_ZKQTsabpnyV3AmB,2022-09-02_21h49.37,jpn_C03,2022.1.2,MacIntel,55.55555556,,,,,,,,,,,,,,,,,right,1,2.684,0,0,0,0,1,,,,,,,,,,,,,,,,,,,,,,,,,,,,,,,,,,,,,,,,,,,,,,,,,,,,,,,,,,,
,,,,,,,,,R_ZKQTsabpnyV3AmB,2022-09-02_21h49.37,jpn_C03,2022.1.2,MacIntel,55.55555556,,,,,,,,,,,,,,,,,,,,,,,,,0,5,5,3,1,CartoonStims/cowboy_punch_doctor_r.jpg,プミ　ムク　ドキ,CartoonStims/cowboy_punch_boxer_r.jpg,right,CartoonStims/cowboy_punch_boxer_r.jpg,audio/pumimukudoki.mp3,残念！ こちらが正しい画像です。,,,,,,,,,,,,,,,,,,,,,,,,,,,,,,,,,,,,,,,,,,,,,,,
,,,,,,,,,R_ZKQTsabpnyV3AmB,2022-09-02_21h49.37,jpn_C03,2022.1.2,MacIntel,55.55555556,,,,,,,,,,,,,,,,,left,1,2.335,,,,,,,,,,,,,,,,,,0,0,0,0,1,,,,,,,,,,,,,,,,,,,,,,,,,,,,,,,,,,,,,,,,,,
,,,,,,,,,R_ZKQTsabpnyV3AmB,2022-09-02_21h49.37,jpn_C03,2022.1.2,MacIntel,55.55555556,,,,,,,,,,,,,,,,,,,,,,,,,0,6,6,8,1,CartoonStims/doctor_point_cowboy_r.jpg,トマ　ピポ　ムク,CartoonStims/boxer_point_cowboy_r.jpg,left,CartoonStims/doctor_point_cowboy_r.jpg,audio/tomapipomuku.mp3,残念！ こちらが正しい画像です。,,,,,,,,,,,,,,,,,,,,,,,,,,,,,,,,,,,,,,,,,,,,,,,
,,,,,,,,,R_ZKQTsabpnyV3AmB,2022-09-02_21h49.37,jpn_C03,2022.1.2,MacIntel,55.55555556,,,,,,,,,,,,,,,,,left,1,1.252,,,,,,,,,,,,,,,,,,0,0,0,0,1,,,,,,,,,,,,,,,,,,,,,,,,,,,,,,,,,,,,,,,,,,
,,,,,,,,,R_ZKQTsabpnyV3AmB,2022-09-02_21h49.37,jpn_C03,2022.1.2,MacIntel,55.55555556,,,,,,,,,,,,,,,,,,,,,,,,,0,7,7,4,1,CartoonStims/burglar_point_boxer_r.jpg,トマ　ルピン　ドキ,CartoonStims/burglar_kick_boxer_r.jpg,left,CartoonStims/burglar_point_boxer_r.jpg,audio/tomalupindoki.mp3,残念！ こちらが正しい画像です。,,,,,,,,,,,,,,,,,,,,,,,,,,,,,,,,,,,,,,,,,,,,,,,
,,,,,,,,,R_ZKQTsabpnyV3AmB,2022-09-02_21h49.37,jpn_C03,2022.1.2,MacIntel,55.55555556,,,,,,,,,,,,,,,,,right,1,1.186,0,0,0,0,1,,,,,,,,,,,,,,,,,,,,,,,,,,,,,,,,,,,,,,,,,,,,,,,,,,,,,,,,,,,
,,,,,,,,,R_ZKQTsabpnyV3AmB,2022-09-02_21h49.37,jpn_C03,2022.1.2,MacIntel,55.55555556,,,,,,,,,,,,,,,,,,,,,,,,,0,8,8,11,1,CartoonStims/burglar_punch_cowboy_r.jpg,プミ　ホレト　ムク,CartoonStims/chef_punch_cowboy_r.jpg,right,CartoonStims/chef_punch_cowboy_r.jpg,audio/pumihoretomuku.mp3,残念！ こちらが正しい画像です。,,,,,,,,,,,,,,,,,,,,,,,,,,,,,,,,,,,,,,,,,,,,,,,
,,,,,,,,,R_ZKQTsabpnyV3AmB,2022-09-02_21h49.37,jpn_C03,2022.1.2,MacIntel,55.55555556,,,,,,,,,,,,,,,,,right,1,2.304,0,0,0,0,1,,,,,,,,,,,,,,,,,,,,,,,,,,,,,,,,,,,,,,,,,,,,,,,,,,,,,,,,,,,
,,,,,,,,,R_ZKQTsabpnyV3AmB,2022-09-02_21h49.37,jpn_C03,2022.1.2,MacIntel,55.55555556,,,,,,,,,,,,,,,,,,,,,,,,,0,9,9,1,1,CartoonStims/chef_point_burglar_r.jpg,トマ　ホレト　シド,CartoonStims/chef_point_artist_r.jpg,right,CartoonStims/chef_point_artist_r.jpg,audio/tomahoretosido.mp3,残念！ こちらが正しい画像です。,,,,,,,,,,,,,,,,,,,,,,,,,,,,,,,,,,,,,,,,,,,,,,,
,,,,,,,,,R_ZKQTsabpnyV3AmB,2022-09-02_21h49.37,jpn_C03,2022.1.2,MacIntel,55.55555556,,,,,,,,,,,,,,,,,left,1,3.403,,,,,,,,,,,,,,,,,,0,0,0,0,1,,,,,,,,,,,,,,,,,,,,,,,,,,,,,,,,,,,,,,,,,,
,,,,,,,,,R_ZKQTsabpnyV3AmB,2022-09-02_21h49.37,jpn_C03,2022.1.2,MacIntel,55.55555556,,,,,,,,,,,,,,,,,,,,,,,,,0,10,10,6,1,CartoonStims/doctor_punch_boxer_r.jpg,プミ　ピポ　ドキ,CartoonStims/doctor_shoot_boxer_r.jpg,left,CartoonStims/doctor_punch_boxer_r.jpg,audio/pumipipodoki.mp3,残念！ こちらが正しい画像です。,,,,,,,,,,,,,,,,,,,,,,,,,,,,,,,,,,,,,,,,,,,,,,,
,,,,,,,,,R_ZKQTsabpnyV3AmB,2022-09-02_21h49.37,jpn_C03,2022.1.2,MacIntel,55.55555556,,,,,,,,,,,,,,,,,left,1,2.54,,,,,,,,,,,,,,,,,,0,0,0,0,1,,,,,,,,,,,,,,,,,,,,,,,,,,,,,,,,,,,,,,,,,,
,,,,,,,,,R_ZKQTsabpnyV3AmB,2022-09-02_21h49.37,jpn_C03,2022.1.2,MacIntel,55.55555556,,,,,,,,,,,,,,,,,,,,,,,,,0,11,11,2,1,CartoonStims/boxer_shoot_doctor_r.jpg,パツ　ドキ　ピポ,CartoonStims/boxer_shoot_artist_r.jpg,left,CartoonStims/boxer_shoot_doctor_r.jpg,audio/patsudokipipo.mp3,残念！ こちらが正しい画像です。,,,,,,,,,,,,,,,,,,,,,,,,,,,,,,,,,,,,,,,,,,,,,,,
,,,,,,,,,R_ZKQTsabpnyV3AmB,2022-09-02_21h49.37,jpn_C03,2022.1.2,MacIntel,55.55555556,,,,,,,,,,,,,,,,,,,,,,,,,,,,,,,,,,,,,,,,,,space,9.353,プミ　ドキ　シド,right,18.741,0,0,0,0,1,,,,,,,,,,,,,,,,,,,,,,,,,,,,,,,,
,,,,,,,,,R_ZKQTsabpnyV3AmB,2022-09-02_21h49.37,jpn_C03,2022.1.2,MacIntel,55.55555556,,,,,,,,,,,,,CartoonStims/boxer_punch_artist_r.jpg,audio/pumidokisido.mp3,,,,,,,,,,,,,,,,,,,,,,,,,,,,,,,,,,,,,,0,0,0,11,1,プミ　ドキ　シド,,,,,,,,,,,,,,,,,,,,,,,,,,
,,,,,,,,,R_ZKQTsabpnyV3AmB,2022-09-02_21h49.37,jpn_C03,2022.1.2,MacIntel,55.55555556,,,,,,,,,,,,,,,,,,,,,,,,,,,,,,,,,,,,,,,,,,,,トマ　シド　ドキ,right,17.143,0,0,0,0,1,,,,,,,,,,,,,,,,,,,,,,,,,,,,,,,,
,,,,,,,,,R_ZKQTsabpnyV3AmB,2022-09-02_21h49.37,jpn_C03,2022.1.2,MacIntel,55.55555556,,,,,,,,,,,,,CartoonStims/artist_point_boxer_r.jpg,audio/tomasidodoki.mp3,,,,,,,,,,,,,,,,,,,,,,,,,,,,,,,,,,,,,,0,1,1,3,1,トマ　シド　ドキ,,,,,,,,,,,,,,,,,,,,,,,,,,
,,,,,,,,,R_ZKQTsabpnyV3AmB,2022-09-02_21h49.37,jpn_C03,2022.1.2,MacIntel,55.55555556,,,,,,,,,,,,,,,,,,,,,,,,,,,,,,,,,,,,,,,,,,,,パツ　ホレト　ムク,right,19.147,0,0,0,0,1,,,,,,,,,,,,,,,,,,,,,,,,,,,,,,,,
,,,,,,,,,R_ZKQTsabpnyV3AmB,2022-09-02_21h49.37,jpn_C03,2022.1.2,MacIntel,55.55555556,,,,,,,,,,,,,CartoonStims/chef_shoot_cowboy_r.jpg,audio/patsuhoretomuku.mp3,,,,,,,,,,,,,,,,,,,,,,,,,,,,,,,,,,,,,,0,2,2,7,1,パツ　ホレト　ムク,,,,,,,,,,,,,,,,,,,,,,,,,,
,,,,,,,,,R_ZKQTsabpnyV3AmB,2022-09-02_21h49.37,jpn_C03,2022.1.2,MacIntel,55.55555556,,,,,,,,,,,,,,,,,,,,,,,,,,,,,,,,,,,,,,,,,,,,パツ　ルピン　ホレト,right,11.828,0,0,0,0,1,,,,,,,,,,,,,,,,,,,,,,,,,,,,,,,,
,,,,,,,,,R_ZKQTsabpnyV3AmB,2022-09-02_21h49.37,jpn_C03,2022.1.2,MacIntel,55.55555556,,,,,,,,,,,,,CartoonStims/burglar_shoot_chef_r.jpg,audio/patsulupinhoreto.mp3,,,,,,,,,,,,,,,,,,,,,,,,,,,,,,,,,,,,,,0,3,3,6,1,パツ　ルピン　ホレト,,,,,,,,,,,,,,,,,,,,,,,,,,
,,,,,,,,,R_ZKQTsabpnyV3AmB,2022-09-02_21h49.37,jpn_C03,2022.1.2,MacIntel,55.55555556,,,,,,,,,,,,,,,,,,,,,,,,,,,,,,,,,,,,,,,,,,,,プミ　シド　ルピン,right,16.746,0,0,0,0,1,,,,,,,,,,,,,,,,,,,,,,,,,,,,,,,,
,,,,,,,,,R_ZKQTsabpnyV3AmB,2022-09-02_21h49.37,jpn_C03,2022.1.2,MacIntel,55.55555556,,,,,,,,,,,,,CartoonStims/artist_punch_burglar_r.jpg,audio/pumisidolupin.mp3,,,,,,,,,,,,,,,,,,,,,,,,,,,,,,,,,,,,,,0,4,4,9,1,プミ　シド　ルピン,,,,,,,,,,,,,,,,,,,,,,,,,,
,,,,,,,,,R_ZKQTsabpnyV3AmB,2022-09-02_21h49.37,jpn_C03,2022.1.2,MacIntel,55.55555556,,,,,,,,,,,,,,,,,,,,,,,,,,,,,,,,,,,,,,,,,,,,トマ　ルピン　シド,right,17.128,0,0,0,0,1,,,,,,,,,,,,,,,,,,,,,,,,,,,,,,,,
,,,,,,,,,R_ZKQTsabpnyV3AmB,2022-09-02_21h49.37,jpn_C03,2022.1.2,MacIntel,55.55555556,,,,,,,,,,,,,CartoonStims/burglar_point_artist_r.jpg,audio/tomalupinsido.mp3,,,,,,,,,,,,,,,,,,,,,,,,,,,,,,,,,,,,,,0,5,5,4,1,トマ　ルピン　シド,,,,,,,,,,,,,,,,,,,,,,,,,,
,,,,,,,,,R_ZKQTsabpnyV3AmB,2022-09-02_21h49.37,jpn_C03,2022.1.2,MacIntel,55.55555556,,,,,,,,,,,,,,,,,,,,,,,,,,,,,,,,,,,,,,,,,,,,セル　ドキ　ムク,right,11.56,0,0,0,0,1,,,,,,,,,,,,,,,,,,,,,,,,,,,,,,,,
,,,,,,,,,R_ZKQTsabpnyV3AmB,2022-09-02_21h49.37,jpn_C03,2022.1.2,MacIntel,55.55555556,,,,,,,,,,,,,CartoonStims/boxer_kick_cowboy_r.jpg,audio/serudokimuku.mp3,,,,,,,,,,,,,,,,,,,,,,,,,,,,,,,,,,,,,,0,6,6,2,1,セル　ドキ　ムク,,,,,,,,,,,,,,,,,,,,,,,,,,
,,,,,,,,,R_ZKQTsabpnyV3AmB,2022-09-02_21h49.37,jpn_C03,2022.1.2,MacIntel,55.55555556,,,,,,,,,,,,,,,,,,,,,,,,,,,,,,,,,,,,,,,,,,,,トマ　ホレト　ルピン,right,10.963,0,0,0,0,1,,,,,,,,,,,,,,,,,,,,,,,,,,,,,,,,
,,,,,,,,,R_ZKQTsabpnyV3AmB,2022-09-02_21h49.37,jpn_C03,2022.1.2,MacIntel,55.55555556,,,,,,,,,,,,,CartoonStims/chef_point_burglar_r.jpg,audio/tomahoretolupin.mp3,,,,,,,,,,,,,,,,,,,,,,,,,,,,,,,,,,,,,,0,7,7,5,1,トマ　ホレト　ルピン,,,,,,,,,,,,,,,,,,,,,,,,,,
,,,,,,,,,R_ZKQTsabpnyV3AmB,2022-09-02_21h49.37,jpn_C03,2022.1.2,MacIntel,55.55555556,,,,,,,,,,,,,,,,,,,,,,,,,,,,,,,,,,,,,,,,,,,,パツ　ムク　ピポ,right,10.711,0,0,0,0,1,,,,,,,,,,,,,,,,,,,,,,,,,,,,,,,,
,,,,,,,,,R_ZKQTsabpnyV3AmB,2022-09-02_21h49.37,jpn_C03,2022.1.2,MacIntel,55.55555556,,,,,,,,,,,,,CartoonStims/cowboy_shoot_doctor_r.jpg,audio/patsumukupipo.mp3,,,,,,,,,,,,,,,,,,,,,,,,,,,,,,,,,,,,,,0,8,8,8,1,パツ　ムク　ピポ,,,,,,,,,,,,,,,,,,,,,,,,,,
,,,,,,,,,R_ZKQTsabpnyV3AmB,2022-09-02_21h49.37,jpn_C03,2022.1.2,MacIntel,55.55555556,,,,,,,,,,,,,,,,,,,,,,,,,,,,,,,,,,,,,,,,,,,,セル　ピポ　ホレト,right,8.926,0,0,0,0,1,,,,,,,,,,,,,,,,,,,,,,,,,,,,,,,,
,,,,,,,,,R_ZKQTsabpnyV3AmB,2022-09-02_21h49.37,jpn_C03,2022.1.2,MacIntel,55.55555556,,,,,,,,,,,,,CartoonStims/doctor_kick_chef_r.jpg,audio/serupipohoreto.mp3,,,,,,,,,,,,,,,,,,,,,,,,,,,,,,,,,,,,,,0,9,9,1,1,セル　ピポ　ホレト,,,,,,,,,,,,,,,,,,,,,,,,,,
,,,,,,,,,R_ZKQTsabpnyV3AmB,2022-09-02_21h49.37,jpn_C03,2022.1.2,MacIntel,55.55555556,,,,,,,,,,,,,,,,,,,,,,,,,,,,,,,,,,,,,,,,,,,,プミ　ピポ　ドキ,right,9.966,0,0,0,0,1,,,,,,,,,,,,,,,,,,,,,,,,,,,,,,,,
,,,,,,,,,R_ZKQTsabpnyV3AmB,2022-09-02_21h49.37,jpn_C03,2022.1.2,MacIntel,55.55555556,,,,,,,,,,,,,CartoonStims/doctor_punch_boxer_r.jpg,audio/pumipipodoki.mp3,,,,,,,,,,,,,,,,,,,,,,,,,,,,,,,,,,,,,,0,10,10,10,1,プミ　ピポ　ドキ,,,,,,,,,,,,,,,,,,,,,,,,,,
,,,,,,,,,R_ZKQTsabpnyV3AmB,2022-09-02_21h49.37,jpn_C03,2022.1.2,MacIntel,55.55555556,,,,,,,,,,,,,,,,,,,,,,,,,,,,,,,,,,,,,,,,,,,,セル　ムク　ルピン,right,9.343,0,0,0,0,1,,,,,,,,,,,,,,,,,,,,,,,,,,,,,,,,
,,,,,,,,,R_ZKQTsabpnyV3AmB,2022-09-02_21h49.37,jpn_C03,2022.1.2,MacIntel,55.55555556,,,,,,,,,,,,,CartoonStims/cowboy_kick_burglar_r.jpg,audio/serumukulupin.mp3,,,,,,,,,,,,,,,,,,,,,,,,,,,,,,,,,,,,,,0,11,11,0,1,セル　ムク　ルピン,,,,,,,,,,,,,,,,,,,,,,,,,,
,,,,,,,,,R_ZKQTsabpnyV3AmB,2022-09-02_21h49.37,jpn_C03,2022.1.2,MacIntel,55.55555556,,,,,,,,,,,,,,,,,,,,,,,,,,,,,,,,,,,,,,,,,,,,,,,,,,,,,,,,,,,space,87.743,0,1,1,1,1,AffExposure.xlsx,"第二のトライアルの学習では、この言語で書かれた文を見ていただきます。引き続き注意して、 聞こえた音を復唱してください。


スペースキーを押してください。",1,AffFCT.xlsx,ここからクイズが始まります。 スクリーンに表示されるテキストに合う画像を選んでください。,AffTest.xlsx,1,次にここまで学んだことをアウトプットしていただきます。 表示される画像を描写していると思う単語を、テキストボックスにタイプしてください。 答えを提出したあとに正しい正解が少しの間画面に写ります。,1,"これで第二のトライアルが終了しました。 ここで休憩をとっていただいても構いません。

休憩が終わりましたら、 スペースキーを押して続きの学習を行いましょう。",,,,,,,,
,,,,,,,,,R_ZKQTsabpnyV3AmB,2022-09-02_21h49.37,jpn_C03,2022.1.2,MacIntel,55.55555556,space,3.421,space,27.768,0,0,0,45,1,プミ　ピク　ピポ　ムク,,,CartoonStims/doctor_punch_cowboy_r_no.jpg,audio/pumipikupipomuku.mp3,,,,,,,,,,,,,,,,,,,,,,,,,,,,,,,,,,,,,,,,,,,,,,,,,,,,,,,,,,,,,,,,,,,,,
,,,,,,,,,R_ZKQTsabpnyV3AmB,2022-09-02_21h49.37,jpn_C03,2022.1.2,MacIntel,55.55555556,,,space,4.103,0,1,1,9,1,セル　ピク　ピポ　シド,,,CartoonStims/doctor_kick_artist_r_no.jpg,audio/serupikupiposido.mp3,,,,,,,,,,,,,,,,,,,,,,,,,,,,,,,,,,,,,,,,,,,,,,,,,,,,,,,,,,,,,,,,,,,,,
,,,,,,,,,R_ZKQTsabpnyV3AmB,2022-09-02_21h49.37,jpn_C03,2022.1.2,MacIntel,55.55555556,,,space,4.786,0,2,2,18,1,トマ　ピク　ムク　ドキ,,,CartoonStims/cowboy_point_boxer_r_no.jpg,audio/tomapikumukudoki.mp3,,,,,,,,,,,,,,,,,,,,,,,,,,,,,,,,,,,,,,,,,,,,,,,,,,,,,,,,,,,,,,,,,,,,,
,,,,,,,,,R_ZKQTsabpnyV3AmB,2022-09-02_21h49.37,jpn_C03,2022.1.2,MacIntel,55.55555556,,,space,3.934,0,3,3,22,1,トマ　ピク　ドキ　ルピン,,,CartoonStims/boxer_point_burglar_r_no.jpg,audio/tomapikudokilupin.mp3,,,,,,,,,,,,,,,,,,,,,,,,,,,,,,,,,,,,,,,,,,,,,,,,,,,,,,,,,,,,,,,,,,,,,
,,,,,,,,,R_ZKQTsabpnyV3AmB,2022-09-02_21h49.37,jpn_C03,2022.1.2,MacIntel,55.55555556,,,space,20.102,0,4,4,29,1,ピク　パツ　ホレト　シド,,,CartoonStims/chef_shoot_artist_r_no.jpg,audio/pikupatsuhoretosido.mp3,,,,,,,,,,,,,,,,,,,,,,,,,,,,,,,,,,,,,,,,,,,,,,,,,,,,,,,,,,,,,,,,,,,,,
,,,,,,,,,R_ZKQTsabpnyV3AmB,2022-09-02_21h49.37,jpn_C03,2022.1.2,MacIntel,55.55555556,,,space,8.323,0,5,5,21,1,トマ　ピク　ピポ　ルピン,,,CartoonStims/doctor_point_burglar_r_no.jpg,audio/tomapikupipolupin.mp3,,,,,,,,,,,,,,,,,,,,,,,,,,,,,,,,,,,,,,,,,,,,,,,,,,,,,,,,,,,,,,,,,,,,,
,,,,,,,,,R_ZKQTsabpnyV3AmB,2022-09-02_21h49.37,jpn_C03,2022.1.2,MacIntel,55.55555556,,,space,13.693,0,6,6,30,1,パツ　ピク　ムク　シド,,,CartoonStims/cowboy_shoot_artist_r_no.jpg,audio/patsupikumukusido.mp3,,,,,,,,,,,,,,,,,,,,,,,,,,,,,,,,,,,,,,,,,,,,,,,,,,,,,,,,,,,,,,,,,,,,,
,,,,,,,,,R_ZKQTsabpnyV3AmB,2022-09-02_21h49.37,jpn_C03,2022.1.2,MacIntel,55.55555556,,,space,14.185,0,7,7,33,1,パツ　ピク　ピポ　ホレト,,,CartoonStims/doctor_shoot_chef_r_no.jpg,audio/patsupikupipohoreto.mp3,,,,,,,,,,,,,,,,,,,,,,,,,,,,,,,,,,,,,,,,,,,,,,,,,,,,,,,,,,,,,,,,,,,,,
,,,,,,,,,R_ZKQTsabpnyV3AmB,2022-09-02_21h49.37,jpn_C03,2022.1.2,MacIntel,55.55555556,,,space,19.535,0,8,8,39,1,プミ　ピク　ルピン　シド,,,CartoonStims/burglar_punch_artist_r_no.jpg,audio/pumipikulupinsido.mp3,,,,,,,,,,,,,,,,,,,,,,,,,,,,,,,,,,,,,,,,,,,,,,,,,,,,,,,,,,,,,,,,,,,,,
,,,,,,,,,R_ZKQTsabpnyV3AmB,2022-09-02_21h49.37,jpn_C03,2022.1.2,MacIntel,55.55555556,,,space,18.42,0,9,9,23,1,ピク　トマ　ドキ　ホレト,,,CartoonStims/boxer_point_chef_r_no.jpg,audio/pikutomadokihoreto.mp3,,,,,,,,,,,,,,,,,,,,,,,,,,,,,,,,,,,,,,,,,,,,,,,,,,,,,,,,,,,,,,,,,,,,,
,,,,,,,,,R_ZKQTsabpnyV3AmB,2022-09-02_21h49.37,jpn_C03,2022.1.2,MacIntel,55.55555556,,,space,15.242,0,10,10,6,1,セル　ピク　ムク　ピポ,,,CartoonStims/cowboy_kick_doctor_r_no.jpg,audio/serupikumukupipo.mp3,,,,,,,,,,,,,,,,,,,,,,,,,,,,,,,,,,,,,,,,,,,,,,,,,,,,,,,,,,,,,,,,,,,,,
,,,,,,,,,R_ZKQTsabpnyV3AmB,2022-09-02_21h49.37,jpn_C03,2022.1.2,MacIntel,55.55555556,,,space,13.902,0,11,11,38,1,プミ　ピク　ルピン　ドキ,,,CartoonStims/burglar_punch_boxer_r_no.jpg,audio/pumipikulupindoki.mp3,,,,,,,,,,,,,,,,,,,,,,,,,,,,,,,,,,,,,,,,,,,,,,,,,,,,,,,,,,,,,,,,,,,,,
,,,,,,,,,R_ZKQTsabpnyV3AmB,2022-09-02_21h49.37,jpn_C03,2022.1.2,MacIntel,55.55555556,,,space,30.851,0,12,12,8,1,ピク　セル　ピポ　ドキ,,,CartoonStims/doctor_kick_boxer_r_no.jpg,audio/pikuserupipodoki.mp3,,,,,,,,,,,,,,,,,,,,,,,,,,,,,,,,,,,,,,,,,,,,,,,,,,,,,,,,,,,,,,,,,,,,,
,,,,,,,,,R_ZKQTsabpnyV3AmB,2022-09-02_21h49.37,jpn_C03,2022.1.2,MacIntel,55.55555556,,,space,40.706,0,13,13,19,1,ピク　トマ　ムク　シド,,,CartoonStims/cowboy_point_artist_r_no.jpg,audio/pikutomamukusido.mp3,,,,,,,,,,,,,,,,,,,,,,,,,,,,,,,,,,,,,,,,,,,,,,,,,,,,,,,,,,,,,,,,,,,,,
,,,,,,,,,R_ZKQTsabpnyV3AmB,2022-09-02_21h49.37,jpn_C03,2022.1.2,MacIntel,55.55555556,,,space,21.253,0,14,14,42,1,ピク　プミ　ムク　ルピン,,,CartoonStims/cowboy_punch_burglar_r_no.jpg,audio/pikupumimukulupin.mp3,,,,,,,,,,,,,,,,,,,,,,,,,,,,,,,,,,,,,,,,,,,,,,,,,,,,,,,,,,,,,,,,,,,,,
,,,,,,,,,R_ZKQTsabpnyV3AmB,2022-09-02_21h49.37,jpn_C03,2022.1.2,MacIntel,55.55555556,,,space,12.702,0,15,15,26,1,パツ　ピク　ルピン　ピポ,,,CartoonStims/burglar_shoot_doctor_r_no.jpg,audio/patsupikulupinpipo.mp3,,,,,,,,,,,,,,,,,,,,,,,,,,,,,,,,,,,,,,,,,,,,,,,,,,,,,,,,,,,,,,,,,,,,,
,,,,,,,,,R_ZKQTsabpnyV3AmB,2022-09-02_21h49.37,jpn_C03,2022.1.2,MacIntel,55.55555556,,,space,48.451,0,16,16,0,1,ピク　セル　シド　ルピン,,,CartoonStims/artist_kick_burglar_r_no.jpg,audio/pikuserusidolupin.mp3,,,,,,,,,,,,,,,,,,,,,,,,,,,,,,,,,,,,,,,,,,,,,,,,,,,,,,,,,,,,,,,,,,,,,
,,,,,,,,,R_ZKQTsabpnyV3AmB,2022-09-02_21h49.37,jpn_C03,2022.1.2,MacIntel,55.55555556,,,space,67.051,0,17,17,4,1,ピク　セル　ホレト　ムク,,,CartoonStims/chef_kick_cowboy_r_no.jpg,audio/pikuseruhoretomuku.mp3,,,,,,,,,,,,,,,,,,,,,,,,,,,,,,,,,,,,,,,,,,,,,,,,,,,,,,,,,,,,,,,,,,,,,
,,,,,,,,,R_ZKQTsabpnyV3AmB,2022-09-02_21h49.37,jpn_C03,2022.1.2,MacIntel,55.55555556,,,space,19.587,0,18,18,41,1,プミ　ピク　ホレト　ルピン,,,CartoonStims/chef_punch_burglar_r_no.jpg,audio/pumipikuhoretolupin.mp3,,,,,,,,,,,,,,,,,,,,,,,,,,,,,,,,,,,,,,,,,,,,,,,,,,,,,,,,,,,,,,,,,,,,,
,,,,,,,,,R_ZKQTsabpnyV3AmB,2022-09-02_21h49.37,jpn_C03,2022.1.2,MacIntel,55.55555556,,,space,18.621,0,19,19,11,1,セル　ピク　ドキ　ルピン,,,CartoonStims/boxer_kick_burglar_r_no.jpg,audio/serupikudokilupin.mp3,,,,,,,,,,,,,,,,,,,,,,,,,,,,,,,,,,,,,,,,,,,,,,,,,,,,,,,,,,,,,,,,,,,,,
,,,,,,,,,R_ZKQTsabpnyV3AmB,2022-09-02_21h49.37,jpn_C03,2022.1.2,MacIntel,55.55555556,,,space,21.885,0,20,20,16,1,トマ　ピク　ホレト　ピポ,,,CartoonStims/chef_point_doctor_r_no.jpg,audio/tomapikuhoretopipo.mp3,,,,,,,,,,,,,,,,,,,,,,,,,,,,,,,,,,,,,,,,,,,,,,,,,,,,,,,,,,,,,,,,,,,,,
,,,,,,,,,R_ZKQTsabpnyV3AmB,2022-09-02_21h49.37,jpn_C03,2022.1.2,MacIntel,55.55555556,,,space,15.602,0,21,21,35,1,パツ　ピク　ドキ　ムク,,,CartoonStims/boxer_shoot_cowboy_r_no.jpg,audio/patsupikudokimuku.mp3,,,,,,,,,,,,,,,,,,,,,,,,,,,,,,,,,,,,,,,,,,,,,,,,,,,,,,,,,,,,,,,,,,,,,
,,,,,,,,,R_ZKQTsabpnyV3AmB,2022-09-02_21h49.37,jpn_C03,2022.1.2,MacIntel,55.55555556,,,space,13.903,0,22,22,44,1,ピク　プミ　ピポ　ホレト,,,CartoonStims/doctor_punch_chef_r_no.jpg,audio/pikupumipipohoreto.mp3,,,,,,,,,,,,,,,,,,,,,,,,,,,,,,,,,,,,,,,,,,,,,,,,,,,,,,,,,,,,,,,,,,,,,
,,,,,,,,,R_ZKQTsabpnyV3AmB,2022-09-02_21h49.37,jpn_C03,2022.1.2,MacIntel,55.55555556,,,space,11.921,0,23,23,25,1,ピク　パツ　シド　ピポ,,,CartoonStims/artist_shoot_doctor_r_no.jpg,audio/pikupatsusidopipo.mp3,,,,,,,,,,,,,,,,,,,,,,,,,,,,,,,,,,,,,,,,,,,,,,,,,,,,,,,,,,,,,,,,,,,,,
,,,,,,,,,R_ZKQTsabpnyV3AmB,2022-09-02_21h49.37,jpn_C03,2022.1.2,MacIntel,55.55555556,,,space,10.668,0,24,24,20,1,トマ　ピク　ピポ　シド,,,CartoonStims/doctor_point_artist_r_no.jpg,audio/tomapikupiposido.mp3,,,,,,,,,,,,,,,,,,,,,,,,,,,,,,,,,,,,,,,,,,,,,,,,,,,,,,,,,,,,,,,,,,,,,
,,,,,,,,,R_ZKQTsabpnyV3AmB,2022-09-02_21h49.37,jpn_C03,2022.1.2,MacIntel,55.55555556,,,space,16.436,0,25,25,3,1,セル　ピク　ルピン　ムク,,,CartoonStims/burglar_kick_cowboy_r_no.jpg,audio/serupikulupinmuku.mp3,,,,,,,,,,,,,,,,,,,,,,,,,,,,,,,,,,,,,,,,,,,,,,,,,,,,,,,,,,,,,,,,,,,,,
,,,,,,,,,R_ZKQTsabpnyV3AmB,2022-09-02_21h49.37,jpn_C03,2022.1.2,MacIntel,55.55555556,,,space,20.653,0,26,26,24,1,パツ　ピク　シド　ムク,,,CartoonStims/artist_shoot_cowboy_r_no.jpg,audio/patsupikusidomuku.mp3,,,,,,,,,,,,,,,,,,,,,,,,,,,,,,,,,,,,,,,,,,,,,,,,,,,,,,,,,,,,,,,,,,,,,
,,,,,,,,,R_ZKQTsabpnyV3AmB,2022-09-02_21h49.37,jpn_C03,2022.1.2,MacIntel,55.55555556,,,space,11.874,0,27,27,13,1,トマ　ピク　シド　ムク,,,CartoonStims/artist_point_cowboy_r_no.jpg,audio/tomapikusidomuku.mp3,,,,,,,,,,,,,,,,,,,,,,,,,,,,,,,,,,,,,,,,,,,,,,,,,,,,,,,,,,,,,,,,,,,,,
,,,,,,,,,R_ZKQTsabpnyV3AmB,2022-09-02_21h49.37,jpn_C03,2022.1.2,MacIntel,55.55555556,,,space,29.501,0,28,28,46,1,ピク　プミ　ドキ　ムク,,,CartoonStims/boxer_punch_cowboy_r_no.jpg,audio/pikupumidokimuku.mp3,,,,,,,,,,,,,,,,,,,,,,,,,,,,,,,,,,,,,,,,,,,,,,,,,,,,,,,,,,,,,,,,,,,,,
,,,,,,,,,R_ZKQTsabpnyV3AmB,2022-09-02_21h49.37,jpn_C03,2022.1.2,MacIntel,55.55555556,,,space,4.369,0,29,29,17,1,トマ　ピク　ホレト　ドキ,,,CartoonStims/chef_point_boxer_r_no.jpg,audio/tomapikuhoretodoki.mp3,,,,,,,,,,,,,,,,,,,,,,,,,,,,,,,,,,,,,,,,,,,,,,,,,,,,,,,,,,,,,,,,,,,,,
,,,,,,,,,R_ZKQTsabpnyV3AmB,2022-09-02_21h49.37,jpn_C03,2022.1.2,MacIntel,55.55555556,,,space,13.142,0,30,30,7,1,セル　ピク　ムク　ドキ,,,CartoonStims/cowboy_kick_boxer_r_no.jpg,audio/serupikumukudoki.mp3,,,,,,,,,,,,,,,,,,,,,,,,,,,,,,,,,,,,,,,,,,,,,,,,,,,,,,,,,,,,,,,,,,,,,
,,,,,,,,,R_ZKQTsabpnyV3AmB,2022-09-02_21h49.37,jpn_C03,2022.1.2,MacIntel,55.55555556,,,space,11.518,0,31,31,43,1,プミ　ピク　ムク　ホレト,,,CartoonStims/cowboy_punch_chef_r_no.jpg,audio/pumipikumukuhoreto.mp3,,,,,,,,,,,,,,,,,,,,,,,,,,,,,,,,,,,,,,,,,,,,,,,,,,,,,,,,,,,,,,,,,,,,,
,,,,,,,,,R_ZKQTsabpnyV3AmB,2022-09-02_21h49.37,jpn_C03,2022.1.2,MacIntel,55.55555556,,,space,9.49,0,32,32,12,1,トマ　ピク　シド　ホレト,,,CartoonStims/artist_point_chef_r_no.jpg,audio/tomapikusidohoreto.mp3,,,,,,,,,,,,,,,,,,,,,,,,,,,,,,,,,,,,,,,,,,,,,,,,,,,,,,,,,,,,,,,,,,,,,
,,,,,,,,,R_ZKQTsabpnyV3AmB,2022-09-02_21h49.37,jpn_C03,2022.1.2,MacIntel,55.55555556,,,space,12.902,0,33,33,36,1,プミ　ピク　シド　ピポ,,,CartoonStims/artist_punch_doctor_r_no.jpg,audio/pumipikusidopipo.mp3,,,,,,,,,,,,,,,,,,,,,,,,,,,,,,,,,,,,,,,,,,,,,,,,,,,,,,,,,,,,,,,,,,,,,
,,,,,,,,,R_ZKQTsabpnyV3AmB,2022-09-02_21h49.37,jpn_C03,2022.1.2,MacIntel,55.55555556,,,space,5.818,0,34,34,32,1,パツ　ピク　ピポ　ルピン,,,CartoonStims/doctor_shoot_burglar_r_no.jpg,audio/patsupikupipolupin.mp3,,,,,,,,,,,,,,,,,,,,,,,,,,,,,,,,,,,,,,,,,,,,,,,,,,,,,,,,,,,,,,,,,,,,,
,,,,,,,,,R_ZKQTsabpnyV3AmB,2022-09-02_21h49.37,jpn_C03,2022.1.2,MacIntel,55.55555556,,,space,4.951,0,35,35,10,1,セル　ピク　ドキ　シド,,,CartoonStims/boxer_kick_artist_r_no.jpg,audio/serupikudokisido.mp3,,,,,,,,,,,,,,,,,,,,,,,,,,,,,,,,,,,,,,,,,,,,,,,,,,,,,,,,,,,,,,,,,,,,,
,,,,,,,,,R_ZKQTsabpnyV3AmB,2022-09-02_21h49.37,jpn_C03,2022.1.2,MacIntel,55.55555556,,,space,9.586,0,36,36,5,1,セル　ピク　ホレト　ピポ,,,CartoonStims/chef_kick_doctor_r_no.jpg,audio/serupikuhoretopipo.mp3,,,,,,,,,,,,,,,,,,,,,,,,,,,,,,,,,,,,,,,,,,,,,,,,,,,,,,,,,,,,,,,,,,,,,
,,,,,,,,,R_ZKQTsabpnyV3AmB,2022-09-02_21h49.37,jpn_C03,2022.1.2,MacIntel,55.55555556,,,space,9.918,0,37,37,28,1,パツ　ピク　ホレト　ドキ,,,CartoonStims/chef_shoot_boxer_r_no.jpg,audio/patsupikuhoretodoki.mp3,,,,,,,,,,,,,,,,,,,,,,,,,,,,,,,,,,,,,,,,,,,,,,,,,,,,,,,,,,,,,,,,,,,,,
,,,,,,,,,R_ZKQTsabpnyV3AmB,2022-09-02_21h49.37,jpn_C03,2022.1.2,MacIntel,55.55555556,,,space,10.219,0,38,38,31,1,パツ　ピク　ムク　ルピン,,,CartoonStims/cowboy_shoot_burglar_r_no.jpg,audio/patsupikumukulupin.mp3,,,,,,,,,,,,,,,,,,,,,,,,,,,,,,,,,,,,,,,,,,,,,,,,,,,,,,,,,,,,,,,,,,,,,
,,,,,,,,,R_ZKQTsabpnyV3AmB,2022-09-02_21h49.37,jpn_C03,2022.1.2,MacIntel,55.55555556,,,space,10.186,0,39,39,14,1,トマ　ピク　ルピン　ムク,,,CartoonStims/burglar_point_cowboy_r_no.jpg,audio/tomapikulupinmuku.mp3,,,,,,,,,,,,,,,,,,,,,,,,,,,,,,,,,,,,,,,,,,,,,,,,,,,,,,,,,,,,,,,,,,,,,
,,,,,,,,,R_ZKQTsabpnyV3AmB,2022-09-02_21h49.37,jpn_C03,2022.1.2,MacIntel,55.55555556,,,space,14.219,0,40,40,1,1,セル　ピク　シド　ホレト,,,CartoonStims/artist_kick_chef_r_no.jpg,audio/serupikusidohoreto.mp3,,,,,,,,,,,,,,,,,,,,,,,,,,,,,,,,,,,,,,,,,,,,,,,,,,,,,,,,,,,,,,,,,,,,,
,,,,,,,,,R_ZKQTsabpnyV3AmB,2022-09-02_21h49.37,jpn_C03,2022.1.2,MacIntel,55.55555556,,,space,22.135,0,41,41,27,1,ピク　パツ　ルピン　ドキ,,,CartoonStims/burglar_shoot_boxer_r_no.jpg,audio/pikupatsulupindoki.mp3,,,,,,,,,,,,,,,,,,,,,,,,,,,,,,,,,,,,,,,,,,,,,,,,,,,,,,,,,,,,,,,,,,,,,
,,,,,,,,,R_ZKQTsabpnyV3AmB,2022-09-02_21h49.37,jpn_C03,2022.1.2,MacIntel,55.55555556,,,space,21.67,0,42,42,37,1,プミ　ピク　シド　ドキ,,,CartoonStims/artist_punch_boxer_r_no.jpg,audio/pumipikusidodoki.mp3,,,,,,,,,,,,,,,,,,,,,,,,,,,,,,,,,,,,,,,,,,,,,,,,,,,,,,,,,,,,,,,,,,,,,
,,,,,,,,,R_ZKQTsabpnyV3AmB,2022-09-02_21h49.37,jpn_C03,2022.1.2,MacIntel,55.55555556,,,space,12.869,0,43,43,15,1,ピク　トマ　ルピン　ピポ,,,CartoonStims/burglar_point_doctor_r_no.jpg,audio/pikutomalupinpipo.mp3,,,,,,,,,,,,,,,,,,,,,,,,,,,,,,,,,,,,,,,,,,,,,,,,,,,,,,,,,,,,,,,,,,,,,
,,,,,,,,,R_ZKQTsabpnyV3AmB,2022-09-02_21h49.37,jpn_C03,2022.1.2,MacIntel,55.55555556,,,space,23.152,0,44,44,47,1,プミ　ピク　ドキ　ピポ,,,CartoonStims/boxer_punch_doctor_r_no.jpg,audio/pumipikudokipipo.mp3,,,,,,,,,,,,,,,,,,,,,,,,,,,,,,,,,,,,,,,,,,,,,,,,,,,,,,,,,,,,,,,,,,,,,
,,,,,,,,,R_ZKQTsabpnyV3AmB,2022-09-02_21h49.37,jpn_C03,2022.1.2,MacIntel,55.55555556,,,space,8.256,0,45,45,2,1,セル　ピク　ルピン　ホレト,,,CartoonStims/burglar_kick_chef_r_no.jpg,audio/serupikulupinhoreto.mp3,,,,,,,,,,,,,,,,,,,,,,,,,,,,,,,,,,,,,,,,,,,,,,,,,,,,,,,,,,,,,,,,,,,,,
,,,,,,,,,R_ZKQTsabpnyV3AmB,2022-09-02_21h49.37,jpn_C03,2022.1.2,MacIntel,55.55555556,,,space,13.241,0,46,46,40,1,プミ　ピク　ホレト　シド,,,CartoonStims/chef_punch_artist_r_no.jpg,audio/pumipikuhoretosido.mp3,,,,,,,,,,,,,,,,,,,,,,,,,,,,,,,,,,,,,,,,,,,,,,,,,,,,,,,,,,,,,,,,,,,,,
,,,,,,,,,R_ZKQTsabpnyV3AmB,2022-09-02_21h49.37,jpn_C03,2022.1.2,MacIntel,55.55555556,,,space,9.236,0,47,47,34,1,パツ　ピク　ドキ　ホレト,,,CartoonStims/boxer_shoot_chef_r_no.jpg,audio/patsupikudokihoreto.mp3,,,,,,,,,,,,,,,,,,,,,,,,,,,,,,,,,,,,,,,,,,,,,,,,,,,,,,,,,,,,,,,,,,,,,
,,,,,,,,,R_ZKQTsabpnyV3AmB,2022-09-02_21h49.37,jpn_C03,2022.1.2,MacIntel,55.55555556,,,,,,,,,,,,,,,space,0.209,right,0,16.636,,,,,,,,,,,,,,,,,,,,,,,,,,,,,,,,,,,,,,,,,,,,,,,,,,,,,,,,,0,0,0,0,1,,,
,,,,,,,,,R_ZKQTsabpnyV3AmB,2022-09-02_21h49.37,jpn_C03,2022.1.2,MacIntel,55.55555556,,,,,,,,,,,,,,,,,,,,,,,,,0,0,0,10,1,CartoonStims/doctor_punch_cowboy_r.jpg,ピク　パツ　ピポ　ムク,CartoonStims/doctor_shoot_cowboy_r.jpg,left,CartoonStims/doctor_punch_cowboy_r.jpg,audio/pikupatsupipomuku.mp3,"残念！ こちらが正しい画像です。

否定文は起きていないことを示しているのを思い出してください。",,,,,,,,,,,,,,,,,,,,,,,,,,,,,,,,,,,,,,,,,,,,,,,
,,,,,,,,,R_ZKQTsabpnyV3AmB,2022-09-02_21h49.37,jpn_C03,2022.1.2,MacIntel,55.55555556,,,,,,,,,,,,,,,,,left,1,3.619,,,,,,,,,,,,,,,,,,0,0,0,0,1,,,,,,,,,,,,,,,,,,,,,,,,,,,,,,,,,,,,,,,,,,
,,,,,,,,,R_ZKQTsabpnyV3AmB,2022-09-02_21h49.37,jpn_C03,2022.1.2,MacIntel,55.55555556,,,,,,,,,,,,,,,,,,,,,,,,,0,1,1,4,1,CartoonStims/burglar_shoot_doctor_r.jpg,セル　ピク　ルピン　ピポ,CartoonStims/burglar_kick_doctor_r.jpg,left,CartoonStims/burglar_shoot_doctor_r.jpg,audio/serupikulupinpipo.mp3,"残念！ こちらが正しい画像です。

否定文は起きていないことを示しているのを思い出してください。",,,,,,,,,,,,,,,,,,,,,,,,,,,,,,,,,,,,,,,,,,,,,,,
,,,,,,,,,R_ZKQTsabpnyV3AmB,2022-09-02_21h49.37,jpn_C03,2022.1.2,MacIntel,55.55555556,,,,,,,,,,,,,,,,,right,1,1.285,0,0,0,0,1,,,,,,,,,,,,,,,,,,,,,,,,,,,,,,,,,,,,,,,,,,,,,,,,,,,,,,,,,,,
,,,,,,,,,R_ZKQTsabpnyV3AmB,2022-09-02_21h49.37,jpn_C03,2022.1.2,MacIntel,55.55555556,,,,,,,,,,,,,,,,,,,,,,,,,0,2,2,1,1,CartoonStims/chef_punch_cowboy_r.jpg,プミ　ピク　ホレト　ムク,CartoonStims/chef_kick_cowboy_r.jpg,right,CartoonStims/chef_kick_cowboy_r.jpg,audio/pumipikuhoretomuku.mp3,"残念！ こちらが正しい画像です。

否定文は起きていないことを示しているのを思い出してください。",,,,,,,,,,,,,,,,,,,,,,,,,,,,,,,,,,,,,,,,,,,,,,,
,,,,,,,,,R_ZKQTsabpnyV3AmB,2022-09-02_21h49.37,jpn_C03,2022.1.2,MacIntel,55.55555556,,,,,,,,,,,,,,,,,right,1,0.719,0,0,0,0,1,,,,,,,,,,,,,,,,,,,,,,,,,,,,,,,,,,,,,,,,,,,,,,,,,,,,,,,,,,,
,,,,,,,,,R_ZKQTsabpnyV3AmB,2022-09-02_21h49.37,jpn_C03,2022.1.2,MacIntel,55.55555556,,,,,,,,,,,,,,,,,,,,,,,,,0,3,3,11,1,CartoonStims/chef_shoot_burglar_r.jpg,パツ　ピク　ホレト　ルピン,CartoonStims/chef_kick_burglar_r.jpg,right,CartoonStims/chef_kick_burglar_r.jpg,audio/patsupikuhoretolupin.mp3,"残念！ こちらが正しい画像です。

否定文は起きていないことを示しているのを思い出してください。",,,,,,,,,,,,,,,,,,,,,,,,,,,,,,,,,,,,,,,,,,,,,,,
,,,,,,,,,R_ZKQTsabpnyV3AmB,2022-09-02_21h49.37,jpn_C03,2022.1.2,MacIntel,55.55555556,,,,,,,,,,,,,,,,,right,1,0.325,0,0,0,0,1,,,,,,,,,,,,,,,,,,,,,,,,,,,,,,,,,,,,,,,,,,,,,,,,,,,,,,,,,,,
,,,,,,,,,R_ZKQTsabpnyV3AmB,2022-09-02_21h49.37,jpn_C03,2022.1.2,MacIntel,55.55555556,,,,,,,,,,,,,,,,,,,,,,,,,0,4,4,9,1,CartoonStims/boxer_shoot_doctor_r.jpg,パツ　ピク　ドキ　ピポ,CartoonStims/boxer_point_doctor_r.jpg,right,CartoonStims/boxer_point_doctor_r.jpg,audio/patsupikudokipipo.mp3,"残念！ こちらが正しい画像です。

否定文は起きていないことを示しているのを思い出してください。",,,,,,,,,,,,,,,,,,,,,,,,,,,,,,,,,,,,,,,,,,,,,,,
,,,,,,,,,R_ZKQTsabpnyV3AmB,2022-09-02_21h49.37,jpn_C03,2022.1.2,MacIntel,55.55555556,,,,,,,,,,,,,,,,,right,1,3.635,0,0,0,0,1,,,,,,,,,,,,,,,,,,,,,,,,,,,,,,,,,,,,,,,,,,,,,,,,,,,,,,,,,,,
,,,,,,,,,R_ZKQTsabpnyV3AmB,2022-09-02_21h49.37,jpn_C03,2022.1.2,MacIntel,55.55555556,,,,,,,,,,,,,,,,,,,,,,,,,0,5,5,3,1,CartoonStims/chef_kick_artist_r.jpg,ピク　セル　ホレト　シド,CartoonStims/chef_point_artist_r.jpg,right,CartoonStims/chef_point_artist_r.jpg,audio/pikuseruhoretosido.mp3,"残念！ こちらが正しい画像です。

否定文は起きていないことを示しているのを思い出してください。",,,,,,,,,,,,,,,,,,,,,,,,,,,,,,,,,,,,,,,,,,,,,,,
,,,,,,,,,R_ZKQTsabpnyV3AmB,2022-09-02_21h49.37,jpn_C03,2022.1.2,MacIntel,55.55555556,,,,,,,,,,,,,,,,,left,1,2.223,,,,,,,,,,,,,,,,,,0,0,0,0,1,,,,,,,,,,,,,,,,,,,,,,,,,,,,,,,,,,,,,,,,,,
,,,,,,,,,R_ZKQTsabpnyV3AmB,2022-09-02_21h49.37,jpn_C03,2022.1.2,MacIntel,55.55555556,,,,,,,,,,,,,,,,,,,,,,,,,0,6,6,0,1,CartoonStims/artist_shoot_burglar_r.jpg,ピク　プミ　シド　ルピン,CartoonStims/artist_punch_burglar_r.jpg,left,CartoonStims/artist_shoot_burglar_r.jpg,audio/pikupumisidolupin.mp3,"残念！ こちらが正しい画像です。

否定文は起きていないことを示しているのを思い出してください。",,,,,,,,,,,,,,,,,,,,,,,,,,,,,,,,,,,,,,,,,,,,,,,
,,,,,,,,,R_ZKQTsabpnyV3AmB,2022-09-02_21h49.37,jpn_C03,2022.1.2,MacIntel,55.55555556,,,,,,,,,,,,,,,,,left,1,1.385,,,,,,,,,,,,,,,,,,0,0,0,0,1,,,,,,,,,,,,,,,,,,,,,,,,,,,,,,,,,,,,,,,,,,
,,,,,,,,,R_ZKQTsabpnyV3AmB,2022-09-02_21h49.37,jpn_C03,2022.1.2,MacIntel,55.55555556,,,,,,,,,,,,,,,,,,,,,,,,,0,7,7,6,1,CartoonStims/artist_shoot_boxer_r.jpg,トマ　ピク　シド　ドキ,CartoonStims/artist_point_boxer_r.jpg,left,CartoonStims/artist_shoot_boxer_r.jpg,audio/tomapikusidodoki.mp3,"残念！ こちらが正しい画像です。

否定文は起きていないことを示しているのを思い出してください。",,,,,,,,,,,,,,,,,,,,,,,,,,,,,,,,,,,,,,,,,,,,,,,
,,,,,,,,,R_ZKQTsabpnyV3AmB,2022-09-02_21h49.37,jpn_C03,2022.1.2,MacIntel,55.55555556,,,,,,,,,,,,,,,,,left,1,2.402,,,,,,,,,,,,,,,,,,0,0,0,0,1,,,,,,,,,,,,,,,,,,,,,,,,,,,,,,,,,,,,,,,,,,
,,,,,,,,,R_ZKQTsabpnyV3AmB,2022-09-02_21h49.37,jpn_C03,2022.1.2,MacIntel,55.55555556,,,,,,,,,,,,,,,,,,,,,,,,,0,8,8,8,1,CartoonStims/burglar_punch_artist_r.jpg,トマ　ピク　ルピン　シド,CartoonStims/burglar_point_artist_r.jpg,left,CartoonStims/burglar_punch_artist_r.jpg,audio/tomapikulupinsido.mp3,"残念！ こちらが正しい画像です。

否定文は起きていないことを示しているのを思い出してください。",,,,,,,,,,,,,,,,,,,,,,,,,,,,,,,,,,,,,,,,,,,,,,,
,,,,,,,,,R_ZKQTsabpnyV3AmB,2022-09-02_21h49.37,jpn_C03,2022.1.2,MacIntel,55.55555556,,,,,,,,,,,,,,,,,left,1,2.585,,,,,,,,,,,,,,,,,,0,0,0,0,1,,,,,,,,,,,,,,,,,,,,,,,,,,,,,,,,,,,,,,,,,,
,,,,,,,,,R_ZKQTsabpnyV3AmB,2022-09-02_21h49.37,jpn_C03,2022.1.2,MacIntel,55.55555556,,,,,,,,,,,,,,,,,,,,,,,,,0,9,9,2,1,CartoonStims/doctor_point_boxer_r.jpg,プミ　ピク　ピポ　ドキ,CartoonStims/doctor_punch_boxer_r.jpg,left,CartoonStims/doctor_point_boxer_r.jpg,audio/pumipikupipodoki.mp3,"残念！ こちらが正しい画像です。

否定文は起きていないことを示しているのを思い出してください。",,,,,,,,,,,,,,,,,,,,,,,,,,,,,,,,,,,,,,,,,,,,,,,
,,,,,,,,,R_ZKQTsabpnyV3AmB,2022-09-02_21h49.37,jpn_C03,2022.1.2,MacIntel,55.55555556,,,,,,,,,,,,,,,,,right,1,0.851,0,0,0,0,1,,,,,,,,,,,,,,,,,,,,,,,,,,,,,,,,,,,,,,,,,,,,,,,,,,,,,,,,,,,
,,,,,,,,,R_ZKQTsabpnyV3AmB,2022-09-02_21h49.37,jpn_C03,2022.1.2,MacIntel,55.55555556,,,,,,,,,,,,,,,,,,,,,,,,,0,10,10,5,1,CartoonStims/boxer_kick_cowboy_r.jpg,セル　ピク　ドキ　ムク,CartoonStims/boxer_punch_cowboy_r.jpg,right,CartoonStims/boxer_punch_cowboy_r.jpg,audio/serupikudokimuku.mp3,"残念！ こちらが正しい画像です。

否定文は起きていないことを示しているのを思い出してください。",,,,,,,,,,,,,,,,,,,,,,,,,,,,,,,,,,,,,,,,,,,,,,,
,,,,,,,,,R_ZKQTsabpnyV3AmB,2022-09-02_21h49.37,jpn_C03,2022.1.2,MacIntel,55.55555556,,,,,,,,,,,,,,,,,right,1,1.286,0,0,0,0,1,,,,,,,,,,,,,,,,,,,,,,,,,,,,,,,,,,,,,,,,,,,,,,,,,,,,,,,,,,,
,,,,,,,,,R_ZKQTsabpnyV3AmB,2022-09-02_21h49.37,jpn_C03,2022.1.2,MacIntel,55.55555556,,,,,,,,,,,,,,,,,,,,,,,,,0,11,11,7,1,CartoonStims/cowboy_point_chef_r.jpg,ピク　トマ　ムク　ホレト,CartoonStims/cowboy_kick_chef_r.jpg,right,CartoonStims/cowboy_kick_chef_r.jpg,audio/pikutomamukuhoreto.mp3,"残念！ こちらが正しい画像です。

否定文は起きていないことを示しているのを思い出してください。",,,,,,,,,,,,,,,,,,,,,,,,,,,,,,,,,,,,,,,,,,,,,,,
,,,,,,,,,R_ZKQTsabpnyV3AmB,2022-09-02_21h49.37,jpn_C03,2022.1.2,MacIntel,55.55555556,,,,,,,,,,,,,CartoonStims/doctor_punch_burglar_r_no.jpg,,,,,,,,,,,,,,,,,,,,,,,,,,,,,space,2.436,プミ　ピク　ピポ　ルピン,right,62.749,,,,,,0,0,0,22,1,,,,,,,,,,,,,,,,,,,,,,,,,ピク　プミ　ピポ　ルピン,プミ　ピク　ピポ　ルピン,1
,,,,,,,,,R_ZKQTsabpnyV3AmB,2022-09-02_21h49.37,jpn_C03,2022.1.2,MacIntel,55.55555556,,,,,,,,,,,,,CartoonStims/burglar_kick_artist_r_no.jpg,,,,,,,,,,,,,,,,,,,,,,,,,,,,,,,セル　ピク　ルピン　シド,right,58.025,,,,,,0,1,1,1,1,,,,,,,,,,,,,,,,,,,,,,,,,ピク　セル　ルピン　シド,セル　ピク　ルピン　シド,1
,,,,,,,,,R_ZKQTsabpnyV3AmB,2022-09-02_21h49.37,jpn_C03,2022.1.2,MacIntel,55.55555556,,,,,,,,,,,,,CartoonStims/artist_punch_cowboy_r_no.jpg,,,,,,,,,,,,,,,,,,,,,,,,,,,,,,,プミ　ピク　シド　ムク,right,83.808,,,,,,0,2,2,18,1,,,,,,,,,,,,,,,,,,,,,,,,,ピク　プミ　シド　ムク,プミ　ピク　シド　ムク,1
,,,,,,,,,R_ZKQTsabpnyV3AmB,2022-09-02_21h49.37,jpn_C03,2022.1.2,MacIntel,55.55555556,,,,,,,,,,,,,CartoonStims/artist_punch_burglar_r.jpg,,,,,,,,,,,,,,,,,,,,,,,,,,,,,,,プミ　ピク　シド　ルピン,right,34.128,,,,,,0,3,3,33,1,,,,,,,,,,,,,,,,,,,,,,,,,プミ　シド　ルピン,プミ　シド　ルピン,0
,,,,,,,,,R_ZKQTsabpnyV3AmB,2022-09-02_21h49.37,jpn_C03,2022.1.2,MacIntel,55.55555556,,,,,,,,,,,,,CartoonStims/cowboy_kick_chef_r_no.jpg,,,,,,,,,,,,,,,,,,,,,,,,,,,,,,,セル　ピク　ムク　ホレト,right,48.524,,,,,,0,4,4,3,1,,,,,,,,,,,,,,,,,,,,,,,,,ピク　セル　ムク　ホレト,セル　ピク　ムク　ホレト,1
,,,,,,,,,R_ZKQTsabpnyV3AmB,2022-09-02_21h49.37,jpn_C03,2022.1.2,MacIntel,55.55555556,,,,,,,,,,,,,CartoonStims/chef_shoot_doctor_r_no.jpg,,,,,,,,,,,,,,,,,,,,,,,,,,,,,,,パツ　ピク　ホレト　ピポ,right,44.421,,,,,,0,5,5,14,1,,,,,,,,,,,,,,,,,,,,,,,,,ピク　パツ　ホレト　ピポ,パツ　ピク　ホレト　ピポ,1
,,,,,,,,,R_ZKQTsabpnyV3AmB,2022-09-02_21h49.37,jpn_C03,2022.1.2,MacIntel,55.55555556,,,,,,,,,,,,,CartoonStims/cowboy_shoot_boxer_r_no.jpg,,,,,,,,,,,,,,,,,,,,,,,,,,,,,,,パツ　ピク　ムク　ドキ,right,35.791,,,,,,0,6,6,15,1,,,,,,,,,,,,,,,,,,,,,,,,,ピク　パツ　ムク　ドキ,パツ　ピク　ムク　ドキ,1
,,,,,,,,,R_ZKQTsabpnyV3AmB,2022-09-02_21h49.37,jpn_C03,2022.1.2,MacIntel,55.55555556,,,,,,,,,,,,,CartoonStims/boxer_kick_cowboy_r.jpg,,,,,,,,,,,,,,,,,,,,,,,,,,,,,,,セル　ドキ　ムク,right,11.263,,,,,,0,7,7,26,1,,,,,,,,,,,,,,,,,,,,,,,,,セル　ドキ　ムク,セル　ドキ　ムク,0
,,,,,,,,,R_ZKQTsabpnyV3AmB,2022-09-02_21h49.37,jpn_C03,2022.1.2,MacIntel,55.55555556,,,,,,,,,,,,,CartoonStims/cowboy_shoot_doctor_r.jpg,,,,,,,,,,,,,,,,,,,,,,,,,,,,,,,パツ　ムク　ピポ,right,9.88,,,,,,0,8,8,32,1,,,,,,,,,,,,,,,,,,,,,,,,,パツ　ムク　ピポ,パツ　ムク　ピポ,0
,,,,,,,,,R_ZKQTsabpnyV3AmB,2022-09-02_21h49.37,jpn_C03,2022.1.2,MacIntel,55.55555556,,,,,,,,,,,,,CartoonStims/burglar_shoot_chef_r.jpg,,,,,,,,,,,,,,,,,,,,,,,,,,,,,,,パツ　ルピン　ホレト,right,15.828,,,,,,0,9,9,30,1,,,,,,,,,,,,,,,,,,,,,,,,,パツ　ルピン　ホレト,パツ　ルピン　ホレト,0
,,,,,,,,,R_ZKQTsabpnyV3AmB,2022-09-02_21h49.37,jpn_C03,2022.1.2,MacIntel,55.55555556,,,,,,,,,,,,,CartoonStims/cowboy_punch_artist_r_no.jpg,,,,,,,,,,,,,,,,,,,,,,,,,,,,,,,プミ　ピク　ムク　シド,right,55.825,,,,,,0,10,10,21,1,,,,,,,,,,,,,,,,,,,,,,,,,ピク　プミ　ムク　シド,プミ　ピク　ムク　シド,1
,,,,,,,,,R_ZKQTsabpnyV3AmB,2022-09-02_21h49.37,jpn_C03,2022.1.2,MacIntel,55.55555556,,,,,,,,,,,,,CartoonStims/doctor_punch_boxer_r.jpg,,,,,,,,,,,,,,,,,,,,,,,,,,,,,,,プミ　ピポ　ドキ,right,14.911,,,,,,0,11,11,34,1,,,,,,,,,,,,,,,,,,,,,,,,,プミ　ピポ　ドキ,プミ　ピポ　ドキ,0
,,,,,,,,,R_ZKQTsabpnyV3AmB,2022-09-02_21h49.37,jpn_C03,2022.1.2,MacIntel,55.55555556,,,,,,,,,,,,,CartoonStims/doctor_kick_cowboy_r_no.jpg,,,,,,,,,,,,,,,,,,,,,,,,,,,,,,,セル　ピク　ピポ　ムク,right,26.691,,,,,,0,12,12,4,1,,,,,,,,,,,,,,,,,,,,,,,,,ピク　セル　ピポ　ムク,セル　ピク　ピポ　ムク,1
,,,,,,,,,R_ZKQTsabpnyV3AmB,2022-09-02_21h49.37,jpn_C03,2022.1.2,MacIntel,55.55555556,,,,,,,,,,,,,CartoonStims/boxer_point_artist_r_no.jpg,,,,,,,,,,,,,,,,,,,,,,,,,,,,,,,トマ　ピク　ドキ　シド,right,21.543,,,,,,0,13,13,11,1,,,,,,,,,,,,,,,,,,,,,,,,,ピク　トマ　ドキ　シド,トマ　ピク　ドキ　シド,1
,,,,,,,,,R_ZKQTsabpnyV3AmB,2022-09-02_21h49.37,jpn_C03,2022.1.2,MacIntel,55.55555556,,,,,,,,,,,,,CartoonStims/doctor_shoot_artist_r_no.jpg,,,,,,,,,,,,,,,,,,,,,,,,,,,,,,,パツ　ピク　ピポ　シド,right,32.759,,,,,,0,14,14,16,1,,,,,,,,,,,,,,,,,,,,,,,,,ピク　パツ　ピポ　シド,パツ　ピク　ピポ　シド,1
,,,,,,,,,R_ZKQTsabpnyV3AmB,2022-09-02_21h49.37,jpn_C03,2022.1.2,MacIntel,55.55555556,,,,,,,,,,,,,CartoonStims/cowboy_point_doctor_r_no.jpg,,,,,,,,,,,,,,,,,,,,,,,,,,,,,,,トマ　ピク　ムク　ピポ,right,20.308,,,,,,0,15,15,9,1,,,,,,,,,,,,,,,,,,,,,,,,,ピク　トマ　ムク　ピポ,トマ　ピク　ムク　ピポ,1
,,,,,,,,,R_ZKQTsabpnyV3AmB,2022-09-02_21h49.37,jpn_C03,2022.1.2,MacIntel,55.55555556,,,,,,,,,,,,,CartoonStims/burglar_point_artist_r.jpg,,,,,,,,,,,,,,,,,,,,,,,,,,,,,,,トマ　ルピン　シド,right,13.525,,,,,,0,16,16,28,1,,,,,,,,,,,,,,,,,,,,,,,,,トマ　ルピン　シド,トマ　ルピン　シド,0
,,,,,,,,,R_ZKQTsabpnyV3AmB,2022-09-02_21h49.37,jpn_C03,2022.1.2,MacIntel,55.55555556,,,,,,,,,,,,,CartoonStims/burglar_punch_doctor_r_no.jpg,,,,,,,,,,,,,,,,,,,,,,,,,,,,,,,プミ　ピク　ルピン　ピポ,right,24.74,,,,,,0,17,17,19,1,,,,,,,,,,,,,,,,,,,,,,,,,ピク　プミ　ルピン　ピポ,プミ　ピク　ルピン　ピポ,1
,,,,,,,,,R_ZKQTsabpnyV3AmB,2022-09-02_21h49.37,jpn_C03,2022.1.2,MacIntel,55.55555556,,,,,,,,,,,,,CartoonStims/boxer_shoot_burglar_r_no.jpg,,,,,,,,,,,,,,,,,,,,,,,,,,,,,,,パツ　ピク　ドキ　ルピン,right,25.86,,,,,,0,18,18,17,1,,,,,,,,,,,,,,,,,,,,,,,,,ピク　パツ　ドキ　ルピン,パツ　ピク　ドキ　ルピン,1
,,,,,,,,,R_ZKQTsabpnyV3AmB,2022-09-02_21h49.37,jpn_C03,2022.1.2,MacIntel,55.55555556,,,,,,,,,,,,,CartoonStims/burglar_shoot_cowboy_r_no.jpg,,,,,,,,,,,,,,,,,,,,,,,,,,,,,,,パツ　ピク　ルピン　ムク,right,20.574,,,,,,0,19,19,13,1,,,,,,,,,,,,,,,,,,,,,,,,,ピク　パツ　ルピン　ムク,パツ　ピク　ルピン　ムク,1
,,,,,,,,,R_ZKQTsabpnyV3AmB,2022-09-02_21h49.37,jpn_C03,2022.1.2,MacIntel,55.55555556,,,,,,,,,,,,,CartoonStims/artist_kick_boxer_r_no.jpg,,,,,,,,,,,,,,,,,,,,,,,,,,,,,,,ピク　セル　シド　ドキ,right,54.005,,,,,,0,20,20,0,1,,,,,,,,,,,,,,,,,,,,,,,,,ピク　セル　シド　ドキ,セル　ピク　シド　ドキ,1
,,,,,,,,,R_ZKQTsabpnyV3AmB,2022-09-02_21h49.37,jpn_C03,2022.1.2,MacIntel,55.55555556,,,,,,,,,,,,,CartoonStims/artist_point_boxer_r.jpg,,,,,,,,,,,,,,,,,,,,,,,,,,,,,,,トマ　シド　ドキ,right,11.613,,,,,,0,21,21,27,1,,,,,,,,,,,,,,,,,,,,,,,,,トマ　シド　ドキ,トマ　シド　ドキ,0
,,,,,,,,,R_ZKQTsabpnyV3AmB,2022-09-02_21h49.37,jpn_C03,2022.1.2,MacIntel,55.55555556,,,,,,,,,,,,,CartoonStims/artist_shoot_chef_r_no.jpg,,,,,,,,,,,,,,,,,,,,,,,,,,,,,,,パツ　ピク　シド　ホレト,right,11.989,,,,,,0,22,22,12,1,,,,,,,,,,,,,,,,,,,,,,,,,ピク　パツ　シド　ホレト,パツ　ピク　シド　ホレト,1
,,,,,,,,,R_ZKQTsabpnyV3AmB,2022-09-02_21h49.37,jpn_C03,2022.1.2,MacIntel,55.55555556,,,,,,,,,,,,,CartoonStims/boxer_kick_doctor_r_no.jpg,,,,,,,,,,,,,,,,,,,,,,,,,,,,,,,セル　ピク　ドキ　ピポ,right,16.958,,,,,,0,23,23,5,1,,,,,,,,,,,,,,,,,,,,,,,,,ピク　セル　ドキ　ピポ,セル　ピク　ドキ　ピポ,1
,,,,,,,,,R_ZKQTsabpnyV3AmB,2022-09-02_21h49.37,jpn_C03,2022.1.2,MacIntel,55.55555556,,,,,,,,,,,,,CartoonStims/chef_punch_boxer_r_no.jpg,,,,,,,,,,,,,,,,,,,,,,,,,,,,,,,プミ　ピク　ホレト　ドキ,right,28.626,,,,,,0,24,24,20,1,,,,,,,,,,,,,,,,,,,,,,,,,ピク　プミ　ホレト　ドキ,プミ　ピク　ホレト　ドキ,1
,,,,,,,,,R_ZKQTsabpnyV3AmB,2022-09-02_21h49.37,jpn_C03,2022.1.2,MacIntel,55.55555556,,,,,,,,,,,,,CartoonStims/chef_point_burglar_r.jpg,,,,,,,,,,,,,,,,,,,,,,,,,,,,,,,トマ　ホレト　ルピン,right,8.195,,,,,,0,25,25,29,1,,,,,,,,,,,,,,,,,,,,,,,,,トマ　ホレト　ルピン,トマ　ホレト　ルピン,0
,,,,,,,,,R_ZKQTsabpnyV3AmB,2022-09-02_21h49.37,jpn_C03,2022.1.2,MacIntel,55.55555556,,,,,,,,,,,,,CartoonStims/artist_point_burglar_r_no.jpg,,,,,,,,,,,,,,,,,,,,,,,,,,,,,,,トマ　ピク　シド　ルピン,right,17.294,,,,,,0,26,26,6,1,,,,,,,,,,,,,,,,,,,,,,,,,ピク　トマ　シド　ルピン,トマ　ピク　シド　ルピン,1
,,,,,,,,,R_ZKQTsabpnyV3AmB,2022-09-02_21h49.37,jpn_C03,2022.1.2,MacIntel,55.55555556,,,,,,,,,,,,,CartoonStims/doctor_kick_chef_r.jpg,,,,,,,,,,,,,,,,,,,,,,,,,,,,,,,セル　ピポ　ホレト,right,6.83,,,,,,0,27,27,25,1,,,,,,,,,,,,,,,,,,,,,,,,,セル　ピポ　ホレト,セル　ピポ　ホレト,0
,,,,,,,,,R_ZKQTsabpnyV3AmB,2022-09-02_21h49.37,jpn_C03,2022.1.2,MacIntel,55.55555556,,,,,,,,,,,,,CartoonStims/chef_shoot_cowboy_r.jpg,,,,,,,,,,,,,,,,,,,,,,,,,,,,,,,パツ　ホレト　ムク,right,8.245,,,,,,0,28,28,31,1,,,,,,,,,,,,,,,,,,,,,,,,,パツ　ホレト　ムク,パツ　ホレト　ムク,0
,,,,,,,,,R_ZKQTsabpnyV3AmB,2022-09-02_21h49.37,jpn_C03,2022.1.2,MacIntel,55.55555556,,,,,,,,,,,,,CartoonStims/burglar_point_chef_r_no.jpg,,,,,,,,,,,,,,,,,,,,,,,,,,,,,,,トマ　ピク　ルピン　ホレト,right,13.322,,,,,,0,29,29,7,1,,,,,,,,,,,,,,,,,,,,,,,,,ピク　トマ　ルピン　ホレト,トマ　ピク　ルピン　ホレト,1
,,,,,,,,,R_ZKQTsabpnyV3AmB,2022-09-02_21h49.37,jpn_C03,2022.1.2,MacIntel,55.55555556,,,,,,,,,,,,,CartoonStims/chef_kick_burglar_r_no.jpg,,,,,,,,,,,,,,,,,,,,,,,,,,,,,,,セル　ピク　ホレト　ルピン,right,12.329,,,,,,0,30,30,2,1,,,,,,,,,,,,,,,,,,,,,,,,,ピク　セル　ホレト　ルピン,セル　ピク　ホレト　ルピン,1
,,,,,,,,,R_ZKQTsabpnyV3AmB,2022-09-02_21h49.37,jpn_C03,2022.1.2,MacIntel,55.55555556,,,,,,,,,,,,,CartoonStims/doctor_point_boxer_r_no.jpg,,,,,,,,,,,,,,,,,,,,,,,,,,,,,,,トマ　ピク　ピポ　ドキ,right,34.239,,,,,,0,31,31,10,1,,,,,,,,,,,,,,,,,,,,,,,,,ピク　トマ　ピポ　ドキ,トマ　ピク　ピポ　ドキ,1
,,,,,,,,,R_ZKQTsabpnyV3AmB,2022-09-02_21h49.37,jpn_C03,2022.1.2,MacIntel,55.55555556,,,,,,,,,,,,,CartoonStims/cowboy_kick_burglar_r.jpg,,,,,,,,,,,,,,,,,,,,,,,,,,,,,,,セル　ムク　ルピン,right,9.159,,,,,,0,32,32,24,1,,,,,,,,,,,,,,,,,,,,,,,,,セル　ムク　ルピン,セル　ムク　ルピン,0
,,,,,,,,,R_ZKQTsabpnyV3AmB,2022-09-02_21h49.37,jpn_C03,2022.1.2,MacIntel,55.55555556,,,,,,,,,,,,,CartoonStims/chef_point_cowboy_r_no.jpg,,,,,,,,,,,,,,,,,,,,,,,,,,,,,,,トマ　ピク　ホレト　ムク,right,12.44,,,,,,0,33,33,8,1,,,,,,,,,,,,,,,,,,,,,,,,,ピク　トマ　ホレト　ムク,トマ　ピク　ホレト　ムク,1
,,,,,,,,,R_ZKQTsabpnyV3AmB,2022-09-02_21h49.37,jpn_C03,2022.1.2,MacIntel,55.55555556,,,,,,,,,,,,,CartoonStims/boxer_punch_artist_r.jpg,,,,,,,,,,,,,,,,,,,,,,,,,,,,,,,プミ　ドキ　シド,right,11.794,,,,,,0,34,34,35,1,,,,,,,,,,,,,,,,,,,,,,,,,プミ　ドキ　シド,プミ　ドキ　シド,0
,,,,,,,,,R_ZKQTsabpnyV3AmB,2022-09-02_21h49.37,jpn_C03,2022.1.2,MacIntel,55.55555556,,,,,,,,,,,,,CartoonStims/boxer_punch_chef_r_no.jpg,,,,,,,,,,,,,,,,,,,,,,,,,,,,,,,プミ　ピク　ドキ　ホレト,right,13.473,,,,,,0,35,35,23,1,,,,,,,,,,,,,,,,,,,,,,,,,ピク　プミ　ドキ　ホレト,プミ　ピク　ドキ　ホレト,1
,,,,,,,,,R_ZKQTsabpnyV3AmB,2022-09-02_21h49.37,jpn_C03,2022.1.2,MacIntel,55.55555556,,,,,,,,,,,,,,,,,,,,,,,,,,,,,,,,,,,,,,,,,,,,,,,,,,,,,,,,,,,space,2.052,0,2,2,2,1,VNegCondition.xlsx,"ここではこの言語における否定の文を学習していただきます。引き続き注意して、 聞こえた音を復唱してください。

スペースキーを押してください。",1,VNegFCT.xlsx,ここからクイズが始まります。 スクリーンに表示されるテキストに合うイメージを選んでください。,NegTest.xlsx,1,最後にここまで学んだことをアウトプットしていただきます。 テキストボックスにあるイメージを描写するテキストを入力してください。 このタスクでは、 答え合わせは行いません。,0,これですべての実験が終わりました。 お疲れさまです。 この後はアンケートに答えていただきます。,,,,,,,,