key_resp_instr_a.keys,key_resp_instr_a.rt,key_resp_instr_b.keys,key_resp_instr_b.rt,dummy.thisRepN,dummy.thisTrialN,dummy.thisN,dummy.thisIndex,dummy.ran,participant,date,expName,psychopyVersion,OS,frameRate,key_resp_instr1.keys,key_resp_instr1.rt,key_resp.keys,key_resp.rt,exp_loop.thisRepN,exp_loop.thisTrialN,exp_loop.thisN,exp_loop.thisIndex,exp_loop.ran,Word,English,Flip,Path,Audio,key_resp_instr2.keys,key_resp_instr2.rt,key_resp_fct.keys,key_resp_fct.corr,key_resp_fct.rt,trials.thisRepN,trials.thisTrialN,trials.thisN,trials.thisIndex,trials.ran,fct_loop.thisRepN,fct_loop.thisTrialN,fct_loop.thisN,fct_loop.thisIndex,fct_loop.ran,left_img,word,right_img,correctans,correct_img,audio,incorrect_feedback,trials_2.thisRepN,trials_2.thisTrialN,trials_2.thisN,trials_2.thisIndex,trials_2.ran,key_resp_instr3.keys,key_resp_instr3.rt,textbox.text,key_resp_2.keys,key_resp_2.rt,fb_yn.thisRepN,fb_yn.thisTrialN,fb_yn.thisN,fb_yn.thisIndex,fb_yn.ran,gather_loop.thisRepN,gather_loop.thisTrialN,gather_loop.thisN,gather_loop.thisIndex,gather_loop.ran,Text,Wordbank,key_resp_instr4.keys,key_resp_instr4.rt,master_loop.thisRepN,master_loop.thisTrialN,master_loop.thisN,master_loop.thisIndex,master_loop.ran,exposure_file,instr_1,exp_reps,fct_file,instr_2,gather_file,gather_reps,instr_3,fReps,instr_4,trials_3.thisRepN,trials_3.thisTrialN,trials_3.thisN,trials_3.thisIndex,trials_3.ran,NegVSentence,VNegSentence,NegTF
space,2.885,space,0.312,0,0,0,0,1,R_2uWhJofEioeTrbT,2022-09-13_22h11.28.897,jpn_C03,2022.1.2,MacIntel,11.49425287,,,,,,,,,,,,,,,,,,,,,,,,,,,,,,,,,,,,,,,,,,,,,,,,,,,,,,,,,,,,,,,,,,,,,,,,,,,,,,,,,,,
,,,,,,,,,R_2uWhJofEioeTrbT,2022-09-13_22h11.28.897,jpn_C03,2022.1.2,MacIntel,11.49425287,space,1.577,space,9.945,0,0,0,1,1,ルピン,burglar,,CartoonStims/burglar_r.jpg,audio/lupin.mp3,,,,,,,,,,,,,,,,,,,,,,,,,,,,,,,,,,,,,,,,,,,,,,,,,,,,,,,,,,,,,,,,,,,,,
,,,,,,,,,R_2uWhJofEioeTrbT,2022-09-13_22h11.28.897,jpn_C03,2022.1.2,MacIntel,11.49425287,,,space,3.644,0,1,1,0,1,シド,artist,,CartoonStims/artist_r.jpg,audio/sido.mp3,,,,,,,,,,,,,,,,,,,,,,,,,,,,,,,,,,,,,,,,,,,,,,,,,,,,,,,,,,,,,,,,,,,,,
,,,,,,,,,R_2uWhJofEioeTrbT,2022-09-13_22h11.28.897,jpn_C03,2022.1.2,MacIntel,11.49425287,,,space,2.36,0,2,2,3,1,ムク,cowboy,,CartoonStims/cowboy_r.jpg,audio/muku.mp3,,,,,,,,,,,,,,,,,,,,,,,,,,,,,,,,,,,,,,,,,,,,,,,,,,,,,,,,,,,,,,,,,,,,,
,,,,,,,,,R_2uWhJofEioeTrbT,2022-09-13_22h11.28.897,jpn_C03,2022.1.2,MacIntel,11.49425287,,,space,1.163,0,3,3,2,1,ホレト,chef,,CartoonStims/chef_r.jpg,audio/horeto.mp3,,,,,,,,,,,,,,,,,,,,,,,,,,,,,,,,,,,,,,,,,,,,,,,,,,,,,,,,,,,,,,,,,,,,,
,,,,,,,,,R_2uWhJofEioeTrbT,2022-09-13_22h11.28.897,jpn_C03,2022.1.2,MacIntel,11.49425287,,,space,0.19,0,4,4,5,1,ドキ,boxer,,CartoonStims/boxer_r.jpg,audio/doki.mp3,,,,,,,,,,,,,,,,,,,,,,,,,,,,,,,,,,,,,,,,,,,,,,,,,,,,,,,,,,,,,,,,,,,,,
,,,,,,,,,R_2uWhJofEioeTrbT,2022-09-13_22h11.28.897,jpn_C03,2022.1.2,MacIntel,11.49425287,,,space,0.11,0,5,5,4,1,ピポ,doctor,,CartoonStims/doctor_r.jpg,audio/pipo.mp3,,,,,,,,,,,,,,,,,,,,,,,,,,,,,,,,,,,,,,,,,,,,,,,,,,,,,,,,,,,,,,,,,,,,,
,,,,,,,,,R_2uWhJofEioeTrbT,2022-09-13_22h11.28.897,jpn_C03,2022.1.2,MacIntel,11.49425287,,,space,0.1,1,0,6,0,1,シド,artist,,CartoonStims/artist_r.jpg,audio/sido.mp3,,,,,,,,,,,,,,,,,,,,,,,,,,,,,,,,,,,,,,,,,,,,,,,,,,,,,,,,,,,,,,,,,,,,,
,,,,,,,,,R_2uWhJofEioeTrbT,2022-09-13_22h11.28.897,jpn_C03,2022.1.2,MacIntel,11.49425287,,,space,0.083,1,1,7,4,1,ピポ,doctor,,CartoonStims/doctor_r.jpg,audio/pipo.mp3,,,,,,,,,,,,,,,,,,,,,,,,,,,,,,,,,,,,,,,,,,,,,,,,,,,,,,,,,,,,,,,,,,,,,
,,,,,,,,,R_2uWhJofEioeTrbT,2022-09-13_22h11.28.897,jpn_C03,2022.1.2,MacIntel,11.49425287,,,space,0.125,1,2,8,1,1,ルピン,burglar,,CartoonStims/burglar_r.jpg,audio/lupin.mp3,,,,,,,,,,,,,,,,,,,,,,,,,,,,,,,,,,,,,,,,,,,,,,,,,,,,,,,,,,,,,,,,,,,,,
,,,,,,,,,R_2uWhJofEioeTrbT,2022-09-13_22h11.28.897,jpn_C03,2022.1.2,MacIntel,11.49425287,,,space,0.677,1,3,9,5,1,ドキ,boxer,,CartoonStims/boxer_r.jpg,audio/doki.mp3,,,,,,,,,,,,,,,,,,,,,,,,,,,,,,,,,,,,,,,,,,,,,,,,,,,,,,,,,,,,,,,,,,,,,
,,,,,,,,,R_2uWhJofEioeTrbT,2022-09-13_22h11.28.897,jpn_C03,2022.1.2,MacIntel,11.49425287,,,space,548.952,1,4,10,2,1,ホレト,chef,,CartoonStims/chef_r.jpg,audio/horeto.mp3,,,,,,,,,,,,,,,,,,,,,,,,,,,,,,,,,,,,,,,,,,,,,,,,,,,,,,,,,,,,,,,,,,,,,
,,,,,,,,,R_2uWhJofEioeTrbT,2022-09-13_22h11.28.897,jpn_C03,2022.1.2,MacIntel,11.49425287,,,space,0.733,1,5,11,3,1,ムク,cowboy,,CartoonStims/cowboy_r.jpg,audio/muku.mp3,,,,,,,,,,,,,,,,,,,,,,,,,,,,,,,,,,,,,,,,,,,,,,,,,,,,,,,,,,,,,,,,,,,,,
,,,,,,,,,R_2uWhJofEioeTrbT,2022-09-13_22h11.28.897,jpn_C03,2022.1.2,MacIntel,11.49425287,,,space,1.786,2,0,12,0,1,シド,artist,,CartoonStims/artist_r.jpg,audio/sido.mp3,,,,,,,,,,,,,,,,,,,,,,,,,,,,,,,,,,,,,,,,,,,,,,,,,,,,,,,,,,,,,,,,,,,,,
,,,,,,,,,R_2uWhJofEioeTrbT,2022-09-13_22h11.28.897,jpn_C03,2022.1.2,MacIntel,11.49425287,,,space,5.212,2,1,13,5,1,ドキ,boxer,,CartoonStims/boxer_r.jpg,audio/doki.mp3,,,,,,,,,,,,,,,,,,,,,,,,,,,,,,,,,,,,,,,,,,,,,,,,,,,,,,,,,,,,,,,,,,,,,
,,,,,,,,,R_2uWhJofEioeTrbT,2022-09-13_22h11.28.897,jpn_C03,2022.1.2,MacIntel,11.49425287,,,space,1.665,2,2,14,3,1,ムク,cowboy,,CartoonStims/cowboy_r.jpg,audio/muku.mp3,,,,,,,,,,,,,,,,,,,,,,,,,,,,,,,,,,,,,,,,,,,,,,,,,,,,,,,,,,,,,,,,,,,,,
,,,,,,,,,R_2uWhJofEioeTrbT,2022-09-13_22h11.28.897,jpn_C03,2022.1.2,MacIntel,11.49425287,,,space,1.487,2,3,15,4,1,ピポ,doctor,,CartoonStims/doctor_r.jpg,audio/pipo.mp3,,,,,,,,,,,,,,,,,,,,,,,,,,,,,,,,,,,,,,,,,,,,,,,,,,,,,,,,,,,,,,,,,,,,,
,,,,,,,,,R_2uWhJofEioeTrbT,2022-09-13_22h11.28.897,jpn_C03,2022.1.2,MacIntel,11.49425287,,,space,0.207,2,4,16,1,1,ルピン,burglar,,CartoonStims/burglar_r.jpg,audio/lupin.mp3,,,,,,,,,,,,,,,,,,,,,,,,,,,,,,,,,,,,,,,,,,,,,,,,,,,,,,,,,,,,,,,,,,,,,
,,,,,,,,,R_2uWhJofEioeTrbT,2022-09-13_22h11.28.897,jpn_C03,2022.1.2,MacIntel,11.49425287,,,space,1.515,2,5,17,2,1,ホレト,chef,,CartoonStims/chef_r.jpg,audio/horeto.mp3,,,,,,,,,,,,,,,,,,,,,,,,,,,,,,,,,,,,,,,,,,,,,,,,,,,,,,,,,,,,,,,,,,,,,
,,,,,,,,,R_2uWhJofEioeTrbT,2022-09-13_22h11.28.897,jpn_C03,2022.1.2,MacIntel,11.49425287,,,,,,,,,,,,,,,space,1.809,left,1,0.635,0,0,0,0,1,,,,,,,,,,,,,,,,,,,,,,,,,,,,,,,,,,,,,,,,,,,,,,,,,,,,,,,,,,,
,,,,,,,,,R_2uWhJofEioeTrbT,2022-09-13_22h11.28.897,jpn_C03,2022.1.2,MacIntel,11.49425287,,,,,,,,,,,,,,,,,,,,,,,,,0,0,0,1,1,CartoonStims/burglar_r.jpg,ルピン,CartoonStims/chef_r.jpg,left,CartoonStims/burglar_r.jpg,audio/lupin.mp3,残念！ こちらが正しい画像です。,,,,,,,,,,,,,,,,,,,,,,,,,,,,,,,,,,,,,,,,,,,,,,,
,,,,,,,,,R_2uWhJofEioeTrbT,2022-09-13_22h11.28.897,jpn_C03,2022.1.2,MacIntel,11.49425287,,,,,,,,,,,,,,,,,right,1,0.76,,,,,,,,,,,,,,,,,,0,0,0,0,1,,,,,,,,,,,,,,,,,,,,,,,,,,,,,,,,,,,,,,,,,,
,,,,,,,,,R_2uWhJofEioeTrbT,2022-09-13_22h11.28.897,jpn_C03,2022.1.2,MacIntel,11.49425287,,,,,,,,,,,,,,,,,,,,,,,,,0,1,1,10,1,CartoonStims/artist_r.jpg,ピポ,CartoonStims/doctor_r.jpg,right,CartoonStims/doctor_r.jpg,audio/pipo.mp3,残念！ こちらが正しい画像です。,,,,,,,,,,,,,,,,,,,,,,,,,,,,,,,,,,,,,,,,,,,,,,,
,,,,,,,,,R_2uWhJofEioeTrbT,2022-09-13_22h11.28.897,jpn_C03,2022.1.2,MacIntel,11.49425287,,,,,,,,,,,,,,,,,right,1,0.169,,,,,,,,,,,,,,,,,,0,0,0,0,1,,,,,,,,,,,,,,,,,,,,,,,,,,,,,,,,,,,,,,,,,,
,,,,,,,,,R_2uWhJofEioeTrbT,2022-09-13_22h11.28.897,jpn_C03,2022.1.2,MacIntel,11.49425287,,,,,,,,,,,,,,,,,,,,,,,,,0,2,2,7,1,CartoonStims/cowboy_r.jpg,ルピン,CartoonStims/burglar_r.jpg,right,CartoonStims/burglar_r.jpg,audio/lupin.mp3,残念！ こちらが正しい画像です。,,,,,,,,,,,,,,,,,,,,,,,,,,,,,,,,,,,,,,,,,,,,,,,
,,,,,,,,,R_2uWhJofEioeTrbT,2022-09-13_22h11.28.897,jpn_C03,2022.1.2,MacIntel,11.49425287,,,,,,,,,,,,,,,,,right,1,0.305,,,,,,,,,,,,,,,,,,0,0,0,0,1,,,,,,,,,,,,,,,,,,,,,,,,,,,,,,,,,,,,,,,,,,
,,,,,,,,,R_2uWhJofEioeTrbT,2022-09-13_22h11.28.897,jpn_C03,2022.1.2,MacIntel,11.49425287,,,,,,,,,,,,,,,,,,,,,,,,,0,3,3,9,1,CartoonStims/boxer_r.jpg,ムク,CartoonStims/cowboy_r.jpg,right,CartoonStims/cowboy_r.jpg,audio/muku.mp3,残念！ こちらが正しい画像です。,,,,,,,,,,,,,,,,,,,,,,,,,,,,,,,,,,,,,,,,,,,,,,,
,,,,,,,,,R_2uWhJofEioeTrbT,2022-09-13_22h11.28.897,jpn_C03,2022.1.2,MacIntel,11.49425287,,,,,,,,,,,,,,,,,left,1,0.422,0,0,0,0,1,,,,,,,,,,,,,,,,,,,,,,,,,,,,,,,,,,,,,,,,,,,,,,,,,,,,,,,,,,,
,,,,,,,,,R_2uWhJofEioeTrbT,2022-09-13_22h11.28.897,jpn_C03,2022.1.2,MacIntel,11.49425287,,,,,,,,,,,,,,,,,,,,,,,,,0,4,4,4,1,CartoonStims/doctor_r.jpg,ピポ,CartoonStims/boxer_r.jpg,left,CartoonStims/doctor_r.jpg,audio/pipo.mp3,残念！ こちらが正しい画像です。,,,,,,,,,,,,,,,,,,,,,,,,,,,,,,,,,,,,,,,,,,,,,,,
,,,,,,,,,R_2uWhJofEioeTrbT,2022-09-13_22h11.28.897,jpn_C03,2022.1.2,MacIntel,11.49425287,,,,,,,,,,,,,,,,,left,1,0.864,0,0,0,0,1,,,,,,,,,,,,,,,,,,,,,,,,,,,,,,,,,,,,,,,,,,,,,,,,,,,,,,,,,,,
,,,,,,,,,R_2uWhJofEioeTrbT,2022-09-13_22h11.28.897,jpn_C03,2022.1.2,MacIntel,11.49425287,,,,,,,,,,,,,,,,,,,,,,,,,0,5,5,3,1,CartoonStims/cowboy_r.jpg,ムク,CartoonStims/doctor_r.jpg,left,CartoonStims/cowboy_r.jpg,audio/muku.mp3,残念！ こちらが正しい画像です。,,,,,,,,,,,,,,,,,,,,,,,,,,,,,,,,,,,,,,,,,,,,,,,
,,,,,,,,,R_2uWhJofEioeTrbT,2022-09-13_22h11.28.897,jpn_C03,2022.1.2,MacIntel,11.49425287,,,,,,,,,,,,,,,,,left,1,0.726,0,0,0,0,1,,,,,,,,,,,,,,,,,,,,,,,,,,,,,,,,,,,,,,,,,,,,,,,,,,,,,,,,,,,
,,,,,,,,,R_2uWhJofEioeTrbT,2022-09-13_22h11.28.897,jpn_C03,2022.1.2,MacIntel,11.49425287,,,,,,,,,,,,,,,,,,,,,,,,,0,6,6,5,1,CartoonStims/boxer_r.jpg,ドキ,CartoonStims/artist_r.jpg,left,CartoonStims/boxer_r.jpg,audio/doki.mp3,残念！ こちらが正しい画像です。,,,,,,,,,,,,,,,,,,,,,,,,,,,,,,,,,,,,,,,,,,,,,,,
,,,,,,,,,R_2uWhJofEioeTrbT,2022-09-13_22h11.28.897,jpn_C03,2022.1.2,MacIntel,11.49425287,,,,,,,,,,,,,,,,,right,1,1.767,,,,,,,,,,,,,,,,,,0,0,0,0,1,,,,,,,,,,,,,,,,,,,,,,,,,,,,,,,,,,,,,,,,,,
,,,,,,,,,R_2uWhJofEioeTrbT,2022-09-13_22h11.28.897,jpn_C03,2022.1.2,MacIntel,11.49425287,,,,,,,,,,,,,,,,,,,,,,,,,0,7,7,8,1,CartoonStims/doctor_r.jpg,ホレト,CartoonStims/chef_r.jpg,right,CartoonStims/chef_r.jpg,audio/horeto.mp3,残念！ こちらが正しい画像です。,,,,,,,,,,,,,,,,,,,,,,,,,,,,,,,,,,,,,,,,,,,,,,,
,,,,,,,,,R_2uWhJofEioeTrbT,2022-09-13_22h11.28.897,jpn_C03,2022.1.2,MacIntel,11.49425287,,,,,,,,,,,,,,,,,left,1,0.476,0,0,0,0,1,,,,,,,,,,,,,,,,,,,,,,,,,,,,,,,,,,,,,,,,,,,,,,,,,,,,,,,,,,,
,,,,,,,,,R_2uWhJofEioeTrbT,2022-09-13_22h11.28.897,jpn_C03,2022.1.2,MacIntel,11.49425287,,,,,,,,,,,,,,,,,,,,,,,,,0,8,8,0,1,CartoonStims/artist_r.jpg,シド,CartoonStims/burglar_r.jpg,left,CartoonStims/artist_r.jpg,audio/sido.mp3,残念！ こちらが正しい画像です。,,,,,,,,,,,,,,,,,,,,,,,,,,,,,,,,,,,,,,,,,,,,,,,
,,,,,,,,,R_2uWhJofEioeTrbT,2022-09-13_22h11.28.897,jpn_C03,2022.1.2,MacIntel,11.49425287,,,,,,,,,,,,,,,,,right,1,1.697,,,,,,,,,,,,,,,,,,0,0,0,0,1,,,,,,,,,,,,,,,,,,,,,,,,,,,,,,,,,,,,,,,,,,
,,,,,,,,,R_2uWhJofEioeTrbT,2022-09-13_22h11.28.897,jpn_C03,2022.1.2,MacIntel,11.49425287,,,,,,,,,,,,,,,,,,,,,,,,,0,9,9,6,1,CartoonStims/chef_r.jpg,シド,CartoonStims/artist_r.jpg,right,CartoonStims/artist_r.jpg,audio/sido.mp3,残念！ こちらが正しい画像です。,,,,,,,,,,,,,,,,,,,,,,,,,,,,,,,,,,,,,,,,,,,,,,,
,,,,,,,,,R_2uWhJofEioeTrbT,2022-09-13_22h11.28.897,jpn_C03,2022.1.2,MacIntel,11.49425287,,,,,,,,,,,,,,,,,left,1,0.539,0,0,0,0,1,,,,,,,,,,,,,,,,,,,,,,,,,,,,,,,,,,,,,,,,,,,,,,,,,,,,,,,,,,,
,,,,,,,,,R_2uWhJofEioeTrbT,2022-09-13_22h11.28.897,jpn_C03,2022.1.2,MacIntel,11.49425287,,,,,,,,,,,,,,,,,,,,,,,,,0,10,10,2,1,CartoonStims/chef_r.jpg,ホレト,CartoonStims/cowboy_r.jpg,left,CartoonStims/chef_r.jpg,audio/horeto.mp3,残念！ こちらが正しい画像です。,,,,,,,,,,,,,,,,,,,,,,,,,,,,,,,,,,,,,,,,,,,,,,,
,,,,,,,,,R_2uWhJofEioeTrbT,2022-09-13_22h11.28.897,jpn_C03,2022.1.2,MacIntel,11.49425287,,,,,,,,,,,,,,,,,right,1,0.336,,,,,,,,,,,,,,,,,,0,0,0,0,1,,,,,,,,,,,,,,,,,,,,,,,,,,,,,,,,,,,,,,,,,,
,,,,,,,,,R_2uWhJofEioeTrbT,2022-09-13_22h11.28.897,jpn_C03,2022.1.2,MacIntel,11.49425287,,,,,,,,,,,,,,,,,,,,,,,,,0,11,11,11,1,CartoonStims/burglar_r.jpg,ドキ,CartoonStims/boxer_r.jpg,right,CartoonStims/boxer_r.jpg,audio/doki.mp3,残念！ こちらが正しい画像です。,,,,,,,,,,,,,,,,,,,,,,,,,,,,,,,,,,,,,,,,,,,,,,,
,,,,,,,,,R_2uWhJofEioeTrbT,2022-09-13_22h11.28.897,jpn_C03,2022.1.2,MacIntel,11.49425287,,,,,,,,,,,,,,,,,,,,,,,,,,,,,,,,,,,,,,,,,,space,0.318,シド,right,5.039,0,0,0,0,1,,,,,,,,,,,,,,,,,,,,,,,,,,,,,,,,
,,,,,,,,,R_2uWhJofEioeTrbT,2022-09-13_22h11.28.897,jpn_C03,2022.1.2,MacIntel,11.49425287,,,,,,,,,,,,,CartoonStims/artist_r.jpg,audio/sido.mp3,,,,,,,,,,,,,,,,,,,,,,,,,,,,,,,,,,,,,,0,0,0,0,1,シド,,,,,,,,,,,,,,,,,,,,,,,,,,
,,,,,,,,,R_2uWhJofEioeTrbT,2022-09-13_22h11.28.897,jpn_C03,2022.1.2,MacIntel,11.49425287,,,,,,,,,,,,,,,,,,,,,,,,,,,,,,,,,,,,,,,,,,,,ムク,right,2.346,0,0,0,0,1,,,,,,,,,,,,,,,,,,,,,,,,,,,,,,,,
,,,,,,,,,R_2uWhJofEioeTrbT,2022-09-13_22h11.28.897,jpn_C03,2022.1.2,MacIntel,11.49425287,,,,,,,,,,,,,CartoonStims/cowboy_r.jpg,audio/muku.mp3,,,,,,,,,,,,,,,,,,,,,,,,,,,,,,,,,,,,,,0,1,1,3,1,ムク,,,,,,,,,,,,,,,,,,,,,,,,,,
,,,,,,,,,R_2uWhJofEioeTrbT,2022-09-13_22h11.28.897,jpn_C03,2022.1.2,MacIntel,11.49425287,,,,,,,,,,,,,,,,,,,,,,,,,,,,,,,,,,,,,,,,,,,,ルピン,right,3.8,0,0,0,0,1,,,,,,,,,,,,,,,,,,,,,,,,,,,,,,,,
,,,,,,,,,R_2uWhJofEioeTrbT,2022-09-13_22h11.28.897,jpn_C03,2022.1.2,MacIntel,11.49425287,,,,,,,,,,,,,CartoonStims/burglar_r.jpg,audio/lupin.mp3,,,,,,,,,,,,,,,,,,,,,,,,,,,,,,,,,,,,,,0,2,2,1,1,ルピン,,,,,,,,,,,,,,,,,,,,,,,,,,
,,,,,,,,,R_2uWhJofEioeTrbT,2022-09-13_22h11.28.897,jpn_C03,2022.1.2,MacIntel,11.49425287,,,,,,,,,,,,,,,,,,,,,,,,,,,,,,,,,,,,,,,,,,,,ホレト,right,3.213,0,0,0,0,1,,,,,,,,,,,,,,,,,,,,,,,,,,,,,,,,
,,,,,,,,,R_2uWhJofEioeTrbT,2022-09-13_22h11.28.897,jpn_C03,2022.1.2,MacIntel,11.49425287,,,,,,,,,,,,,CartoonStims/chef_r.jpg,audio/horeto.mp3,,,,,,,,,,,,,,,,,,,,,,,,,,,,,,,,,,,,,,0,3,3,2,1,ホレト,,,,,,,,,,,,,,,,,,,,,,,,,,
,,,,,,,,,R_2uWhJofEioeTrbT,2022-09-13_22h11.28.897,jpn_C03,2022.1.2,MacIntel,11.49425287,,,,,,,,,,,,,,,,,,,,,,,,,,,,,,,,,,,,,,,,,,,,ドキ,right,2.98,0,0,0,0,1,,,,,,,,,,,,,,,,,,,,,,,,,,,,,,,,
,,,,,,,,,R_2uWhJofEioeTrbT,2022-09-13_22h11.28.897,jpn_C03,2022.1.2,MacIntel,11.49425287,,,,,,,,,,,,,CartoonStims/boxer_r.jpg,audio/doki.mp3,,,,,,,,,,,,,,,,,,,,,,,,,,,,,,,,,,,,,,0,4,4,5,1,ドキ,,,,,,,,,,,,,,,,,,,,,,,,,,
,,,,,,,,,R_2uWhJofEioeTrbT,2022-09-13_22h11.28.897,jpn_C03,2022.1.2,MacIntel,11.49425287,,,,,,,,,,,,,,,,,,,,,,,,,,,,,,,,,,,,,,,,,,,,ピポ,right,4.715,0,0,0,0,1,,,,,,,,,,,,,,,,,,,,,,,,,,,,,,,,
,,,,,,,,,R_2uWhJofEioeTrbT,2022-09-13_22h11.28.897,jpn_C03,2022.1.2,MacIntel,11.49425287,,,,,,,,,,,,,CartoonStims/doctor_r.jpg,audio/pipo.mp3,,,,,,,,,,,,,,,,,,,,,,,,,,,,,,,,,,,,,,0,5,5,4,1,ピポ,,,,,,,,,,,,,,,,,,,,,,,,,,
,,,,,,,,,R_2uWhJofEioeTrbT,2022-09-13_22h11.28.897,jpn_C03,2022.1.2,MacIntel,11.49425287,,,,,,,,,,,,,,,,,,,,,,,,,,,,,,,,,,,,,,,,,,,,ドキ,right,2.653,0,0,0,0,1,,,,,,,,,,,,,,,,,,,,,,,,,,,,,,,,
,,,,,,,,,R_2uWhJofEioeTrbT,2022-09-13_22h11.28.897,jpn_C03,2022.1.2,MacIntel,11.49425287,,,,,,,,,,,,,CartoonStims/boxer_r.jpg,audio/doki.mp3,,,,,,,,,,,,,,,,,,,,,,,,,,,,,,,,,,,,,,1,0,6,5,1,ドキ,,,,,,,,,,,,,,,,,,,,,,,,,,
,,,,,,,,,R_2uWhJofEioeTrbT,2022-09-13_22h11.28.897,jpn_C03,2022.1.2,MacIntel,11.49425287,,,,,,,,,,,,,,,,,,,,,,,,,,,,,,,,,,,,,,,,,,,,ルピン,right,3.655,0,0,0,0,1,,,,,,,,,,,,,,,,,,,,,,,,,,,,,,,,
,,,,,,,,,R_2uWhJofEioeTrbT,2022-09-13_22h11.28.897,jpn_C03,2022.1.2,MacIntel,11.49425287,,,,,,,,,,,,,CartoonStims/burglar_r.jpg,audio/lupin.mp3,,,,,,,,,,,,,,,,,,,,,,,,,,,,,,,,,,,,,,1,1,7,1,1,ルピン,,,,,,,,,,,,,,,,,,,,,,,,,,
,,,,,,,,,R_2uWhJofEioeTrbT,2022-09-13_22h11.28.897,jpn_C03,2022.1.2,MacIntel,11.49425287,,,,,,,,,,,,,,,,,,,,,,,,,,,,,,,,,,,,,,,,,,,,ムク,right,2.224,0,0,0,0,1,,,,,,,,,,,,,,,,,,,,,,,,,,,,,,,,
,,,,,,,,,R_2uWhJofEioeTrbT,2022-09-13_22h11.28.897,jpn_C03,2022.1.2,MacIntel,11.49425287,,,,,,,,,,,,,CartoonStims/cowboy_r.jpg,audio/muku.mp3,,,,,,,,,,,,,,,,,,,,,,,,,,,,,,,,,,,,,,1,2,8,3,1,ムク,,,,,,,,,,,,,,,,,,,,,,,,,,
,,,,,,,,,R_2uWhJofEioeTrbT,2022-09-13_22h11.28.897,jpn_C03,2022.1.2,MacIntel,11.49425287,,,,,,,,,,,,,,,,,,,,,,,,,,,,,,,,,,,,,,,,,,,,ピポ,right,2.525,0,0,0,0,1,,,,,,,,,,,,,,,,,,,,,,,,,,,,,,,,
,,,,,,,,,R_2uWhJofEioeTrbT,2022-09-13_22h11.28.897,jpn_C03,2022.1.2,MacIntel,11.49425287,,,,,,,,,,,,,CartoonStims/doctor_r.jpg,audio/pipo.mp3,,,,,,,,,,,,,,,,,,,,,,,,,,,,,,,,,,,,,,1,3,9,4,1,ピポ,,,,,,,,,,,,,,,,,,,,,,,,,,
,,,,,,,,,R_2uWhJofEioeTrbT,2022-09-13_22h11.28.897,jpn_C03,2022.1.2,MacIntel,11.49425287,,,,,,,,,,,,,,,,,,,,,,,,,,,,,,,,,,,,,,,,,,,,ホレト,right,4.311,0,0,0,0,1,,,,,,,,,,,,,,,,,,,,,,,,,,,,,,,,
,,,,,,,,,R_2uWhJofEioeTrbT,2022-09-13_22h11.28.897,jpn_C03,2022.1.2,MacIntel,11.49425287,,,,,,,,,,,,,CartoonStims/chef_r.jpg,audio/horeto.mp3,,,,,,,,,,,,,,,,,,,,,,,,,,,,,,,,,,,,,,1,4,10,2,1,ホレト,,,,,,,,,,,,,,,,,,,,,,,,,,
,,,,,,,,,R_2uWhJofEioeTrbT,2022-09-13_22h11.28.897,jpn_C03,2022.1.2,MacIntel,11.49425287,,,,,,,,,,,,,,,,,,,,,,,,,,,,,,,,,,,,,,,,,,,,シド,right,2.884,0,0,0,0,1,,,,,,,,,,,,,,,,,,,,,,,,,,,,,,,,
,,,,,,,,,R_2uWhJofEioeTrbT,2022-09-13_22h11.28.897,jpn_C03,2022.1.2,MacIntel,11.49425287,,,,,,,,,,,,,CartoonStims/artist_r.jpg,audio/sido.mp3,,,,,,,,,,,,,,,,,,,,,,,,,,,,,,,,,,,,,,1,5,11,0,1,シド,,,,,,,,,,,,,,,,,,,,,,,,,,
,,,,,,,,,R_2uWhJofEioeTrbT,2022-09-13_22h11.28.897,jpn_C03,2022.1.2,MacIntel,11.49425287,,,,,,,,,,,,,,,,,,,,,,,,,,,,,,,,,,,,,,,,,,,,,,,,,,,,,,,,,,,space,0.829,0,0,0,0,1,NounExposure.xlsx,"最初のトライアルでは、 画像が表示され、 その画像の下に単語が出てきます。 またこの単語の音も聞くことができます。 この音を大きな声で復唱してください。 そしてこの画像がどのような単語を示しているのか, 考えてみてください。 その後、 続きのボタンを押すと次の単語の学習が始まります。

スペースキーを押して、学習を始めましょう。",3,NounFCT.xlsx,ここから語彙のクイズが始まります。スクリーンに表示される単語に合う画像をキーボードの右と左の矢印キーを使って選択してください。,NounTest.xlsx,2,次に、これまで学習してきたことをアウトプットしていただきます。 表示される画像を描写していると思う単語を、テキストボックスにタイプしてください。,1,"ここまでが最初のトライアルです。ここで休憩をとっても構いません。

休憩が済みましたら、スペースキーを押して続きを始めましょう。",,,,,,,,
,,,,,,,,,R_2uWhJofEioeTrbT,2022-09-13_22h11.28.897,jpn_C03,2022.1.2,MacIntel,11.49425287,space,0.516,space,3.462,0,0,0,12,1,トマ　シド　ホレト,,,CartoonStims/artist_point_chef_r.jpg,audio/tomasidohoreto.mp3,,,,,,,,,,,,,,,,,,,,,,,,,,,,,,,,,,,,,,,,,,,,,,,,,,,,,,,,,,,,,,,,,,,,,
,,,,,,,,,R_2uWhJofEioeTrbT,2022-09-13_22h11.28.897,jpn_C03,2022.1.2,MacIntel,11.49425287,,,space,2.601,0,1,1,4,1,セル　ホレト　ムク,,,CartoonStims/chef_kick_cowboy_r.jpg,audio/seruhoretomuku.mp3,,,,,,,,,,,,,,,,,,,,,,,,,,,,,,,,,,,,,,,,,,,,,,,,,,,,,,,,,,,,,,,,,,,,,
,,,,,,,,,R_2uWhJofEioeTrbT,2022-09-13_22h11.28.897,jpn_C03,2022.1.2,MacIntel,11.49425287,,,space,2.563,0,2,2,8,1,セル　ピポ　ドキ,,,CartoonStims/doctor_kick_boxer_r.jpg,audio/serupipodoki.mp3,,,,,,,,,,,,,,,,,,,,,,,,,,,,,,,,,,,,,,,,,,,,,,,,,,,,,,,,,,,,,,,,,,,,,
,,,,,,,,,R_2uWhJofEioeTrbT,2022-09-13_22h11.28.897,jpn_C03,2022.1.2,MacIntel,11.49425287,,,space,3.268,0,3,3,0,1,セル　シド　ルピン,,,CartoonStims/artist_kick_burglar_r.jpg,audio/serusidolupin.mp3,,,,,,,,,,,,,,,,,,,,,,,,,,,,,,,,,,,,,,,,,,,,,,,,,,,,,,,,,,,,,,,,,,,,,
,,,,,,,,,R_2uWhJofEioeTrbT,2022-09-13_22h11.28.897,jpn_C03,2022.1.2,MacIntel,11.49425287,,,space,3.684,0,4,4,7,1,セル　ムク　ドキ,,,CartoonStims/cowboy_kick_boxer_r.jpg,audio/serumukudoki.mp3,,,,,,,,,,,,,,,,,,,,,,,,,,,,,,,,,,,,,,,,,,,,,,,,,,,,,,,,,,,,,,,,,,,,,
,,,,,,,,,R_2uWhJofEioeTrbT,2022-09-13_22h11.28.897,jpn_C03,2022.1.2,MacIntel,11.49425287,,,space,2.062,0,5,5,31,1,パツ　ムク　ルピン,,,CartoonStims/cowboy_shoot_burglar_r.jpg,audio/patsumukulupin.mp3,,,,,,,,,,,,,,,,,,,,,,,,,,,,,,,,,,,,,,,,,,,,,,,,,,,,,,,,,,,,,,,,,,,,,
,,,,,,,,,R_2uWhJofEioeTrbT,2022-09-13_22h11.28.897,jpn_C03,2022.1.2,MacIntel,11.49425287,,,space,2.148,0,6,6,25,1,パツ　シド　ピポ,,,CartoonStims/artist_shoot_doctor_r.jpg,audio/patsusidopipo.mp3,,,,,,,,,,,,,,,,,,,,,,,,,,,,,,,,,,,,,,,,,,,,,,,,,,,,,,,,,,,,,,,,,,,,,
,,,,,,,,,R_2uWhJofEioeTrbT,2022-09-13_22h11.28.897,jpn_C03,2022.1.2,MacIntel,11.49425287,,,space,2.308,0,7,7,40,1,プミ　ホレト　シド,,,CartoonStims/chef_punch_artist_r.jpg,audio/pumihoretosido.mp3,,,,,,,,,,,,,,,,,,,,,,,,,,,,,,,,,,,,,,,,,,,,,,,,,,,,,,,,,,,,,,,,,,,,,
,,,,,,,,,R_2uWhJofEioeTrbT,2022-09-13_22h11.28.897,jpn_C03,2022.1.2,MacIntel,11.49425287,,,space,2.397,0,8,8,36,1,プミ　シド　ピポ,,,CartoonStims/artist_punch_doctor_r.jpg,audio/pumisidopipo.mp3,,,,,,,,,,,,,,,,,,,,,,,,,,,,,,,,,,,,,,,,,,,,,,,,,,,,,,,,,,,,,,,,,,,,,
,,,,,,,,,R_2uWhJofEioeTrbT,2022-09-13_22h11.28.897,jpn_C03,2022.1.2,MacIntel,11.49425287,,,space,2.043,0,9,9,30,1,パツ　ムク　シド,,,CartoonStims/cowboy_shoot_artist_r.jpg,audio/patsumukusido.mp3,,,,,,,,,,,,,,,,,,,,,,,,,,,,,,,,,,,,,,,,,,,,,,,,,,,,,,,,,,,,,,,,,,,,,
,,,,,,,,,R_2uWhJofEioeTrbT,2022-09-13_22h11.28.897,jpn_C03,2022.1.2,MacIntel,11.49425287,,,space,3.126,0,10,10,26,1,パツ　ルピン　ピポ,,,CartoonStims/burglar_shoot_doctor_r.jpg,audio/patsulupinpipo.mp3,,,,,,,,,,,,,,,,,,,,,,,,,,,,,,,,,,,,,,,,,,,,,,,,,,,,,,,,,,,,,,,,,,,,,
,,,,,,,,,R_2uWhJofEioeTrbT,2022-09-13_22h11.28.897,jpn_C03,2022.1.2,MacIntel,11.49425287,,,space,2.017,0,11,11,39,1,プミ　ルピン　シド,,,CartoonStims/burglar_punch_artist_r.jpg,audio/pumilupinsido.mp3,,,,,,,,,,,,,,,,,,,,,,,,,,,,,,,,,,,,,,,,,,,,,,,,,,,,,,,,,,,,,,,,,,,,,
,,,,,,,,,R_2uWhJofEioeTrbT,2022-09-13_22h11.28.897,jpn_C03,2022.1.2,MacIntel,11.49425287,,,space,1.7,0,12,12,22,1,トマ　ドキ　ルピン,,,CartoonStims/boxer_point_burglar_r.jpg,audio/tomadokilupin.mp3,,,,,,,,,,,,,,,,,,,,,,,,,,,,,,,,,,,,,,,,,,,,,,,,,,,,,,,,,,,,,,,,,,,,,
,,,,,,,,,R_2uWhJofEioeTrbT,2022-09-13_22h11.28.897,jpn_C03,2022.1.2,MacIntel,11.49425287,,,space,1.225,0,13,13,19,1,トマ　ムク　シド,,,CartoonStims/cowboy_point_artist_r.jpg,audio/tomamukusido.mp3,,,,,,,,,,,,,,,,,,,,,,,,,,,,,,,,,,,,,,,,,,,,,,,,,,,,,,,,,,,,,,,,,,,,,
,,,,,,,,,R_2uWhJofEioeTrbT,2022-09-13_22h11.28.897,jpn_C03,2022.1.2,MacIntel,11.49425287,,,space,1.264,0,14,14,21,1,トマ　ピポ　ルピン,,,CartoonStims/doctor_point_burglar_r.jpg,audio/tomapipolupin.mp3,,,,,,,,,,,,,,,,,,,,,,,,,,,,,,,,,,,,,,,,,,,,,,,,,,,,,,,,,,,,,,,,,,,,,
,,,,,,,,,R_2uWhJofEioeTrbT,2022-09-13_22h11.28.897,jpn_C03,2022.1.2,MacIntel,11.49425287,,,space,1.671,0,15,15,29,1,パツ　ホレト　シド,,,CartoonStims/chef_shoot_artist_r.jpg,audio/patsuhoretosido.mp3,,,,,,,,,,,,,,,,,,,,,,,,,,,,,,,,,,,,,,,,,,,,,,,,,,,,,,,,,,,,,,,,,,,,,
,,,,,,,,,R_2uWhJofEioeTrbT,2022-09-13_22h11.28.897,jpn_C03,2022.1.2,MacIntel,11.49425287,,,space,1.417,0,16,16,35,1,パツ　ドキ　ムク,,,CartoonStims/boxer_shoot_cowboy_r.jpg,audio/patsudokimuku.mp3,,,,,,,,,,,,,,,,,,,,,,,,,,,,,,,,,,,,,,,,,,,,,,,,,,,,,,,,,,,,,,,,,,,,,
,,,,,,,,,R_2uWhJofEioeTrbT,2022-09-13_22h11.28.897,jpn_C03,2022.1.2,MacIntel,11.49425287,,,space,1.758,0,17,17,37,1,プミ　シド　ドキ,,,CartoonStims/artist_punch_boxer_r.jpg,audio/pumisidodoki.mp3,,,,,,,,,,,,,,,,,,,,,,,,,,,,,,,,,,,,,,,,,,,,,,,,,,,,,,,,,,,,,,,,,,,,,
,,,,,,,,,R_2uWhJofEioeTrbT,2022-09-13_22h11.28.897,jpn_C03,2022.1.2,MacIntel,11.49425287,,,space,2.918,0,18,18,1,1,セル 　シド 　ホレト,,,CartoonStims/artist_kick_chef_r.jpg,audio/serusidohoreto.mp3,,,,,,,,,,,,,,,,,,,,,,,,,,,,,,,,,,,,,,,,,,,,,,,,,,,,,,,,,,,,,,,,,,,,,
,,,,,,,,,R_2uWhJofEioeTrbT,2022-09-13_22h11.28.897,jpn_C03,2022.1.2,MacIntel,11.49425287,,,space,1.333,0,19,19,11,1,セル　ドキ　ルピン,,,CartoonStims/boxer_kick_burglar_r.jpg,audio/serudokilupin.mp3,,,,,,,,,,,,,,,,,,,,,,,,,,,,,,,,,,,,,,,,,,,,,,,,,,,,,,,,,,,,,,,,,,,,,
,,,,,,,,,R_2uWhJofEioeTrbT,2022-09-13_22h11.28.897,jpn_C03,2022.1.2,MacIntel,11.49425287,,,space,1.678,0,20,20,45,1,プミ　ピポ　ムク,,,CartoonStims/doctor_punch_cowboy_r.jpg,audio/pumipipomuku.mp3,,,,,,,,,,,,,,,,,,,,,,,,,,,,,,,,,,,,,,,,,,,,,,,,,,,,,,,,,,,,,,,,,,,,,
,,,,,,,,,R_2uWhJofEioeTrbT,2022-09-13_22h11.28.897,jpn_C03,2022.1.2,MacIntel,11.49425287,,,space,1.9,0,21,21,33,1,パツ　ピポ　ホレト,,,CartoonStims/doctor_shoot_chef_r.jpg,audio/patsupipohoreto.mp3,,,,,,,,,,,,,,,,,,,,,,,,,,,,,,,,,,,,,,,,,,,,,,,,,,,,,,,,,,,,,,,,,,,,,
,,,,,,,,,R_2uWhJofEioeTrbT,2022-09-13_22h11.28.897,jpn_C03,2022.1.2,MacIntel,11.49425287,,,space,1.67,0,22,22,43,1,プミ　ムク　ホレト,,,CartoonStims/cowboy_punch_chef_r.jpg,audio/pumimukuhoreto.mp3,,,,,,,,,,,,,,,,,,,,,,,,,,,,,,,,,,,,,,,,,,,,,,,,,,,,,,,,,,,,,,,,,,,,,
,,,,,,,,,R_2uWhJofEioeTrbT,2022-09-13_22h11.28.897,jpn_C03,2022.1.2,MacIntel,11.49425287,,,space,1.874,0,23,23,20,1,トマ　ピポ　シド,,,CartoonStims/doctor_point_artist_r.jpg,audio/tomapiposido.mp3,,,,,,,,,,,,,,,,,,,,,,,,,,,,,,,,,,,,,,,,,,,,,,,,,,,,,,,,,,,,,,,,,,,,,
,,,,,,,,,R_2uWhJofEioeTrbT,2022-09-13_22h11.28.897,jpn_C03,2022.1.2,MacIntel,11.49425287,,,space,2.002,0,24,24,17,1,トマ　ホレト　ドキ,,,CartoonStims/chef_point_boxer_r.jpg,audio/tomahoretodoki.mp3,,,,,,,,,,,,,,,,,,,,,,,,,,,,,,,,,,,,,,,,,,,,,,,,,,,,,,,,,,,,,,,,,,,,,
,,,,,,,,,R_2uWhJofEioeTrbT,2022-09-13_22h11.28.897,jpn_C03,2022.1.2,MacIntel,11.49425287,,,space,1.535,0,25,25,23,1,トマ　ドキ　ホレト,,,CartoonStims/boxer_point_chef_r.jpg,audio/tomadokihoreto.mp3,,,,,,,,,,,,,,,,,,,,,,,,,,,,,,,,,,,,,,,,,,,,,,,,,,,,,,,,,,,,,,,,,,,,,
,,,,,,,,,R_2uWhJofEioeTrbT,2022-09-13_22h11.28.897,jpn_C03,2022.1.2,MacIntel,11.49425287,,,space,1.529,0,26,26,6,1,セル　ムク　ピポ,,,CartoonStims/cowboy_kick_doctor_r.jpg,audio/serumukupipo.mp3,,,,,,,,,,,,,,,,,,,,,,,,,,,,,,,,,,,,,,,,,,,,,,,,,,,,,,,,,,,,,,,,,,,,,
,,,,,,,,,R_2uWhJofEioeTrbT,2022-09-13_22h11.28.897,jpn_C03,2022.1.2,MacIntel,11.49425287,,,space,1.863,0,27,27,2,1,セル 　ルピン 　ホレト,,,CartoonStims/burglar_kick_chef_r.jpg,audio/serulupinhoreto.mp3,,,,,,,,,,,,,,,,,,,,,,,,,,,,,,,,,,,,,,,,,,,,,,,,,,,,,,,,,,,,,,,,,,,,,
,,,,,,,,,R_2uWhJofEioeTrbT,2022-09-13_22h11.28.897,jpn_C03,2022.1.2,MacIntel,11.49425287,,,space,1.904,0,28,28,41,1,プミ　ホレト　ルピン,,,CartoonStims/chef_punch_burglar_r.jpg,audio/pumihoretolupin.mp3,,,,,,,,,,,,,,,,,,,,,,,,,,,,,,,,,,,,,,,,,,,,,,,,,,,,,,,,,,,,,,,,,,,,,
,,,,,,,,,R_2uWhJofEioeTrbT,2022-09-13_22h11.28.897,jpn_C03,2022.1.2,MacIntel,11.49425287,,,space,1.658,0,29,29,3,1,セル　ルピン　ムク,,,CartoonStims/burglar_kick_cowboy_r.jpg,audio/serulupinmuku.mp3,,,,,,,,,,,,,,,,,,,,,,,,,,,,,,,,,,,,,,,,,,,,,,,,,,,,,,,,,,,,,,,,,,,,,
,,,,,,,,,R_2uWhJofEioeTrbT,2022-09-13_22h11.28.897,jpn_C03,2022.1.2,MacIntel,11.49425287,,,space,1.432,0,30,30,42,1,プミ　ムク　ルピン,,,CartoonStims/cowboy_punch_burglar_r.jpg,audio/pumimukulupin.mp3,,,,,,,,,,,,,,,,,,,,,,,,,,,,,,,,,,,,,,,,,,,,,,,,,,,,,,,,,,,,,,,,,,,,,
,,,,,,,,,R_2uWhJofEioeTrbT,2022-09-13_22h11.28.897,jpn_C03,2022.1.2,MacIntel,11.49425287,,,space,1.675,0,31,31,14,1,トマ　ルピン　ムク,,,CartoonStims/burglar_point_cowboy_r.jpg,audio/tomalupinmuku.mp3,,,,,,,,,,,,,,,,,,,,,,,,,,,,,,,,,,,,,,,,,,,,,,,,,,,,,,,,,,,,,,,,,,,,,
,,,,,,,,,R_2uWhJofEioeTrbT,2022-09-13_22h11.28.897,jpn_C03,2022.1.2,MacIntel,11.49425287,,,space,1.647,0,32,32,28,1,パツ　ホレト　ドキ,,,CartoonStims/chef_shoot_boxer_r.jpg,audio/patsuhoretodoki.mp3,,,,,,,,,,,,,,,,,,,,,,,,,,,,,,,,,,,,,,,,,,,,,,,,,,,,,,,,,,,,,,,,,,,,,
,,,,,,,,,R_2uWhJofEioeTrbT,2022-09-13_22h11.28.897,jpn_C03,2022.1.2,MacIntel,11.49425287,,,space,1.333,0,33,33,34,1,パツ　ドキ　ホレト,,,CartoonStims/boxer_shoot_chef_r.jpg,audio/patsudokihoreto.mp3,,,,,,,,,,,,,,,,,,,,,,,,,,,,,,,,,,,,,,,,,,,,,,,,,,,,,,,,,,,,,,,,,,,,,
,,,,,,,,,R_2uWhJofEioeTrbT,2022-09-13_22h11.28.897,jpn_C03,2022.1.2,MacIntel,11.49425287,,,space,1.022,0,34,34,27,1,パツ　ルピン　ドキ,,,CartoonStims/burglar_shoot_boxer_r.jpg,audio/patsulupindoki.mp3,,,,,,,,,,,,,,,,,,,,,,,,,,,,,,,,,,,,,,,,,,,,,,,,,,,,,,,,,,,,,,,,,,,,,
,,,,,,,,,R_2uWhJofEioeTrbT,2022-09-13_22h11.28.897,jpn_C03,2022.1.2,MacIntel,11.49425287,,,space,1.154,0,35,35,16,1,トマ　ホレト　ピポ,,,CartoonStims/chef_point_doctor_r.jpg,audio/tomahoretopipo.mp3,,,,,,,,,,,,,,,,,,,,,,,,,,,,,,,,,,,,,,,,,,,,,,,,,,,,,,,,,,,,,,,,,,,,,
,,,,,,,,,R_2uWhJofEioeTrbT,2022-09-13_22h11.28.897,jpn_C03,2022.1.2,MacIntel,11.49425287,,,space,0.889,0,36,36,46,1,プミ　ドキ　ムク,,,CartoonStims/boxer_punch_cowboy_r.jpg,audio/pumidokimuku.mp3,,,,,,,,,,,,,,,,,,,,,,,,,,,,,,,,,,,,,,,,,,,,,,,,,,,,,,,,,,,,,,,,,,,,,
,,,,,,,,,R_2uWhJofEioeTrbT,2022-09-13_22h11.28.897,jpn_C03,2022.1.2,MacIntel,11.49425287,,,space,1.513,0,37,37,38,1,プミ　ルピン　ドキ,,,CartoonStims/burglar_punch_boxer_r.jpg,audio/pumilupindoki.mp3,,,,,,,,,,,,,,,,,,,,,,,,,,,,,,,,,,,,,,,,,,,,,,,,,,,,,,,,,,,,,,,,,,,,,
,,,,,,,,,R_2uWhJofEioeTrbT,2022-09-13_22h11.28.897,jpn_C03,2022.1.2,MacIntel,11.49425287,,,space,1.093,0,38,38,13,1,トマ　シド　ムク,,,CartoonStims/artist_point_cowboy_r.jpg,audio/tomasidomuku.mp3,,,,,,,,,,,,,,,,,,,,,,,,,,,,,,,,,,,,,,,,,,,,,,,,,,,,,,,,,,,,,,,,,,,,,
,,,,,,,,,R_2uWhJofEioeTrbT,2022-09-13_22h11.28.897,jpn_C03,2022.1.2,MacIntel,11.49425287,,,space,1.252,0,39,39,32,1,パツ　ピポ　ルピン,,,CartoonStims/doctor_shoot_burglar_r.jpg,audio/patsupipolupin.mp3,,,,,,,,,,,,,,,,,,,,,,,,,,,,,,,,,,,,,,,,,,,,,,,,,,,,,,,,,,,,,,,,,,,,,
,,,,,,,,,R_2uWhJofEioeTrbT,2022-09-13_22h11.28.897,jpn_C03,2022.1.2,MacIntel,11.49425287,,,space,1.555,0,40,40,44,1,プミ　ピポ　ホレト,,,CartoonStims/doctor_punch_chef_r.jpg,audio/pumipipohoreto.mp3,,,,,,,,,,,,,,,,,,,,,,,,,,,,,,,,,,,,,,,,,,,,,,,,,,,,,,,,,,,,,,,,,,,,,
,,,,,,,,,R_2uWhJofEioeTrbT,2022-09-13_22h11.28.897,jpn_C03,2022.1.2,MacIntel,11.49425287,,,space,1.192,0,41,41,24,1,パツ　シド　ムク,,,CartoonStims/artist_shoot_cowboy_r.jpg,audio/patsusidomuku.mp3,,,,,,,,,,,,,,,,,,,,,,,,,,,,,,,,,,,,,,,,,,,,,,,,,,,,,,,,,,,,,,,,,,,,,
,,,,,,,,,R_2uWhJofEioeTrbT,2022-09-13_22h11.28.897,jpn_C03,2022.1.2,MacIntel,11.49425287,,,space,1.88,0,42,42,15,1,トマ　ルピン　ピポ,,,CartoonStims/burglar_point_doctor_r.jpg,audio/tomalupinpipo.mp3,,,,,,,,,,,,,,,,,,,,,,,,,,,,,,,,,,,,,,,,,,,,,,,,,,,,,,,,,,,,,,,,,,,,,
,,,,,,,,,R_2uWhJofEioeTrbT,2022-09-13_22h11.28.897,jpn_C03,2022.1.2,MacIntel,11.49425287,,,space,1.47,0,43,43,18,1,トマ　ムク　ドキ,,,CartoonStims/cowboy_point_boxer_r.jpg,audio/tomamukudoki.mp3,,,,,,,,,,,,,,,,,,,,,,,,,,,,,,,,,,,,,,,,,,,,,,,,,,,,,,,,,,,,,,,,,,,,,
,,,,,,,,,R_2uWhJofEioeTrbT,2022-09-13_22h11.28.897,jpn_C03,2022.1.2,MacIntel,11.49425287,,,space,1.497,0,44,44,47,1,プミ　ドキ　ピポ,,,CartoonStims/boxer_punch_doctor_r.jpg,audio/pumidokipipo.mp3,,,,,,,,,,,,,,,,,,,,,,,,,,,,,,,,,,,,,,,,,,,,,,,,,,,,,,,,,,,,,,,,,,,,,
,,,,,,,,,R_2uWhJofEioeTrbT,2022-09-13_22h11.28.897,jpn_C03,2022.1.2,MacIntel,11.49425287,,,space,1.61,0,45,45,9,1,セル　ピポ　シド,,,CartoonStims/doctor_kick_artist_r.jpg,audio/serupiposido.mp3,,,,,,,,,,,,,,,,,,,,,,,,,,,,,,,,,,,,,,,,,,,,,,,,,,,,,,,,,,,,,,,,,,,,,
,,,,,,,,,R_2uWhJofEioeTrbT,2022-09-13_22h11.28.897,jpn_C03,2022.1.2,MacIntel,11.49425287,,,space,1.647,0,46,46,10,1,セル　ドキ　シド,,,CartoonStims/boxer_kick_artist_r.jpg,audio/serudokisido.mp3,,,,,,,,,,,,,,,,,,,,,,,,,,,,,,,,,,,,,,,,,,,,,,,,,,,,,,,,,,,,,,,,,,,,,
,,,,,,,,,R_2uWhJofEioeTrbT,2022-09-13_22h11.28.897,jpn_C03,2022.1.2,MacIntel,11.49425287,,,space,1.831,0,47,47,5,1,セル　ホレト　ピポ,,,CartoonStims/chef_kick_doctor_r.jpg,audio/seruhoretopipo.mp3,,,,,,,,,,,,,,,,,,,,,,,,,,,,,,,,,,,,,,,,,,,,,,,,,,,,,,,,,,,,,,,,,,,,,
,,,,,,,,,R_2uWhJofEioeTrbT,2022-09-13_22h11.28.897,jpn_C03,2022.1.2,MacIntel,11.49425287,,,,,,,,,,,,,,,space,3.047,left,1,1.72,0,0,0,0,1,,,,,,,,,,,,,,,,,,,,,,,,,,,,,,,,,,,,,,,,,,,,,,,,,,,,,,,,,,,
,,,,,,,,,R_2uWhJofEioeTrbT,2022-09-13_22h11.28.897,jpn_C03,2022.1.2,MacIntel,11.49425287,,,,,,,,,,,,,,,,,,,,,,,,,0,0,0,4,1,CartoonStims/burglar_point_boxer_r.jpg,トマ　ルピン　ドキ,CartoonStims/burglar_kick_boxer_r.jpg,left,CartoonStims/burglar_point_boxer_r.jpg,audio/tomalupindoki.mp3,残念！ こちらが正しい画像です。,,,,,,,,,,,,,,,,,,,,,,,,,,,,,,,,,,,,,,,,,,,,,,,
,,,,,,,,,R_2uWhJofEioeTrbT,2022-09-13_22h11.28.897,jpn_C03,2022.1.2,MacIntel,11.49425287,,,,,,,,,,,,,,,,,left,1,1.19,0,0,0,0,1,,,,,,,,,,,,,,,,,,,,,,,,,,,,,,,,,,,,,,,,,,,,,,,,,,,,,,,,,,,
,,,,,,,,,R_2uWhJofEioeTrbT,2022-09-13_22h11.28.897,jpn_C03,2022.1.2,MacIntel,11.49425287,,,,,,,,,,,,,,,,,,,,,,,,,0,1,1,2,1,CartoonStims/boxer_shoot_doctor_r.jpg,パツ　ドキ　ピポ,CartoonStims/boxer_shoot_artist_r.jpg,left,CartoonStims/boxer_shoot_doctor_r.jpg,audio/patsudokipipo.mp3,残念！ こちらが正しい画像です。,,,,,,,,,,,,,,,,,,,,,,,,,,,,,,,,,,,,,,,,,,,,,,,
,,,,,,,,,R_2uWhJofEioeTrbT,2022-09-13_22h11.28.897,jpn_C03,2022.1.2,MacIntel,11.49425287,,,,,,,,,,,,,,,,,left,1,1.507,0,0,0,0,1,,,,,,,,,,,,,,,,,,,,,,,,,,,,,,,,,,,,,,,,,,,,,,,,,,,,,,,,,,,
,,,,,,,,,R_2uWhJofEioeTrbT,2022-09-13_22h11.28.897,jpn_C03,2022.1.2,MacIntel,11.49425287,,,,,,,,,,,,,,,,,,,,,,,,,0,2,2,10,1,CartoonStims/artist_shoot_burglar_r.jpg,パツ　シド　ルピン,CartoonStims/chef_shoot_burglar_r.jpg,left,CartoonStims/artist_shoot_burglar_r.jpg,audio/patsusidolupin.mp3,残念！ こちらが正しい画像です。,,,,,,,,,,,,,,,,,,,,,,,,,,,,,,,,,,,,,,,,,,,,,,,
,,,,,,,,,R_2uWhJofEioeTrbT,2022-09-13_22h11.28.897,jpn_C03,2022.1.2,MacIntel,11.49425287,,,,,,,,,,,,,,,,,left,1,1.281,0,0,0,0,1,,,,,,,,,,,,,,,,,,,,,,,,,,,,,,,,,,,,,,,,,,,,,,,,,,,,,,,,,,,
,,,,,,,,,R_2uWhJofEioeTrbT,2022-09-13_22h11.28.897,jpn_C03,2022.1.2,MacIntel,11.49425287,,,,,,,,,,,,,,,,,,,,,,,,,0,3,3,0,1,CartoonStims/doctor_kick_burglar_r.jpg,セル　ピポ　ルピン,CartoonStims/doctor_kick_chef_r.jpg,left,CartoonStims/doctor_kick_burglar_r.jpg,audio/serupipolupin.mp3,残念！ こちらが正しい画像です。,,,,,,,,,,,,,,,,,,,,,,,,,,,,,,,,,,,,,,,,,,,,,,,
,,,,,,,,,R_2uWhJofEioeTrbT,2022-09-13_22h11.28.897,jpn_C03,2022.1.2,MacIntel,11.49425287,,,,,,,,,,,,,,,,,left,1,1.871,0,0,0,0,1,,,,,,,,,,,,,,,,,,,,,,,,,,,,,,,,,,,,,,,,,,,,,,,,,,,,,,,,,,,
,,,,,,,,,R_2uWhJofEioeTrbT,2022-09-13_22h11.28.897,jpn_C03,2022.1.2,MacIntel,11.49425287,,,,,,,,,,,,,,,,,,,,,,,,,0,4,4,6,1,CartoonStims/doctor_punch_boxer_r.jpg,プミ　ピポ　ドキ,CartoonStims/doctor_shoot_boxer_r.jpg,left,CartoonStims/doctor_punch_boxer_r.jpg,audio/pumipipodoki.mp3,残念！ こちらが正しい画像です。,,,,,,,,,,,,,,,,,,,,,,,,,,,,,,,,,,,,,,,,,,,,,,,
,,,,,,,,,R_2uWhJofEioeTrbT,2022-09-13_22h11.28.897,jpn_C03,2022.1.2,MacIntel,11.49425287,,,,,,,,,,,,,,,,,right,1,2.61,,,,,,,,,,,,,,,,,,0,0,0,0,1,,,,,,,,,,,,,,,,,,,,,,,,,,,,,,,,,,,,,,,,,,
,,,,,,,,,R_2uWhJofEioeTrbT,2022-09-13_22h11.28.897,jpn_C03,2022.1.2,MacIntel,11.49425287,,,,,,,,,,,,,,,,,,,,,,,,,0,5,5,3,1,CartoonStims/cowboy_punch_doctor_r.jpg,プミ　ムク　ドキ,CartoonStims/cowboy_punch_boxer_r.jpg,right,CartoonStims/cowboy_punch_boxer_r.jpg,audio/pumimukudoki.mp3,残念！ こちらが正しい画像です。,,,,,,,,,,,,,,,,,,,,,,,,,,,,,,,,,,,,,,,,,,,,,,,
,,,,,,,,,R_2uWhJofEioeTrbT,2022-09-13_22h11.28.897,jpn_C03,2022.1.2,MacIntel,11.49425287,,,,,,,,,,,,,,,,,right,1,4.038,,,,,,,,,,,,,,,,,,0,0,0,0,1,,,,,,,,,,,,,,,,,,,,,,,,,,,,,,,,,,,,,,,,,,
,,,,,,,,,R_2uWhJofEioeTrbT,2022-09-13_22h11.28.897,jpn_C03,2022.1.2,MacIntel,11.49425287,,,,,,,,,,,,,,,,,,,,,,,,,0,6,6,9,1,CartoonStims/chef_kick_artist_r.jpg,セル　ムク　シド,CartoonStims/cowboy_kick_artist_r.jpg,right,CartoonStims/cowboy_kick_artist_r.jpg,audio/serumukusido.mp3,残念！ こちらが正しい画像です。,,,,,,,,,,,,,,,,,,,,,,,,,,,,,,,,,,,,,,,,,,,,,,,
,,,,,,,,,R_2uWhJofEioeTrbT,2022-09-13_22h11.28.897,jpn_C03,2022.1.2,MacIntel,11.49425287,,,,,,,,,,,,,,,,,right,1,3.487,,,,,,,,,,,,,,,,,,0,0,0,0,1,,,,,,,,,,,,,,,,,,,,,,,,,,,,,,,,,,,,,,,,,,
,,,,,,,,,R_2uWhJofEioeTrbT,2022-09-13_22h11.28.897,jpn_C03,2022.1.2,MacIntel,11.49425287,,,,,,,,,,,,,,,,,,,,,,,,,0,7,7,7,1,CartoonStims/artist_punch_cowboy_r.jpg,セル　シド　ムク,CartoonStims/artist_kick_cowboy_r.jpg,right,CartoonStims/artist_kick_cowboy_r.jpg,audio/serusidomuku.mp3,残念！ こちらが正しい画像です。,,,,,,,,,,,,,,,,,,,,,,,,,,,,,,,,,,,,,,,,,,,,,,,
,,,,,,,,,R_2uWhJofEioeTrbT,2022-09-13_22h11.28.897,jpn_C03,2022.1.2,MacIntel,11.49425287,,,,,,,,,,,,,,,,,left,1,2.255,0,0,0,0,1,,,,,,,,,,,,,,,,,,,,,,,,,,,,,,,,,,,,,,,,,,,,,,,,,,,,,,,,,,,
,,,,,,,,,R_2uWhJofEioeTrbT,2022-09-13_22h11.28.897,jpn_C03,2022.1.2,MacIntel,11.49425287,,,,,,,,,,,,,,,,,,,,,,,,,0,8,8,8,1,CartoonStims/doctor_point_cowboy_r.jpg,トマ　ピポ　ムク,CartoonStims/boxer_point_cowboy_r.jpg,left,CartoonStims/doctor_point_cowboy_r.jpg,audio/tomapipomuku.mp3,残念！ こちらが正しい画像です。,,,,,,,,,,,,,,,,,,,,,,,,,,,,,,,,,,,,,,,,,,,,,,,
,,,,,,,,,R_2uWhJofEioeTrbT,2022-09-13_22h11.28.897,jpn_C03,2022.1.2,MacIntel,11.49425287,,,,,,,,,,,,,,,,,right,1,2.115,,,,,,,,,,,,,,,,,,0,0,0,0,1,,,,,,,,,,,,,,,,,,,,,,,,,,,,,,,,,,,,,,,,,,
,,,,,,,,,R_2uWhJofEioeTrbT,2022-09-13_22h11.28.897,jpn_C03,2022.1.2,MacIntel,11.49425287,,,,,,,,,,,,,,,,,,,,,,,,,0,9,9,1,1,CartoonStims/chef_point_burglar_r.jpg,トマ　ホレト　シド,CartoonStims/chef_point_artist_r.jpg,right,CartoonStims/chef_point_artist_r.jpg,audio/tomahoretosido.mp3,残念！ こちらが正しい画像です。,,,,,,,,,,,,,,,,,,,,,,,,,,,,,,,,,,,,,,,,,,,,,,,
,,,,,,,,,R_2uWhJofEioeTrbT,2022-09-13_22h11.28.897,jpn_C03,2022.1.2,MacIntel,11.49425287,,,,,,,,,,,,,,,,,right,1,2.085,,,,,,,,,,,,,,,,,,0,0,0,0,1,,,,,,,,,,,,,,,,,,,,,,,,,,,,,,,,,,,,,,,,,,
,,,,,,,,,R_2uWhJofEioeTrbT,2022-09-13_22h11.28.897,jpn_C03,2022.1.2,MacIntel,11.49425287,,,,,,,,,,,,,,,,,,,,,,,,,0,10,10,5,1,CartoonStims/cowboy_point_chef_r.jpg,パツ　ムク　ホレト,CartoonStims/cowboy_shoot_chef_r.jpg,right,CartoonStims/cowboy_shoot_chef_r.jpg,audio/patsumukuhoreto.mp3,残念！ こちらが正しい画像です。,,,,,,,,,,,,,,,,,,,,,,,,,,,,,,,,,,,,,,,,,,,,,,,
,,,,,,,,,R_2uWhJofEioeTrbT,2022-09-13_22h11.28.897,jpn_C03,2022.1.2,MacIntel,11.49425287,,,,,,,,,,,,,,,,,right,1,2.314,,,,,,,,,,,,,,,,,,0,0,0,0,1,,,,,,,,,,,,,,,,,,,,,,,,,,,,,,,,,,,,,,,,,,
,,,,,,,,,R_2uWhJofEioeTrbT,2022-09-13_22h11.28.897,jpn_C03,2022.1.2,MacIntel,11.49425287,,,,,,,,,,,,,,,,,,,,,,,,,0,11,11,11,1,CartoonStims/burglar_punch_cowboy_r.jpg,プミ　ホレト　ムク,CartoonStims/chef_punch_cowboy_r.jpg,right,CartoonStims/chef_punch_cowboy_r.jpg,audio/pumihoretomuku.mp3,残念！ こちらが正しい画像です。,,,,,,,,,,,,,,,,,,,,,,,,,,,,,,,,,,,,,,,,,,,,,,,
,,,,,,,,,R_2uWhJofEioeTrbT,2022-09-13_22h11.28.897,jpn_C03,2022.1.2,MacIntel,11.49425287,,,,,,,,,,,,,,,,,,,,,,,,,,,,,,,,,,,,,,,,,,space,0.433,トマ　ルピン　シド,right,13.785,0,0,0,0,1,,,,,,,,,,,,,,,,,,,,,,,,,,,,,,,,
,,,,,,,,,R_2uWhJofEioeTrbT,2022-09-13_22h11.28.897,jpn_C03,2022.1.2,MacIntel,11.49425287,,,,,,,,,,,,,CartoonStims/burglar_point_artist_r.jpg,audio/tomalupinsido.mp3,,,,,,,,,,,,,,,,,,,,,,,,,,,,,,,,,,,,,,0,0,0,4,1,トマ　ルピン　シド,,,,,,,,,,,,,,,,,,,,,,,,,,
,,,,,,,,,R_2uWhJofEioeTrbT,2022-09-13_22h11.28.897,jpn_C03,2022.1.2,MacIntel,11.49425287,,,,,,,,,,,,,,,,,,,,,,,,,,,,,,,,,,,,,,,,,,,,トマ　ホレト　ルピン,right,6.866,0,0,0,0,1,,,,,,,,,,,,,,,,,,,,,,,,,,,,,,,,
,,,,,,,,,R_2uWhJofEioeTrbT,2022-09-13_22h11.28.897,jpn_C03,2022.1.2,MacIntel,11.49425287,,,,,,,,,,,,,CartoonStims/chef_point_burglar_r.jpg,audio/tomahoretolupin.mp3,,,,,,,,,,,,,,,,,,,,,,,,,,,,,,,,,,,,,,0,1,1,5,1,トマ　ホレト　ルピン,,,,,,,,,,,,,,,,,,,,,,,,,,
,,,,,,,,,R_2uWhJofEioeTrbT,2022-09-13_22h11.28.897,jpn_C03,2022.1.2,MacIntel,11.49425287,,,,,,,,,,,,,,,,,,,,,,,,,,,,,,,,,,,,,,,,,,,,パツ　ホレト　ムク,right,6.238,0,0,0,0,1,,,,,,,,,,,,,,,,,,,,,,,,,,,,,,,,
,,,,,,,,,R_2uWhJofEioeTrbT,2022-09-13_22h11.28.897,jpn_C03,2022.1.2,MacIntel,11.49425287,,,,,,,,,,,,,CartoonStims/chef_shoot_cowboy_r.jpg,audio/patsuhoretomuku.mp3,,,,,,,,,,,,,,,,,,,,,,,,,,,,,,,,,,,,,,0,2,2,7,1,パツ　ホレト　ムク,,,,,,,,,,,,,,,,,,,,,,,,,,
,,,,,,,,,R_2uWhJofEioeTrbT,2022-09-13_22h11.28.897,jpn_C03,2022.1.2,MacIntel,11.49425287,,,,,,,,,,,,,,,,,,,,,,,,,,,,,,,,,,,,,,,,,,,,セル　ムク　ルピン,right,9.263,0,0,0,0,1,,,,,,,,,,,,,,,,,,,,,,,,,,,,,,,,
,,,,,,,,,R_2uWhJofEioeTrbT,2022-09-13_22h11.28.897,jpn_C03,2022.1.2,MacIntel,11.49425287,,,,,,,,,,,,,CartoonStims/cowboy_kick_burglar_r.jpg,audio/serumukulupin.mp3,,,,,,,,,,,,,,,,,,,,,,,,,,,,,,,,,,,,,,0,3,3,0,1,セル　ムク　ルピン,,,,,,,,,,,,,,,,,,,,,,,,,,
,,,,,,,,,R_2uWhJofEioeTrbT,2022-09-13_22h11.28.897,jpn_C03,2022.1.2,MacIntel,11.49425287,,,,,,,,,,,,,,,,,,,,,,,,,,,,,,,,,,,,,,,,,,,,プミ　ピポ　ドキ,right,9.854,0,0,0,0,1,,,,,,,,,,,,,,,,,,,,,,,,,,,,,,,,
,,,,,,,,,R_2uWhJofEioeTrbT,2022-09-13_22h11.28.897,jpn_C03,2022.1.2,MacIntel,11.49425287,,,,,,,,,,,,,CartoonStims/doctor_punch_boxer_r.jpg,audio/pumipipodoki.mp3,,,,,,,,,,,,,,,,,,,,,,,,,,,,,,,,,,,,,,0,4,4,10,1,プミ　ピポ　ドキ,,,,,,,,,,,,,,,,,,,,,,,,,,
,,,,,,,,,R_2uWhJofEioeTrbT,2022-09-13_22h11.28.897,jpn_C03,2022.1.2,MacIntel,11.49425287,,,,,,,,,,,,,,,,,,,,,,,,,,,,,,,,,,,,,,,,,,,,パツ　ムク　ピポ,right,6.775,0,0,0,0,1,,,,,,,,,,,,,,,,,,,,,,,,,,,,,,,,
,,,,,,,,,R_2uWhJofEioeTrbT,2022-09-13_22h11.28.897,jpn_C03,2022.1.2,MacIntel,11.49425287,,,,,,,,,,,,,CartoonStims/cowboy_shoot_doctor_r.jpg,audio/patsumukupipo.mp3,,,,,,,,,,,,,,,,,,,,,,,,,,,,,,,,,,,,,,0,5,5,8,1,パツ　ムク　ピポ,,,,,,,,,,,,,,,,,,,,,,,,,,
,,,,,,,,,R_2uWhJofEioeTrbT,2022-09-13_22h11.28.897,jpn_C03,2022.1.2,MacIntel,11.49425287,,,,,,,,,,,,,,,,,,,,,,,,,,,,,,,,,,,,,,,,,,,,プミ　ドキ　シド,right,7.38,0,0,0,0,1,,,,,,,,,,,,,,,,,,,,,,,,,,,,,,,,
,,,,,,,,,R_2uWhJofEioeTrbT,2022-09-13_22h11.28.897,jpn_C03,2022.1.2,MacIntel,11.49425287,,,,,,,,,,,,,CartoonStims/boxer_punch_artist_r.jpg,audio/pumidokisido.mp3,,,,,,,,,,,,,,,,,,,,,,,,,,,,,,,,,,,,,,0,6,6,11,1,プミ　ドキ　シド,,,,,,,,,,,,,,,,,,,,,,,,,,
,,,,,,,,,R_2uWhJofEioeTrbT,2022-09-13_22h11.28.897,jpn_C03,2022.1.2,MacIntel,11.49425287,,,,,,,,,,,,,,,,,,,,,,,,,,,,,,,,,,,,,,,,,,,,プミ　シド　ルピン,right,7.735,0,0,0,0,1,,,,,,,,,,,,,,,,,,,,,,,,,,,,,,,,
,,,,,,,,,R_2uWhJofEioeTrbT,2022-09-13_22h11.28.897,jpn_C03,2022.1.2,MacIntel,11.49425287,,,,,,,,,,,,,CartoonStims/artist_punch_burglar_r.jpg,audio/pumisidolupin.mp3,,,,,,,,,,,,,,,,,,,,,,,,,,,,,,,,,,,,,,0,7,7,9,1,プミ　シド　ルピン,,,,,,,,,,,,,,,,,,,,,,,,,,
,,,,,,,,,R_2uWhJofEioeTrbT,2022-09-13_22h11.28.897,jpn_C03,2022.1.2,MacIntel,11.49425287,,,,,,,,,,,,,,,,,,,,,,,,,,,,,,,,,,,,,,,,,,,,パツ　ルピン　ホレト,right,8.766,0,0,0,0,1,,,,,,,,,,,,,,,,,,,,,,,,,,,,,,,,
,,,,,,,,,R_2uWhJofEioeTrbT,2022-09-13_22h11.28.897,jpn_C03,2022.1.2,MacIntel,11.49425287,,,,,,,,,,,,,CartoonStims/burglar_shoot_chef_r.jpg,audio/patsulupinhoreto.mp3,,,,,,,,,,,,,,,,,,,,,,,,,,,,,,,,,,,,,,0,8,8,6,1,パツ　ルピン　ホレト,,,,,,,,,,,,,,,,,,,,,,,,,,
,,,,,,,,,R_2uWhJofEioeTrbT,2022-09-13_22h11.28.897,jpn_C03,2022.1.2,MacIntel,11.49425287,,,,,,,,,,,,,,,,,,,,,,,,,,,,,,,,,,,,,,,,,,,,セル　ピポ　ホレト,right,8.09,0,0,0,0,1,,,,,,,,,,,,,,,,,,,,,,,,,,,,,,,,
,,,,,,,,,R_2uWhJofEioeTrbT,2022-09-13_22h11.28.897,jpn_C03,2022.1.2,MacIntel,11.49425287,,,,,,,,,,,,,CartoonStims/doctor_kick_chef_r.jpg,audio/serupipohoreto.mp3,,,,,,,,,,,,,,,,,,,,,,,,,,,,,,,,,,,,,,0,9,9,1,1,セル　ピポ　ホレト,,,,,,,,,,,,,,,,,,,,,,,,,,
,,,,,,,,,R_2uWhJofEioeTrbT,2022-09-13_22h11.28.897,jpn_C03,2022.1.2,MacIntel,11.49425287,,,,,,,,,,,,,,,,,,,,,,,,,,,,,,,,,,,,,,,,,,,,トマ　シド　ドキ,right,9.617,0,0,0,0,1,,,,,,,,,,,,,,,,,,,,,,,,,,,,,,,,
,,,,,,,,,R_2uWhJofEioeTrbT,2022-09-13_22h11.28.897,jpn_C03,2022.1.2,MacIntel,11.49425287,,,,,,,,,,,,,CartoonStims/artist_point_boxer_r.jpg,audio/tomasidodoki.mp3,,,,,,,,,,,,,,,,,,,,,,,,,,,,,,,,,,,,,,0,10,10,3,1,トマ　シド　ドキ,,,,,,,,,,,,,,,,,,,,,,,,,,
,,,,,,,,,R_2uWhJofEioeTrbT,2022-09-13_22h11.28.897,jpn_C03,2022.1.2,MacIntel,11.49425287,,,,,,,,,,,,,,,,,,,,,,,,,,,,,,,,,,,,,,,,,,,,セル　ドキ　ムク,right,6.127,0,0,0,0,1,,,,,,,,,,,,,,,,,,,,,,,,,,,,,,,,
,,,,,,,,,R_2uWhJofEioeTrbT,2022-09-13_22h11.28.897,jpn_C03,2022.1.2,MacIntel,11.49425287,,,,,,,,,,,,,CartoonStims/boxer_kick_cowboy_r.jpg,audio/serudokimuku.mp3,,,,,,,,,,,,,,,,,,,,,,,,,,,,,,,,,,,,,,0,11,11,2,1,セル　ドキ　ムク,,,,,,,,,,,,,,,,,,,,,,,,,,
,,,,,,,,,R_2uWhJofEioeTrbT,2022-09-13_22h11.28.897,jpn_C03,2022.1.2,MacIntel,11.49425287,,,,,,,,,,,,,,,,,,,,,,,,,,,,,,,,,,,,,,,,,,,,,,,,,,,,,,,,,,,space,0.333,0,1,1,1,1,AffExposure.xlsx,"第二のトライアルの学習では、この言語で書かれた文を見ていただきます。引き続き注意して、 聞こえた音を復唱してください。


スペースキーを押してください。",1,AffFCT.xlsx,ここからクイズが始まります。 スクリーンに表示されるテキストに合う画像を選んでください。,AffTest.xlsx,1,次にここまで学んだことをアウトプットしていただきます。 表示される画像を描写していると思う単語を、テキストボックスにタイプしてください。 答えを提出したあとに正しい正解が少しの間画面に写ります。,1,"これで第二のトライアルが終了しました。 ここで休憩をとっていただいても構いません。

休憩が終わりましたら、 スペースキーを押して続きの学習を行いましょう。",,,,,,,,
,,,,,,,,,R_2uWhJofEioeTrbT,2022-09-13_22h11.28.897,jpn_C03,2022.1.2,MacIntel,11.49425287,space,3.387,space,3.052,0,0,0,13,1,トマ　ピク　シド　ムク,,,CartoonStims/artist_point_cowboy_r_no.jpg,audio/tomapikusidomuku.mp3,,,,,,,,,,,,,,,,,,,,,,,,,,,,,,,,,,,,,,,,,,,,,,,,,,,,,,,,,,,,,,,,,,,,,
,,,,,,,,,R_2uWhJofEioeTrbT,2022-09-13_22h11.28.897,jpn_C03,2022.1.2,MacIntel,11.49425287,,,space,3.151,0,1,1,25,1,ピク　パツ　シド　ピポ,,,CartoonStims/artist_shoot_doctor_r_no.jpg,audio/pikupatsusidopipo.mp3,,,,,,,,,,,,,,,,,,,,,,,,,,,,,,,,,,,,,,,,,,,,,,,,,,,,,,,,,,,,,,,,,,,,,
,,,,,,,,,R_2uWhJofEioeTrbT,2022-09-13_22h11.28.897,jpn_C03,2022.1.2,MacIntel,11.49425287,,,space,2.208,0,2,2,29,1,ピク　パツ　ホレト　シド,,,CartoonStims/chef_shoot_artist_r_no.jpg,audio/pikupatsuhoretosido.mp3,,,,,,,,,,,,,,,,,,,,,,,,,,,,,,,,,,,,,,,,,,,,,,,,,,,,,,,,,,,,,,,,,,,,,
,,,,,,,,,R_2uWhJofEioeTrbT,2022-09-13_22h11.28.897,jpn_C03,2022.1.2,MacIntel,11.49425287,,,space,3.15,0,3,3,47,1,プミ　ピク　ドキ　ピポ,,,CartoonStims/boxer_punch_doctor_r_no.jpg,audio/pumipikudokipipo.mp3,,,,,,,,,,,,,,,,,,,,,,,,,,,,,,,,,,,,,,,,,,,,,,,,,,,,,,,,,,,,,,,,,,,,,
,,,,,,,,,R_2uWhJofEioeTrbT,2022-09-13_22h11.28.897,jpn_C03,2022.1.2,MacIntel,11.49425287,,,space,3.032,0,4,4,40,1,プミ　ピク　ホレト　シド,,,CartoonStims/chef_punch_artist_r_no.jpg,audio/pumipikuhoretosido.mp3,,,,,,,,,,,,,,,,,,,,,,,,,,,,,,,,,,,,,,,,,,,,,,,,,,,,,,,,,,,,,,,,,,,,,
,,,,,,,,,R_2uWhJofEioeTrbT,2022-09-13_22h11.28.897,jpn_C03,2022.1.2,MacIntel,11.49425287,,,space,2.388,0,5,5,35,1,パツ　ピク　ドキ　ムク,,,CartoonStims/boxer_shoot_cowboy_r_no.jpg,audio/patsupikudokimuku.mp3,,,,,,,,,,,,,,,,,,,,,,,,,,,,,,,,,,,,,,,,,,,,,,,,,,,,,,,,,,,,,,,,,,,,,
,,,,,,,,,R_2uWhJofEioeTrbT,2022-09-13_22h11.28.897,jpn_C03,2022.1.2,MacIntel,11.49425287,,,space,2.572,0,6,6,2,1,セル　ピク　ルピン　ホレト,,,CartoonStims/burglar_kick_chef_r_no.jpg,audio/serupikulupinhoreto.mp3,,,,,,,,,,,,,,,,,,,,,,,,,,,,,,,,,,,,,,,,,,,,,,,,,,,,,,,,,,,,,,,,,,,,,
,,,,,,,,,R_2uWhJofEioeTrbT,2022-09-13_22h11.28.897,jpn_C03,2022.1.2,MacIntel,11.49425287,,,space,2.407,0,7,7,15,1,ピク　トマ　ルピン　ピポ,,,CartoonStims/burglar_point_doctor_r_no.jpg,audio/pikutomalupinpipo.mp3,,,,,,,,,,,,,,,,,,,,,,,,,,,,,,,,,,,,,,,,,,,,,,,,,,,,,,,,,,,,,,,,,,,,,
,,,,,,,,,R_2uWhJofEioeTrbT,2022-09-13_22h11.28.897,jpn_C03,2022.1.2,MacIntel,11.49425287,,,space,2.579,0,8,8,32,1,パツ　ピク　ピポ　ルピン,,,CartoonStims/doctor_shoot_burglar_r_no.jpg,audio/patsupikupipolupin.mp3,,,,,,,,,,,,,,,,,,,,,,,,,,,,,,,,,,,,,,,,,,,,,,,,,,,,,,,,,,,,,,,,,,,,,
,,,,,,,,,R_2uWhJofEioeTrbT,2022-09-13_22h11.28.897,jpn_C03,2022.1.2,MacIntel,11.49425287,,,space,2.705,0,9,9,9,1,セル　ピク　ピポ　シド,,,CartoonStims/doctor_kick_artist_r_no.jpg,audio/serupikupiposido.mp3,,,,,,,,,,,,,,,,,,,,,,,,,,,,,,,,,,,,,,,,,,,,,,,,,,,,,,,,,,,,,,,,,,,,,
,,,,,,,,,R_2uWhJofEioeTrbT,2022-09-13_22h11.28.897,jpn_C03,2022.1.2,MacIntel,11.49425287,,,space,12.154,0,10,10,8,1,ピク　セル　ピポ　ドキ,,,CartoonStims/doctor_kick_boxer_r_no.jpg,audio/pikuserupipodoki.mp3,,,,,,,,,,,,,,,,,,,,,,,,,,,,,,,,,,,,,,,,,,,,,,,,,,,,,,,,,,,,,,,,,,,,,
,,,,,,,,,R_2uWhJofEioeTrbT,2022-09-13_22h11.28.897,jpn_C03,2022.1.2,MacIntel,11.49425287,,,space,2.721,0,11,11,21,1,トマ　ピク　ピポ　ルピン,,,CartoonStims/doctor_point_burglar_r_no.jpg,audio/tomapikupipolupin.mp3,,,,,,,,,,,,,,,,,,,,,,,,,,,,,,,,,,,,,,,,,,,,,,,,,,,,,,,,,,,,,,,,,,,,,
,,,,,,,,,R_2uWhJofEioeTrbT,2022-09-13_22h11.28.897,jpn_C03,2022.1.2,MacIntel,11.49425287,,,space,2.052,0,12,12,24,1,パツ　ピク　シド　ムク,,,CartoonStims/artist_shoot_cowboy_r_no.jpg,audio/patsupikusidomuku.mp3,,,,,,,,,,,,,,,,,,,,,,,,,,,,,,,,,,,,,,,,,,,,,,,,,,,,,,,,,,,,,,,,,,,,,
,,,,,,,,,R_2uWhJofEioeTrbT,2022-09-13_22h11.28.897,jpn_C03,2022.1.2,MacIntel,11.49425287,,,space,2.412,0,13,13,10,1,セル　ピク　ドキ　シド,,,CartoonStims/boxer_kick_artist_r_no.jpg,audio/serupikudokisido.mp3,,,,,,,,,,,,,,,,,,,,,,,,,,,,,,,,,,,,,,,,,,,,,,,,,,,,,,,,,,,,,,,,,,,,,
,,,,,,,,,R_2uWhJofEioeTrbT,2022-09-13_22h11.28.897,jpn_C03,2022.1.2,MacIntel,11.49425287,,,space,2.197,0,14,14,45,1,プミ　ピク　ピポ　ムク,,,CartoonStims/doctor_punch_cowboy_r_no.jpg,audio/pumipikupipomuku.mp3,,,,,,,,,,,,,,,,,,,,,,,,,,,,,,,,,,,,,,,,,,,,,,,,,,,,,,,,,,,,,,,,,,,,,
,,,,,,,,,R_2uWhJofEioeTrbT,2022-09-13_22h11.28.897,jpn_C03,2022.1.2,MacIntel,11.49425287,,,space,4.622,0,15,15,0,1,ピク　セル　シド　ルピン,,,CartoonStims/artist_kick_burglar_r_no.jpg,audio/pikuserusidolupin.mp3,,,,,,,,,,,,,,,,,,,,,,,,,,,,,,,,,,,,,,,,,,,,,,,,,,,,,,,,,,,,,,,,,,,,,
,,,,,,,,,R_2uWhJofEioeTrbT,2022-09-13_22h11.28.897,jpn_C03,2022.1.2,MacIntel,11.49425287,,,space,6.655,0,16,16,1,1,セル　ピク　シド　ホレト,,,CartoonStims/artist_kick_chef_r_no.jpg,audio/serupikusidohoreto.mp3,,,,,,,,,,,,,,,,,,,,,,,,,,,,,,,,,,,,,,,,,,,,,,,,,,,,,,,,,,,,,,,,,,,,,
,,,,,,,,,R_2uWhJofEioeTrbT,2022-09-13_22h11.28.897,jpn_C03,2022.1.2,MacIntel,11.49425287,,,space,5.277,0,17,17,26,1,パツ　ピク　ルピン　ピポ,,,CartoonStims/burglar_shoot_doctor_r_no.jpg,audio/patsupikulupinpipo.mp3,,,,,,,,,,,,,,,,,,,,,,,,,,,,,,,,,,,,,,,,,,,,,,,,,,,,,,,,,,,,,,,,,,,,,
,,,,,,,,,R_2uWhJofEioeTrbT,2022-09-13_22h11.28.897,jpn_C03,2022.1.2,MacIntel,11.49425287,,,space,4.842,0,18,18,11,1,セル　ピク　ドキ　ルピン,,,CartoonStims/boxer_kick_burglar_r_no.jpg,audio/serupikudokilupin.mp3,,,,,,,,,,,,,,,,,,,,,,,,,,,,,,,,,,,,,,,,,,,,,,,,,,,,,,,,,,,,,,,,,,,,,
,,,,,,,,,R_2uWhJofEioeTrbT,2022-09-13_22h11.28.897,jpn_C03,2022.1.2,MacIntel,11.49425287,,,space,3.684,0,19,19,17,1,トマ　ピク　ホレト　ドキ,,,CartoonStims/chef_point_boxer_r_no.jpg,audio/tomapikuhoretodoki.mp3,,,,,,,,,,,,,,,,,,,,,,,,,,,,,,,,,,,,,,,,,,,,,,,,,,,,,,,,,,,,,,,,,,,,,
,,,,,,,,,R_2uWhJofEioeTrbT,2022-09-13_22h11.28.897,jpn_C03,2022.1.2,MacIntel,11.49425287,,,space,4.071,0,20,20,5,1,セル　ピク　ホレト　ピポ,,,CartoonStims/chef_kick_doctor_r_no.jpg,audio/serupikuhoretopipo.mp3,,,,,,,,,,,,,,,,,,,,,,,,,,,,,,,,,,,,,,,,,,,,,,,,,,,,,,,,,,,,,,,,,,,,,
,,,,,,,,,R_2uWhJofEioeTrbT,2022-09-13_22h11.28.897,jpn_C03,2022.1.2,MacIntel,11.49425287,,,space,2.518,0,21,21,20,1,トマ　ピク　ピポ　シド,,,CartoonStims/doctor_point_artist_r_no.jpg,audio/tomapikupiposido.mp3,,,,,,,,,,,,,,,,,,,,,,,,,,,,,,,,,,,,,,,,,,,,,,,,,,,,,,,,,,,,,,,,,,,,,
,,,,,,,,,R_2uWhJofEioeTrbT,2022-09-13_22h11.28.897,jpn_C03,2022.1.2,MacIntel,11.49425287,,,space,5.517,0,22,22,44,1,ピク　プミ　ピポ　ホレト,,,CartoonStims/doctor_punch_chef_r_no.jpg,audio/pikupumipipohoreto.mp3,,,,,,,,,,,,,,,,,,,,,,,,,,,,,,,,,,,,,,,,,,,,,,,,,,,,,,,,,,,,,,,,,,,,,
,,,,,,,,,R_2uWhJofEioeTrbT,2022-09-13_22h11.28.897,jpn_C03,2022.1.2,MacIntel,11.49425287,,,space,2.774,0,23,23,4,1,ピク　セル　ホレト　ムク,,,CartoonStims/chef_kick_cowboy_r_no.jpg,audio/pikuseruhoretomuku.mp3,,,,,,,,,,,,,,,,,,,,,,,,,,,,,,,,,,,,,,,,,,,,,,,,,,,,,,,,,,,,,,,,,,,,,
,,,,,,,,,R_2uWhJofEioeTrbT,2022-09-13_22h11.28.897,jpn_C03,2022.1.2,MacIntel,11.49425287,,,space,7.862,0,24,24,30,1,パツ　ピク　ムク　シド,,,CartoonStims/cowboy_shoot_artist_r_no.jpg,audio/patsupikumukusido.mp3,,,,,,,,,,,,,,,,,,,,,,,,,,,,,,,,,,,,,,,,,,,,,,,,,,,,,,,,,,,,,,,,,,,,,
,,,,,,,,,R_2uWhJofEioeTrbT,2022-09-13_22h11.28.897,jpn_C03,2022.1.2,MacIntel,11.49425287,,,space,8.908,0,25,25,28,1,パツ　ピク　ホレト　ドキ,,,CartoonStims/chef_shoot_boxer_r_no.jpg,audio/patsupikuhoretodoki.mp3,,,,,,,,,,,,,,,,,,,,,,,,,,,,,,,,,,,,,,,,,,,,,,,,,,,,,,,,,,,,,,,,,,,,,
,,,,,,,,,R_2uWhJofEioeTrbT,2022-09-13_22h11.28.897,jpn_C03,2022.1.2,MacIntel,11.49425287,,,space,3.158,0,26,26,38,1,プミ　ピク　ルピン　ドキ,,,CartoonStims/burglar_punch_boxer_r_no.jpg,audio/pumipikulupindoki.mp3,,,,,,,,,,,,,,,,,,,,,,,,,,,,,,,,,,,,,,,,,,,,,,,,,,,,,,,,,,,,,,,,,,,,,
,,,,,,,,,R_2uWhJofEioeTrbT,2022-09-13_22h11.28.897,jpn_C03,2022.1.2,MacIntel,11.49425287,,,space,4.55,0,27,27,37,1,プミ　ピク　シド　ドキ,,,CartoonStims/artist_punch_boxer_r_no.jpg,audio/pumipikusidodoki.mp3,,,,,,,,,,,,,,,,,,,,,,,,,,,,,,,,,,,,,,,,,,,,,,,,,,,,,,,,,,,,,,,,,,,,,
,,,,,,,,,R_2uWhJofEioeTrbT,2022-09-13_22h11.28.897,jpn_C03,2022.1.2,MacIntel,11.49425287,,,space,4.517,0,28,28,3,1,セル　ピク　ルピン　ムク,,,CartoonStims/burglar_kick_cowboy_r_no.jpg,audio/serupikulupinmuku.mp3,,,,,,,,,,,,,,,,,,,,,,,,,,,,,,,,,,,,,,,,,,,,,,,,,,,,,,,,,,,,,,,,,,,,,
,,,,,,,,,R_2uWhJofEioeTrbT,2022-09-13_22h11.28.897,jpn_C03,2022.1.2,MacIntel,11.49425287,,,space,4.339,0,29,29,46,1,ピク　プミ　ドキ　ムク,,,CartoonStims/boxer_punch_cowboy_r_no.jpg,audio/pikupumidokimuku.mp3,,,,,,,,,,,,,,,,,,,,,,,,,,,,,,,,,,,,,,,,,,,,,,,,,,,,,,,,,,,,,,,,,,,,,
,,,,,,,,,R_2uWhJofEioeTrbT,2022-09-13_22h11.28.897,jpn_C03,2022.1.2,MacIntel,11.49425287,,,space,2.699,0,30,30,22,1,トマ　ピク　ドキ　ルピン,,,CartoonStims/boxer_point_burglar_r_no.jpg,audio/tomapikudokilupin.mp3,,,,,,,,,,,,,,,,,,,,,,,,,,,,,,,,,,,,,,,,,,,,,,,,,,,,,,,,,,,,,,,,,,,,,
,,,,,,,,,R_2uWhJofEioeTrbT,2022-09-13_22h11.28.897,jpn_C03,2022.1.2,MacIntel,11.49425287,,,space,8.453,0,31,31,6,1,セル　ピク　ムク　ピポ,,,CartoonStims/cowboy_kick_doctor_r_no.jpg,audio/serupikumukupipo.mp3,,,,,,,,,,,,,,,,,,,,,,,,,,,,,,,,,,,,,,,,,,,,,,,,,,,,,,,,,,,,,,,,,,,,,
,,,,,,,,,R_2uWhJofEioeTrbT,2022-09-13_22h11.28.897,jpn_C03,2022.1.2,MacIntel,11.49425287,,,space,5.249,0,32,32,33,1,パツ　ピク　ピポ　ホレト,,,CartoonStims/doctor_shoot_chef_r_no.jpg,audio/patsupikupipohoreto.mp3,,,,,,,,,,,,,,,,,,,,,,,,,,,,,,,,,,,,,,,,,,,,,,,,,,,,,,,,,,,,,,,,,,,,,
,,,,,,,,,R_2uWhJofEioeTrbT,2022-09-13_22h11.28.897,jpn_C03,2022.1.2,MacIntel,11.49425287,,,space,4.405,0,33,33,7,1,セル　ピク　ムク　ドキ,,,CartoonStims/cowboy_kick_boxer_r_no.jpg,audio/serupikumukudoki.mp3,,,,,,,,,,,,,,,,,,,,,,,,,,,,,,,,,,,,,,,,,,,,,,,,,,,,,,,,,,,,,,,,,,,,,
,,,,,,,,,R_2uWhJofEioeTrbT,2022-09-13_22h11.28.897,jpn_C03,2022.1.2,MacIntel,11.49425287,,,space,4.169,0,34,34,23,1,ピク　トマ　ドキ　ホレト,,,CartoonStims/boxer_point_chef_r_no.jpg,audio/pikutomadokihoreto.mp3,,,,,,,,,,,,,,,,,,,,,,,,,,,,,,,,,,,,,,,,,,,,,,,,,,,,,,,,,,,,,,,,,,,,,
,,,,,,,,,R_2uWhJofEioeTrbT,2022-09-13_22h11.28.897,jpn_C03,2022.1.2,MacIntel,11.49425287,,,space,5,0,35,35,18,1,トマ　ピク　ムク　ドキ,,,CartoonStims/cowboy_point_boxer_r_no.jpg,audio/tomapikumukudoki.mp3,,,,,,,,,,,,,,,,,,,,,,,,,,,,,,,,,,,,,,,,,,,,,,,,,,,,,,,,,,,,,,,,,,,,,
,,,,,,,,,R_2uWhJofEioeTrbT,2022-09-13_22h11.28.897,jpn_C03,2022.1.2,MacIntel,11.49425287,,,space,3.253,0,36,36,19,1,ピク　トマ　ムク　シド,,,CartoonStims/cowboy_point_artist_r_no.jpg,audio/pikutomamukusido.mp3,,,,,,,,,,,,,,,,,,,,,,,,,,,,,,,,,,,,,,,,,,,,,,,,,,,,,,,,,,,,,,,,,,,,,
,,,,,,,,,R_2uWhJofEioeTrbT,2022-09-13_22h11.28.897,jpn_C03,2022.1.2,MacIntel,11.49425287,,,space,2.883,0,37,37,14,1,トマ　ピク　ルピン　ムク,,,CartoonStims/burglar_point_cowboy_r_no.jpg,audio/tomapikulupinmuku.mp3,,,,,,,,,,,,,,,,,,,,,,,,,,,,,,,,,,,,,,,,,,,,,,,,,,,,,,,,,,,,,,,,,,,,,
,,,,,,,,,R_2uWhJofEioeTrbT,2022-09-13_22h11.28.897,jpn_C03,2022.1.2,MacIntel,11.49425287,,,space,4.372,0,38,38,42,1,ピク　プミ　ムク　ルピン,,,CartoonStims/cowboy_punch_burglar_r_no.jpg,audio/pikupumimukulupin.mp3,,,,,,,,,,,,,,,,,,,,,,,,,,,,,,,,,,,,,,,,,,,,,,,,,,,,,,,,,,,,,,,,,,,,,
,,,,,,,,,R_2uWhJofEioeTrbT,2022-09-13_22h11.28.897,jpn_C03,2022.1.2,MacIntel,11.49425287,,,space,5.896,0,39,39,16,1,トマ　ピク　ホレト　ピポ,,,CartoonStims/chef_point_doctor_r_no.jpg,audio/tomapikuhoretopipo.mp3,,,,,,,,,,,,,,,,,,,,,,,,,,,,,,,,,,,,,,,,,,,,,,,,,,,,,,,,,,,,,,,,,,,,,
,,,,,,,,,R_2uWhJofEioeTrbT,2022-09-13_22h11.28.897,jpn_C03,2022.1.2,MacIntel,11.49425287,,,space,3.978,0,40,40,41,1,プミ　ピク　ホレト　ルピン,,,CartoonStims/chef_punch_burglar_r_no.jpg,audio/pumipikuhoretolupin.mp3,,,,,,,,,,,,,,,,,,,,,,,,,,,,,,,,,,,,,,,,,,,,,,,,,,,,,,,,,,,,,,,,,,,,,
,,,,,,,,,R_2uWhJofEioeTrbT,2022-09-13_22h11.28.897,jpn_C03,2022.1.2,MacIntel,11.49425287,,,space,4.928,0,41,41,39,1,プミ　ピク　ルピン　シド,,,CartoonStims/burglar_punch_artist_r_no.jpg,audio/pumipikulupinsido.mp3,,,,,,,,,,,,,,,,,,,,,,,,,,,,,,,,,,,,,,,,,,,,,,,,,,,,,,,,,,,,,,,,,,,,,
,,,,,,,,,R_2uWhJofEioeTrbT,2022-09-13_22h11.28.897,jpn_C03,2022.1.2,MacIntel,11.49425287,,,space,3.887,0,42,42,43,1,プミ　ピク　ムク　ホレト,,,CartoonStims/cowboy_punch_chef_r_no.jpg,audio/pumipikumukuhoreto.mp3,,,,,,,,,,,,,,,,,,,,,,,,,,,,,,,,,,,,,,,,,,,,,,,,,,,,,,,,,,,,,,,,,,,,,
,,,,,,,,,R_2uWhJofEioeTrbT,2022-09-13_22h11.28.897,jpn_C03,2022.1.2,MacIntel,11.49425287,,,space,4.338,0,43,43,12,1,トマ　ピク　シド　ホレト,,,CartoonStims/artist_point_chef_r_no.jpg,audio/tomapikusidohoreto.mp3,,,,,,,,,,,,,,,,,,,,,,,,,,,,,,,,,,,,,,,,,,,,,,,,,,,,,,,,,,,,,,,,,,,,,
,,,,,,,,,R_2uWhJofEioeTrbT,2022-09-13_22h11.28.897,jpn_C03,2022.1.2,MacIntel,11.49425287,,,space,2.301,0,44,44,34,1,パツ　ピク　ドキ　ホレト,,,CartoonStims/boxer_shoot_chef_r_no.jpg,audio/patsupikudokihoreto.mp3,,,,,,,,,,,,,,,,,,,,,,,,,,,,,,,,,,,,,,,,,,,,,,,,,,,,,,,,,,,,,,,,,,,,,
,,,,,,,,,R_2uWhJofEioeTrbT,2022-09-13_22h11.28.897,jpn_C03,2022.1.2,MacIntel,11.49425287,,,space,2.578,0,45,45,27,1,ピク　パツ　ルピン　ドキ,,,CartoonStims/burglar_shoot_boxer_r_no.jpg,audio/pikupatsulupindoki.mp3,,,,,,,,,,,,,,,,,,,,,,,,,,,,,,,,,,,,,,,,,,,,,,,,,,,,,,,,,,,,,,,,,,,,,
,,,,,,,,,R_2uWhJofEioeTrbT,2022-09-13_22h11.28.897,jpn_C03,2022.1.2,MacIntel,11.49425287,,,space,4.261,0,46,46,31,1,パツ　ピク　ムク　ルピン,,,CartoonStims/cowboy_shoot_burglar_r_no.jpg,audio/patsupikumukulupin.mp3,,,,,,,,,,,,,,,,,,,,,,,,,,,,,,,,,,,,,,,,,,,,,,,,,,,,,,,,,,,,,,,,,,,,,
,,,,,,,,,R_2uWhJofEioeTrbT,2022-09-13_22h11.28.897,jpn_C03,2022.1.2,MacIntel,11.49425287,,,space,2.726,0,47,47,36,1,プミ　ピク　シド　ピポ,,,CartoonStims/artist_punch_doctor_r_no.jpg,audio/pumipikusidopipo.mp3,,,,,,,,,,,,,,,,,,,,,,,,,,,,,,,,,,,,,,,,,,,,,,,,,,,,,,,,,,,,,,,,,,,,,
,,,,,,,,,R_2uWhJofEioeTrbT,2022-09-13_22h11.28.897,jpn_C03,2022.1.2,MacIntel,11.49425287,,,,,,,,,,,,,,,space,0.195,right,0,3.431,,,,,,,,,,,,,,,,,,,,,,,,,,,,,,,,,,,,,,,,,,,,,,,,,,,,,,,,,0,0,0,0,1,,,
,,,,,,,,,R_2uWhJofEioeTrbT,2022-09-13_22h11.28.897,jpn_C03,2022.1.2,MacIntel,11.49425287,,,,,,,,,,,,,,,,,,,,,,,,,0,0,0,10,1,CartoonStims/doctor_punch_cowboy_r.jpg,ピク　パツ　ピポ　ムク,CartoonStims/doctor_shoot_cowboy_r.jpg,left,CartoonStims/doctor_punch_cowboy_r.jpg,audio/pikupatsupipomuku.mp3,"残念！ こちらが正しい画像です。

否定文は起きていないことを示しているのを思い出してください。",,,,,,,,,,,,,,,,,,,,,,,,,,,,,,,,,,,,,,,,,,,,,,,
,,,,,,,,,R_2uWhJofEioeTrbT,2022-09-13_22h11.28.897,jpn_C03,2022.1.2,MacIntel,11.49425287,,,,,,,,,,,,,,,,,left,1,8.021,0,0,0,0,1,,,,,,,,,,,,,,,,,,,,,,,,,,,,,,,,,,,,,,,,,,,,,,,,,,,,,,,,,,,
,,,,,,,,,R_2uWhJofEioeTrbT,2022-09-13_22h11.28.897,jpn_C03,2022.1.2,MacIntel,11.49425287,,,,,,,,,,,,,,,,,,,,,,,,,0,1,1,0,1,CartoonStims/artist_shoot_burglar_r.jpg,ピク　プミ　シド　ルピン,CartoonStims/artist_punch_burglar_r.jpg,left,CartoonStims/artist_shoot_burglar_r.jpg,audio/pikupumisidolupin.mp3,"残念！ こちらが正しい画像です。

否定文は起きていないことを示しているのを思い出してください。",,,,,,,,,,,,,,,,,,,,,,,,,,,,,,,,,,,,,,,,,,,,,,,
,,,,,,,,,R_2uWhJofEioeTrbT,2022-09-13_22h11.28.897,jpn_C03,2022.1.2,MacIntel,11.49425287,,,,,,,,,,,,,,,,,right,1,1.997,,,,,,,,,,,,,,,,,,0,0,0,0,1,,,,,,,,,,,,,,,,,,,,,,,,,,,,,,,,,,,,,,,,,,
,,,,,,,,,R_2uWhJofEioeTrbT,2022-09-13_22h11.28.897,jpn_C03,2022.1.2,MacIntel,11.49425287,,,,,,,,,,,,,,,,,,,,,,,,,0,2,2,7,1,CartoonStims/cowboy_point_chef_r.jpg,ピク　トマ　ムク　ホレト,CartoonStims/cowboy_kick_chef_r.jpg,right,CartoonStims/cowboy_kick_chef_r.jpg,audio/pikutomamukuhoreto.mp3,"残念！ こちらが正しい画像です。

否定文は起きていないことを示しているのを思い出してください。",,,,,,,,,,,,,,,,,,,,,,,,,,,,,,,,,,,,,,,,,,,,,,,
,,,,,,,,,R_2uWhJofEioeTrbT,2022-09-13_22h11.28.897,jpn_C03,2022.1.2,MacIntel,11.49425287,,,,,,,,,,,,,,,,,left,1,0.922,0,0,0,0,1,,,,,,,,,,,,,,,,,,,,,,,,,,,,,,,,,,,,,,,,,,,,,,,,,,,,,,,,,,,
,,,,,,,,,R_2uWhJofEioeTrbT,2022-09-13_22h11.28.897,jpn_C03,2022.1.2,MacIntel,11.49425287,,,,,,,,,,,,,,,,,,,,,,,,,0,3,3,2,1,CartoonStims/doctor_point_boxer_r.jpg,プミ　ピク　ピポ　ドキ,CartoonStims/doctor_punch_boxer_r.jpg,left,CartoonStims/doctor_point_boxer_r.jpg,audio/pumipikupipodoki.mp3,"残念！ こちらが正しい画像です。

否定文は起きていないことを示しているのを思い出してください。",,,,,,,,,,,,,,,,,,,,,,,,,,,,,,,,,,,,,,,,,,,,,,,
,,,,,,,,,R_2uWhJofEioeTrbT,2022-09-13_22h11.28.897,jpn_C03,2022.1.2,MacIntel,11.49425287,,,,,,,,,,,,,,,,,left,1,6.314,0,0,0,0,1,,,,,,,,,,,,,,,,,,,,,,,,,,,,,,,,,,,,,,,,,,,,,,,,,,,,,,,,,,,
,,,,,,,,,R_2uWhJofEioeTrbT,2022-09-13_22h11.28.897,jpn_C03,2022.1.2,MacIntel,11.49425287,,,,,,,,,,,,,,,,,,,,,,,,,0,4,4,8,1,CartoonStims/burglar_punch_artist_r.jpg,トマ　ピク　ルピン　シド,CartoonStims/burglar_point_artist_r.jpg,left,CartoonStims/burglar_punch_artist_r.jpg,audio/tomapikulupinsido.mp3,"残念！ こちらが正しい画像です。

否定文は起きていないことを示しているのを思い出してください。",,,,,,,,,,,,,,,,,,,,,,,,,,,,,,,,,,,,,,,,,,,,,,,
,,,,,,,,,R_2uWhJofEioeTrbT,2022-09-13_22h11.28.897,jpn_C03,2022.1.2,MacIntel,11.49425287,,,,,,,,,,,,,,,,,left,1,2.248,0,0,0,0,1,,,,,,,,,,,,,,,,,,,,,,,,,,,,,,,,,,,,,,,,,,,,,,,,,,,,,,,,,,,
,,,,,,,,,R_2uWhJofEioeTrbT,2022-09-13_22h11.28.897,jpn_C03,2022.1.2,MacIntel,11.49425287,,,,,,,,,,,,,,,,,,,,,,,,,0,5,5,6,1,CartoonStims/artist_shoot_boxer_r.jpg,トマ　ピク　シド　ドキ,CartoonStims/artist_point_boxer_r.jpg,left,CartoonStims/artist_shoot_boxer_r.jpg,audio/tomapikusidodoki.mp3,"残念！ こちらが正しい画像です。

否定文は起きていないことを示しているのを思い出してください。",,,,,,,,,,,,,,,,,,,,,,,,,,,,,,,,,,,,,,,,,,,,,,,
,,,,,,,,,R_2uWhJofEioeTrbT,2022-09-13_22h11.28.897,jpn_C03,2022.1.2,MacIntel,11.49425287,,,,,,,,,,,,,,,,,right,1,1.047,,,,,,,,,,,,,,,,,,0,0,0,0,1,,,,,,,,,,,,,,,,,,,,,,,,,,,,,,,,,,,,,,,,,,
,,,,,,,,,R_2uWhJofEioeTrbT,2022-09-13_22h11.28.897,jpn_C03,2022.1.2,MacIntel,11.49425287,,,,,,,,,,,,,,,,,,,,,,,,,0,6,6,5,1,CartoonStims/boxer_kick_cowboy_r.jpg,セル　ピク　ドキ　ムク,CartoonStims/boxer_punch_cowboy_r.jpg,right,CartoonStims/boxer_punch_cowboy_r.jpg,audio/serupikudokimuku.mp3,"残念！ こちらが正しい画像です。

否定文は起きていないことを示しているのを思い出してください。",,,,,,,,,,,,,,,,,,,,,,,,,,,,,,,,,,,,,,,,,,,,,,,
,,,,,,,,,R_2uWhJofEioeTrbT,2022-09-13_22h11.28.897,jpn_C03,2022.1.2,MacIntel,11.49425287,,,,,,,,,,,,,,,,,right,1,2.293,,,,,,,,,,,,,,,,,,0,0,0,0,1,,,,,,,,,,,,,,,,,,,,,,,,,,,,,,,,,,,,,,,,,,
,,,,,,,,,R_2uWhJofEioeTrbT,2022-09-13_22h11.28.897,jpn_C03,2022.1.2,MacIntel,11.49425287,,,,,,,,,,,,,,,,,,,,,,,,,0,7,7,1,1,CartoonStims/chef_punch_cowboy_r.jpg,プミ　ピク　ホレト　ムク,CartoonStims/chef_kick_cowboy_r.jpg,right,CartoonStims/chef_kick_cowboy_r.jpg,audio/pumipikuhoretomuku.mp3,"残念！ こちらが正しい画像です。

否定文は起きていないことを示しているのを思い出してください。",,,,,,,,,,,,,,,,,,,,,,,,,,,,,,,,,,,,,,,,,,,,,,,
,,,,,,,,,R_2uWhJofEioeTrbT,2022-09-13_22h11.28.897,jpn_C03,2022.1.2,MacIntel,11.49425287,,,,,,,,,,,,,,,,,right,1,2.353,,,,,,,,,,,,,,,,,,0,0,0,0,1,,,,,,,,,,,,,,,,,,,,,,,,,,,,,,,,,,,,,,,,,,
,,,,,,,,,R_2uWhJofEioeTrbT,2022-09-13_22h11.28.897,jpn_C03,2022.1.2,MacIntel,11.49425287,,,,,,,,,,,,,,,,,,,,,,,,,0,8,8,3,1,CartoonStims/chef_kick_artist_r.jpg,ピク　セル　ホレト　シド,CartoonStims/chef_point_artist_r.jpg,right,CartoonStims/chef_point_artist_r.jpg,audio/pikuseruhoretosido.mp3,"残念！ こちらが正しい画像です。

否定文は起きていないことを示しているのを思い出してください。",,,,,,,,,,,,,,,,,,,,,,,,,,,,,,,,,,,,,,,,,,,,,,,
,,,,,,,,,R_2uWhJofEioeTrbT,2022-09-13_22h11.28.897,jpn_C03,2022.1.2,MacIntel,11.49425287,,,,,,,,,,,,,,,,,left,1,6.921,0,0,0,0,1,,,,,,,,,,,,,,,,,,,,,,,,,,,,,,,,,,,,,,,,,,,,,,,,,,,,,,,,,,,
,,,,,,,,,R_2uWhJofEioeTrbT,2022-09-13_22h11.28.897,jpn_C03,2022.1.2,MacIntel,11.49425287,,,,,,,,,,,,,,,,,,,,,,,,,0,9,9,4,1,CartoonStims/burglar_shoot_doctor_r.jpg,セル　ピク　ルピン　ピポ,CartoonStims/burglar_kick_doctor_r.jpg,left,CartoonStims/burglar_shoot_doctor_r.jpg,audio/serupikulupinpipo.mp3,"残念！ こちらが正しい画像です。

否定文は起きていないことを示しているのを思い出してください。",,,,,,,,,,,,,,,,,,,,,,,,,,,,,,,,,,,,,,,,,,,,,,,
,,,,,,,,,R_2uWhJofEioeTrbT,2022-09-13_22h11.28.897,jpn_C03,2022.1.2,MacIntel,11.49425287,,,,,,,,,,,,,,,,,right,1,2.114,,,,,,,,,,,,,,,,,,0,0,0,0,1,,,,,,,,,,,,,,,,,,,,,,,,,,,,,,,,,,,,,,,,,,
,,,,,,,,,R_2uWhJofEioeTrbT,2022-09-13_22h11.28.897,jpn_C03,2022.1.2,MacIntel,11.49425287,,,,,,,,,,,,,,,,,,,,,,,,,0,10,10,9,1,CartoonStims/boxer_shoot_doctor_r.jpg,パツ　ピク　ドキ　ピポ,CartoonStims/boxer_point_doctor_r.jpg,right,CartoonStims/boxer_point_doctor_r.jpg,audio/patsupikudokipipo.mp3,"残念！ こちらが正しい画像です。

否定文は起きていないことを示しているのを思い出してください。",,,,,,,,,,,,,,,,,,,,,,,,,,,,,,,,,,,,,,,,,,,,,,,
,,,,,,,,,R_2uWhJofEioeTrbT,2022-09-13_22h11.28.897,jpn_C03,2022.1.2,MacIntel,11.49425287,,,,,,,,,,,,,,,,,right,1,1.27,,,,,,,,,,,,,,,,,,0,0,0,0,1,,,,,,,,,,,,,,,,,,,,,,,,,,,,,,,,,,,,,,,,,,
,,,,,,,,,R_2uWhJofEioeTrbT,2022-09-13_22h11.28.897,jpn_C03,2022.1.2,MacIntel,11.49425287,,,,,,,,,,,,,,,,,,,,,,,,,0,11,11,11,1,CartoonStims/chef_shoot_burglar_r.jpg,パツ　ピク　ホレト　ルピン,CartoonStims/chef_kick_burglar_r.jpg,right,CartoonStims/chef_kick_burglar_r.jpg,audio/patsupikuhoretolupin.mp3,"残念！ こちらが正しい画像です。

否定文は起きていないことを示しているのを思い出してください。",,,,,,,,,,,,,,,,,,,,,,,,,,,,,,,,,,,,,,,,,,,,,,,
,,,,,,,,,R_2uWhJofEioeTrbT,2022-09-13_22h11.28.897,jpn_C03,2022.1.2,MacIntel,11.49425287,,,,,,,,,,,,,CartoonStims/artist_point_boxer_r.jpg,,,,,,,,,,,,,,,,,,,,,,,,,,,,,space,3.763,プミ　ピク　シド　ドキ,right,33.148,,,,,,0,0,0,27,1,,,,,,,,,,,,,,,,,,,,,,,,,トマ　シド　ドキ,トマ　シド　ドキ,0
,,,,,,,,,R_2uWhJofEioeTrbT,2022-09-13_22h11.28.897,jpn_C03,2022.1.2,MacIntel,11.49425287,,,,,,,,,,,,,CartoonStims/boxer_point_artist_r_no.jpg,,,,,,,,,,,,,,,,,,,,,,,,,,,,,,,トマ　ピク　ドキ　シド,right,17.828,,,,,,0,1,1,11,1,,,,,,,,,,,,,,,,,,,,,,,,,ピク　トマ　ドキ　シド,トマ　ピク　ドキ　シド,1
,,,,,,,,,R_2uWhJofEioeTrbT,2022-09-13_22h11.28.897,jpn_C03,2022.1.2,MacIntel,11.49425287,,,,,,,,,,,,,CartoonStims/boxer_punch_artist_r.jpg,,,,,,,,,,,,,,,,,,,,,,,,,,,,,,,プミ　ドキ　シド,right,35.041,,,,,,0,2,2,35,1,,,,,,,,,,,,,,,,,,,,,,,,,プミ　ドキ　シド,プミ　ドキ　シド,0
,,,,,,,,,R_2uWhJofEioeTrbT,2022-09-13_22h11.28.897,jpn_C03,2022.1.2,MacIntel,11.49425287,,,,,,,,,,,,,CartoonStims/burglar_punch_doctor_r_no.jpg,,,,,,,,,,,,,,,,,,,,,,,,,,,,,,,パツ　ピク　ルピン　ピポ,right,15.958,,,,,,0,3,3,19,1,,,,,,,,,,,,,,,,,,,,,,,,,ピク　プミ　ルピン　ピポ,プミ　ピク　ルピン　ピポ,1
,,,,,,,,,R_2uWhJofEioeTrbT,2022-09-13_22h11.28.897,jpn_C03,2022.1.2,MacIntel,11.49425287,,,,,,,,,,,,,CartoonStims/cowboy_point_doctor_r_no.jpg,,,,,,,,,,,,,,,,,,,,,,,,,,,,,,,トマ　ピク　ムク　ピポ,right,12.829,,,,,,0,4,4,9,1,,,,,,,,,,,,,,,,,,,,,,,,,ピク　トマ　ムク　ピポ,トマ　ピク　ムク　ピポ,1
,,,,,,,,,R_2uWhJofEioeTrbT,2022-09-13_22h11.28.897,jpn_C03,2022.1.2,MacIntel,11.49425287,,,,,,,,,,,,,CartoonStims/artist_punch_cowboy_r_no.jpg,,,,,,,,,,,,,,,,,,,,,,,,,,,,,,,プミ　ピク　シド　ムク,right,15.388,,,,,,0,5,5,18,1,,,,,,,,,,,,,,,,,,,,,,,,,ピク　プミ　シド　ムク,プミ　ピク　シド　ムク,1
,,,,,,,,,R_2uWhJofEioeTrbT,2022-09-13_22h11.28.897,jpn_C03,2022.1.2,MacIntel,11.49425287,,,,,,,,,,,,,CartoonStims/doctor_punch_boxer_r.jpg,,,,,,,,,,,,,,,,,,,,,,,,,,,,,,,プミ　ピポ　ドキ,right,12.68,,,,,,0,6,6,34,1,,,,,,,,,,,,,,,,,,,,,,,,,プミ　ピポ　ドキ,プミ　ピポ　ドキ,0
,,,,,,,,,R_2uWhJofEioeTrbT,2022-09-13_22h11.28.897,jpn_C03,2022.1.2,MacIntel,11.49425287,,,,,,,,,,,,,CartoonStims/cowboy_punch_artist_r_no.jpg,,,,,,,,,,,,,,,,,,,,,,,,,,,,,,,ピク　プミ　ムク　シド,right,17.87,,,,,,0,7,7,21,1,,,,,,,,,,,,,,,,,,,,,,,,,ピク　プミ　ムク　シド,プミ　ピク　ムク　シド,1
,,,,,,,,,R_2uWhJofEioeTrbT,2022-09-13_22h11.28.897,jpn_C03,2022.1.2,MacIntel,11.49425287,,,,,,,,,,,,,CartoonStims/doctor_shoot_artist_r_no.jpg,,,,,,,,,,,,,,,,,,,,,,,,,,,,,,,パツ　プミ　ピポ　シド,right,15.818,,,,,,0,8,8,16,1,,,,,,,,,,,,,,,,,,,,,,,,,ピク　パツ　ピポ　シド,パツ　ピク　ピポ　シド,1
,,,,,,,,,R_2uWhJofEioeTrbT,2022-09-13_22h11.28.897,jpn_C03,2022.1.2,MacIntel,11.49425287,,,,,,,,,,,,,CartoonStims/burglar_shoot_chef_r.jpg,,,,,,,,,,,,,,,,,,,,,,,,,,,,,,,パツ　ルピン　ホレト,right,9.287,,,,,,0,9,9,30,1,,,,,,,,,,,,,,,,,,,,,,,,,パツ　ルピン　ホレト,パツ　ルピン　ホレト,0
,,,,,,,,,R_2uWhJofEioeTrbT,2022-09-13_22h11.28.897,jpn_C03,2022.1.2,MacIntel,11.49425287,,,,,,,,,,,,,CartoonStims/cowboy_shoot_doctor_r.jpg,,,,,,,,,,,,,,,,,,,,,,,,,,,,,,,パツ　ムク　ホレト,right,5.864,,,,,,0,10,10,32,1,,,,,,,,,,,,,,,,,,,,,,,,,パツ　ムク　ピポ,パツ　ムク　ピポ,0
,,,,,,,,,R_2uWhJofEioeTrbT,2022-09-13_22h11.28.897,jpn_C03,2022.1.2,MacIntel,11.49425287,,,,,,,,,,,,,CartoonStims/chef_kick_burglar_r_no.jpg,,,,,,,,,,,,,,,,,,,,,,,,,,,,,,,セル　ピク　ホレト　ルピン,right,19.697,,,,,,0,11,11,2,1,,,,,,,,,,,,,,,,,,,,,,,,,ピク　セル　ホレト　ルピン,セル　ピク　ホレト　ルピン,1
,,,,,,,,,R_2uWhJofEioeTrbT,2022-09-13_22h11.28.897,jpn_C03,2022.1.2,MacIntel,11.49425287,,,,,,,,,,,,,CartoonStims/cowboy_kick_burglar_r.jpg,,,,,,,,,,,,,,,,,,,,,,,,,,,,,,,セル　ムク　ルピン,right,8.408,,,,,,0,12,12,24,1,,,,,,,,,,,,,,,,,,,,,,,,,セル　ムク　ルピン,セル　ムク　ルピン,0
,,,,,,,,,R_2uWhJofEioeTrbT,2022-09-13_22h11.28.897,jpn_C03,2022.1.2,MacIntel,11.49425287,,,,,,,,,,,,,CartoonStims/artist_point_burglar_r_no.jpg,,,,,,,,,,,,,,,,,,,,,,,,,,,,,,,トマ　ピク　シド　ルピン,right,10.611,,,,,,0,13,13,6,1,,,,,,,,,,,,,,,,,,,,,,,,,ピク　トマ　シド　ルピン,トマ　ピク　シド　ルピン,1
,,,,,,,,,R_2uWhJofEioeTrbT,2022-09-13_22h11.28.897,jpn_C03,2022.1.2,MacIntel,11.49425287,,,,,,,,,,,,,CartoonStims/doctor_point_boxer_r_no.jpg,,,,,,,,,,,,,,,,,,,,,,,,,,,,,,,トマ　ピク　ピポ　ドキ,right,8.491,,,,,,0,14,14,10,1,,,,,,,,,,,,,,,,,,,,,,,,,ピク　トマ　ピポ　ドキ,トマ　ピク　ピポ　ドキ,1
,,,,,,,,,R_2uWhJofEioeTrbT,2022-09-13_22h11.28.897,jpn_C03,2022.1.2,MacIntel,11.49425287,,,,,,,,,,,,,CartoonStims/artist_shoot_chef_r_no.jpg,,,,,,,,,,,,,,,,,,,,,,,,,,,,,,,パツ　ピク　シド　ホレト,right,13.644,,,,,,0,15,15,12,1,,,,,,,,,,,,,,,,,,,,,,,,,ピク　パツ　シド　ホレト,パツ　ピク　シド　ホレト,1
,,,,,,,,,R_2uWhJofEioeTrbT,2022-09-13_22h11.28.897,jpn_C03,2022.1.2,MacIntel,11.49425287,,,,,,,,,,,,,CartoonStims/boxer_punch_chef_r_no.jpg,,,,,,,,,,,,,,,,,,,,,,,,,,,,,,,ピク　プミ　ドキ　ホレト,right,14.375,,,,,,0,16,16,23,1,,,,,,,,,,,,,,,,,,,,,,,,,ピク　プミ　ドキ　ホレト,プミ　ピク　ドキ　ホレト,1
,,,,,,,,,R_2uWhJofEioeTrbT,2022-09-13_22h11.28.897,jpn_C03,2022.1.2,MacIntel,11.49425287,,,,,,,,,,,,,CartoonStims/boxer_kick_cowboy_r.jpg,,,,,,,,,,,,,,,,,,,,,,,,,,,,,,,セル　ドキ　ムク,right,8.691,,,,,,0,17,17,26,1,,,,,,,,,,,,,,,,,,,,,,,,,セル　ドキ　ムク,セル　ドキ　ムク,0
,,,,,,,,,R_2uWhJofEioeTrbT,2022-09-13_22h11.28.897,jpn_C03,2022.1.2,MacIntel,11.49425287,,,,,,,,,,,,,CartoonStims/burglar_shoot_cowboy_r_no.jpg,,,,,,,,,,,,,,,,,,,,,,,,,,,,,,,パツ　ピク　ルピン　ムク,right,16.092,,,,,,0,18,18,13,1,,,,,,,,,,,,,,,,,,,,,,,,,ピク　パツ　ルピン　ムク,パツ　ピク　ルピン　ムク,1
,,,,,,,,,R_2uWhJofEioeTrbT,2022-09-13_22h11.28.897,jpn_C03,2022.1.2,MacIntel,11.49425287,,,,,,,,,,,,,CartoonStims/burglar_point_artist_r.jpg,,,,,,,,,,,,,,,,,,,,,,,,,,,,,,,トマ　ルピン　シド,right,6.247,,,,,,0,19,19,28,1,,,,,,,,,,,,,,,,,,,,,,,,,トマ　ルピン　シド,トマ　ルピン　シド,0
,,,,,,,,,R_2uWhJofEioeTrbT,2022-09-13_22h11.28.897,jpn_C03,2022.1.2,MacIntel,11.49425287,,,,,,,,,,,,,CartoonStims/chef_point_burglar_r.jpg,,,,,,,,,,,,,,,,,,,,,,,,,,,,,,,トマ　ホレト　ルピン,right,10,,,,,,0,20,20,29,1,,,,,,,,,,,,,,,,,,,,,,,,,トマ　ホレト　ルピン,トマ　ホレト　ルピン,0
,,,,,,,,,R_2uWhJofEioeTrbT,2022-09-13_22h11.28.897,jpn_C03,2022.1.2,MacIntel,11.49425287,,,,,,,,,,,,,CartoonStims/doctor_punch_burglar_r_no.jpg,,,,,,,,,,,,,,,,,,,,,,,,,,,,,,,プミ　ピク　ピポ　ルピン,right,29.923,,,,,,0,21,21,22,1,,,,,,,,,,,,,,,,,,,,,,,,,ピク　プミ　ピポ　ルピン,プミ　ピク　ピポ　ルピン,1
,,,,,,,,,R_2uWhJofEioeTrbT,2022-09-13_22h11.28.897,jpn_C03,2022.1.2,MacIntel,11.49425287,,,,,,,,,,,,,CartoonStims/chef_point_cowboy_r_no.jpg,,,,,,,,,,,,,,,,,,,,,,,,,,,,,,,トマ　ピク　ホレト　ムク,right,13.326,,,,,,0,22,22,8,1,,,,,,,,,,,,,,,,,,,,,,,,,ピク　トマ　ホレト　ムク,トマ　ピク　ホレト　ムク,1
,,,,,,,,,R_2uWhJofEioeTrbT,2022-09-13_22h11.28.897,jpn_C03,2022.1.2,MacIntel,11.49425287,,,,,,,,,,,,,CartoonStims/burglar_point_chef_r_no.jpg,,,,,,,,,,,,,,,,,,,,,,,,,,,,,,,トマ　ピク　ルピン　ホレト,right,14.176,,,,,,0,23,23,7,1,,,,,,,,,,,,,,,,,,,,,,,,,ピク　トマ　ルピン　ホレト,トマ　ピク　ルピン　ホレト,1
,,,,,,,,,R_2uWhJofEioeTrbT,2022-09-13_22h11.28.897,jpn_C03,2022.1.2,MacIntel,11.49425287,,,,,,,,,,,,,CartoonStims/chef_shoot_doctor_r_no.jpg,,,,,,,,,,,,,,,,,,,,,,,,,,,,,,,ピク　パツ　ホレト　ピポ,right,117.713,,,,,,0,24,24,14,1,,,,,,,,,,,,,,,,,,,,,,,,,ピク　パツ　ホレト　ピポ,パツ　ピク　ホレト　ピポ,1
,,,,,,,,,R_2uWhJofEioeTrbT,2022-09-13_22h11.28.897,jpn_C03,2022.1.2,MacIntel,11.49425287,,,,,,,,,,,,,CartoonStims/boxer_kick_doctor_r_no.jpg,,,,,,,,,,,,,,,,,,,,,,,,,,,,,,,セル　ピク　ドキ　ピポ,right,11.756,,,,,,0,25,25,5,1,,,,,,,,,,,,,,,,,,,,,,,,,ピク　セル　ドキ　ピポ,セル　ピク　ドキ　ピポ,1
,,,,,,,,,R_2uWhJofEioeTrbT,2022-09-13_22h11.28.897,jpn_C03,2022.1.2,MacIntel,11.49425287,,,,,,,,,,,,,CartoonStims/chef_shoot_cowboy_r.jpg,,,,,,,,,,,,,,,,,,,,,,,,,,,,,,,パツ　ホレト　ムク,right,6.251,,,,,,0,26,26,31,1,,,,,,,,,,,,,,,,,,,,,,,,,パツ　ホレト　ムク,パツ　ホレト　ムク,0
,,,,,,,,,R_2uWhJofEioeTrbT,2022-09-13_22h11.28.897,jpn_C03,2022.1.2,MacIntel,11.49425287,,,,,,,,,,,,,CartoonStims/artist_kick_boxer_r_no.jpg,,,,,,,,,,,,,,,,,,,,,,,,,,,,,,,ピク　セル　シド　ドキ,right,12.774,,,,,,0,27,27,0,1,,,,,,,,,,,,,,,,,,,,,,,,,ピク　セル　シド　ドキ,セル　ピク　シド　ドキ,1
,,,,,,,,,R_2uWhJofEioeTrbT,2022-09-13_22h11.28.897,jpn_C03,2022.1.2,MacIntel,11.49425287,,,,,,,,,,,,,CartoonStims/artist_punch_burglar_r.jpg,,,,,,,,,,,,,,,,,,,,,,,,,,,,,,,プミ　シド　ルピン,right,11.757,,,,,,0,28,28,33,1,,,,,,,,,,,,,,,,,,,,,,,,,プミ　シド　ルピン,プミ　シド　ルピン,0
,,,,,,,,,R_2uWhJofEioeTrbT,2022-09-13_22h11.28.897,jpn_C03,2022.1.2,MacIntel,11.49425287,,,,,,,,,,,,,CartoonStims/cowboy_kick_chef_r_no.jpg,,,,,,,,,,,,,,,,,,,,,,,,,,,,,,,セル　ピク　ムク　ホレト,right,13.65,,,,,,0,29,29,3,1,,,,,,,,,,,,,,,,,,,,,,,,,ピク　セル　ムク　ホレト,セル　ピク　ムク　ホレト,1
,,,,,,,,,R_2uWhJofEioeTrbT,2022-09-13_22h11.28.897,jpn_C03,2022.1.2,MacIntel,11.49425287,,,,,,,,,,,,,CartoonStims/chef_punch_boxer_r_no.jpg,,,,,,,,,,,,,,,,,,,,,,,,,,,,,,,ピク　プミ　ホレト　ドキ,right,14.362,,,,,,0,30,30,20,1,,,,,,,,,,,,,,,,,,,,,,,,,ピク　プミ　ホレト　ドキ,プミ　ピク　ホレト　ドキ,1
,,,,,,,,,R_2uWhJofEioeTrbT,2022-09-13_22h11.28.897,jpn_C03,2022.1.2,MacIntel,11.49425287,,,,,,,,,,,,,CartoonStims/cowboy_shoot_boxer_r_no.jpg,,,,,,,,,,,,,,,,,,,,,,,,,,,,,,,,right,0.172,,,,,,0,31,31,15,1,,,,,,,,,,,,,,,,,,,,,,,,,ピク　パツ　ムク　ドキ,パツ　ピク　ムク　ドキ,1
,,,,,,,,,R_2uWhJofEioeTrbT,2022-09-13_22h11.28.897,jpn_C03,2022.1.2,MacIntel,11.49425287,,,,,,,,,,,,,CartoonStims/burglar_kick_artist_r_no.jpg,,,,,,,,,,,,,,,,,,,,,,,,,,,,,,,ピク　セル　ルピン　シド,right,15.689,,,,,,0,32,32,1,1,,,,,,,,,,,,,,,,,,,,,,,,,ピク　セル　ルピン　シド,セル　ピク　ルピン　シド,1
,,,,,,,,,R_2uWhJofEioeTrbT,2022-09-13_22h11.28.897,jpn_C03,2022.1.2,MacIntel,11.49425287,,,,,,,,,,,,,CartoonStims/boxer_shoot_burglar_r_no.jpg,,,,,,,,,,,,,,,,,,,,,,,,,,,,,,,ピク　パツ　ドキ　ルピン,right,9.793,,,,,,0,33,33,17,1,,,,,,,,,,,,,,,,,,,,,,,,,ピク　パツ　ドキ　ルピン,パツ　ピク　ドキ　ルピン,1
,,,,,,,,,R_2uWhJofEioeTrbT,2022-09-13_22h11.28.897,jpn_C03,2022.1.2,MacIntel,11.49425287,,,,,,,,,,,,,CartoonStims/doctor_kick_chef_r.jpg,,,,,,,,,,,,,,,,,,,,,,,,,,,,,,,セル　ピポ　ホレト,right,7.326,,,,,,0,34,34,25,1,,,,,,,,,,,,,,,,,,,,,,,,,セル　ピポ　ホレト,セル　ピポ　ホレト,0
,,,,,,,,,R_2uWhJofEioeTrbT,2022-09-13_22h11.28.897,jpn_C03,2022.1.2,MacIntel,11.49425287,,,,,,,,,,,,,CartoonStims/doctor_kick_cowboy_r_no.jpg,,,,,,,,,,,,,,,,,,,,,,,,,,,,,,,ピク　セル　ピポ　ムク,right,21.939,,,,,,0,35,35,4,1,,,,,,,,,,,,,,,,,,,,,,,,,ピク　セル　ピポ　ムク,セル　ピク　ピポ　ムク,1
,,,,,,,,,R_2uWhJofEioeTrbT,2022-09-13_22h11.28.897,jpn_C03,2022.1.2,MacIntel,11.49425287,,,,,,,,,,,,,,,,,,,,,,,,,,,,,,,,,,,,,,,,,,,,,,,,,,,,,,,,,,,space,0.864,0,2,2,2,1,VNegCondition.xlsx,"ここではこの言語における否定の文を学習していただきます。引き続き注意して、 聞こえた音を復唱してください。

スペースキーを押してください。",1,VNegFCT.xlsx,ここからクイズが始まります。 スクリーンに表示されるテキストに合うイメージを選んでください。,NegTest.xlsx,1,最後にここまで学んだことをアウトプットしていただきます。 テキストボックスにあるイメージを描写するテキストを入力してください。 このタスクでは、 答え合わせは行いません。,0,これですべての実験が終わりました。 お疲れさまです。 この後はアンケートに答えていただきます。,,,,,,,,