key_resp_instr_a.keys,key_resp_instr_a.rt,key_resp_instr_b.keys,key_resp_instr_b.rt,dummy.thisRepN,dummy.thisTrialN,dummy.thisN,dummy.thisIndex,dummy.ran,participant,date,expName,psychopyVersion,OS,frameRate,key_resp_instr1.keys,key_resp_instr1.rt,key_resp.keys,key_resp.rt,exp_loop.thisRepN,exp_loop.thisTrialN,exp_loop.thisN,exp_loop.thisIndex,exp_loop.ran,Word,English,Flip,Path,Audio,key_resp_instr2.keys,key_resp_instr2.rt,key_resp_fct.keys,key_resp_fct.corr,key_resp_fct.rt,trials_2.thisRepN,trials_2.thisTrialN,trials_2.thisN,trials_2.thisIndex,trials_2.ran,fct_loop.thisRepN,fct_loop.thisTrialN,fct_loop.thisN,fct_loop.thisIndex,fct_loop.ran,left_img,word,right_img,correctans,correct_img,audio,incorrect_feedback,trials.thisRepN,trials.thisTrialN,trials.thisN,trials.thisIndex,trials.ran,key_resp_instr3.keys,key_resp_instr3.rt,textbox.text,key_resp_2.keys,key_resp_2.rt,fb_yn.thisRepN,fb_yn.thisTrialN,fb_yn.thisN,fb_yn.thisIndex,fb_yn.ran,gather_loop.thisRepN,gather_loop.thisTrialN,gather_loop.thisN,gather_loop.thisIndex,gather_loop.ran,Text,Wordbank,key_resp_instr4.keys,key_resp_instr4.rt,master_loop.thisRepN,master_loop.thisTrialN,master_loop.thisN,master_loop.thisIndex,master_loop.ran,exposure_file,instr_1,exp_reps,fct_file,instr_2,gather_file,gather_reps,instr_3,fReps,instr_4,trials_4.thisRepN,trials_4.thisTrialN,trials_4.thisN,trials_4.thisIndex,trials_4.ran,NegVSentence,VNegSentence,NegTF
space,3.04,space,8.534,0,0,0,0,1,R_3FWgxLLz5Tirefk,2022-09-28_12h47.04.667,jpn_C03,2022.1.2,MacIntel,66.66666667,,,,,,,,,,,,,,,,,,,,,,,,,,,,,,,,,,,,,,,,,,,,,,,,,,,,,,,,,,,,,,,,,,,,,,,,,,,,,,,,,,,
,,,,,,,,,R_3FWgxLLz5Tirefk,2022-09-28_12h47.04.667,jpn_C03,2022.1.2,MacIntel,66.66666667,space,13.87,space,3.085,0,0,0,5,1,ドキ,boxer,,CartoonStims/boxer_r.jpg,audio/doki.mp3,,,,,,,,,,,,,,,,,,,,,,,,,,,,,,,,,,,,,,,,,,,,,,,,,,,,,,,,,,,,,,,,,,,,,
,,,,,,,,,R_3FWgxLLz5Tirefk,2022-09-28_12h47.04.667,jpn_C03,2022.1.2,MacIntel,66.66666667,,,space,2.418,0,1,1,1,1,ルピン,burglar,,CartoonStims/burglar_r.jpg,audio/lupin.mp3,,,,,,,,,,,,,,,,,,,,,,,,,,,,,,,,,,,,,,,,,,,,,,,,,,,,,,,,,,,,,,,,,,,,,
,,,,,,,,,R_3FWgxLLz5Tirefk,2022-09-28_12h47.04.667,jpn_C03,2022.1.2,MacIntel,66.66666667,,,space,4.96,0,2,2,0,1,シド,artist,,CartoonStims/artist_r.jpg,audio/sido.mp3,,,,,,,,,,,,,,,,,,,,,,,,,,,,,,,,,,,,,,,,,,,,,,,,,,,,,,,,,,,,,,,,,,,,,
,,,,,,,,,R_3FWgxLLz5Tirefk,2022-09-28_12h47.04.667,jpn_C03,2022.1.2,MacIntel,66.66666667,,,space,7.962,0,3,3,4,1,ピポ,doctor,,CartoonStims/doctor_r.jpg,audio/pipo.mp3,,,,,,,,,,,,,,,,,,,,,,,,,,,,,,,,,,,,,,,,,,,,,,,,,,,,,,,,,,,,,,,,,,,,,
,,,,,,,,,R_3FWgxLLz5Tirefk,2022-09-28_12h47.04.667,jpn_C03,2022.1.2,MacIntel,66.66666667,,,space,2.955,0,4,4,2,1,ホレト,chef,,CartoonStims/chef_r.jpg,audio/horeto.mp3,,,,,,,,,,,,,,,,,,,,,,,,,,,,,,,,,,,,,,,,,,,,,,,,,,,,,,,,,,,,,,,,,,,,,
,,,,,,,,,R_3FWgxLLz5Tirefk,2022-09-28_12h47.04.667,jpn_C03,2022.1.2,MacIntel,66.66666667,,,space,3.915,0,5,5,3,1,ムク,cowboy,,CartoonStims/cowboy_r.jpg,audio/muku.mp3,,,,,,,,,,,,,,,,,,,,,,,,,,,,,,,,,,,,,,,,,,,,,,,,,,,,,,,,,,,,,,,,,,,,,
,,,,,,,,,R_3FWgxLLz5Tirefk,2022-09-28_12h47.04.667,jpn_C03,2022.1.2,MacIntel,66.66666667,,,space,1.496,1,0,6,1,1,ルピン,burglar,,CartoonStims/burglar_r.jpg,audio/lupin.mp3,,,,,,,,,,,,,,,,,,,,,,,,,,,,,,,,,,,,,,,,,,,,,,,,,,,,,,,,,,,,,,,,,,,,,
,,,,,,,,,R_3FWgxLLz5Tirefk,2022-09-28_12h47.04.667,jpn_C03,2022.1.2,MacIntel,66.66666667,,,space,2.893,1,1,7,0,1,シド,artist,,CartoonStims/artist_r.jpg,audio/sido.mp3,,,,,,,,,,,,,,,,,,,,,,,,,,,,,,,,,,,,,,,,,,,,,,,,,,,,,,,,,,,,,,,,,,,,,
,,,,,,,,,R_3FWgxLLz5Tirefk,2022-09-28_12h47.04.667,jpn_C03,2022.1.2,MacIntel,66.66666667,,,space,2.414,1,2,8,3,1,ムク,cowboy,,CartoonStims/cowboy_r.jpg,audio/muku.mp3,,,,,,,,,,,,,,,,,,,,,,,,,,,,,,,,,,,,,,,,,,,,,,,,,,,,,,,,,,,,,,,,,,,,,
,,,,,,,,,R_3FWgxLLz5Tirefk,2022-09-28_12h47.04.667,jpn_C03,2022.1.2,MacIntel,66.66666667,,,space,1.517,1,3,9,4,1,ピポ,doctor,,CartoonStims/doctor_r.jpg,audio/pipo.mp3,,,,,,,,,,,,,,,,,,,,,,,,,,,,,,,,,,,,,,,,,,,,,,,,,,,,,,,,,,,,,,,,,,,,,
,,,,,,,,,R_3FWgxLLz5Tirefk,2022-09-28_12h47.04.667,jpn_C03,2022.1.2,MacIntel,66.66666667,,,space,1.035,1,4,10,5,1,ドキ,boxer,,CartoonStims/boxer_r.jpg,audio/doki.mp3,,,,,,,,,,,,,,,,,,,,,,,,,,,,,,,,,,,,,,,,,,,,,,,,,,,,,,,,,,,,,,,,,,,,,
,,,,,,,,,R_3FWgxLLz5Tirefk,2022-09-28_12h47.04.667,jpn_C03,2022.1.2,MacIntel,66.66666667,,,space,1.073,1,5,11,2,1,ホレト,chef,,CartoonStims/chef_r.jpg,audio/horeto.mp3,,,,,,,,,,,,,,,,,,,,,,,,,,,,,,,,,,,,,,,,,,,,,,,,,,,,,,,,,,,,,,,,,,,,,
,,,,,,,,,R_3FWgxLLz5Tirefk,2022-09-28_12h47.04.667,jpn_C03,2022.1.2,MacIntel,66.66666667,,,space,2.075,2,0,12,4,1,ピポ,doctor,,CartoonStims/doctor_r.jpg,audio/pipo.mp3,,,,,,,,,,,,,,,,,,,,,,,,,,,,,,,,,,,,,,,,,,,,,,,,,,,,,,,,,,,,,,,,,,,,,
,,,,,,,,,R_3FWgxLLz5Tirefk,2022-09-28_12h47.04.667,jpn_C03,2022.1.2,MacIntel,66.66666667,,,space,0.78,2,1,13,5,1,ドキ,boxer,,CartoonStims/boxer_r.jpg,audio/doki.mp3,,,,,,,,,,,,,,,,,,,,,,,,,,,,,,,,,,,,,,,,,,,,,,,,,,,,,,,,,,,,,,,,,,,,,
,,,,,,,,,R_3FWgxLLz5Tirefk,2022-09-28_12h47.04.667,jpn_C03,2022.1.2,MacIntel,66.66666667,,,space,1.766,2,2,14,2,1,ホレト,chef,,CartoonStims/chef_r.jpg,audio/horeto.mp3,,,,,,,,,,,,,,,,,,,,,,,,,,,,,,,,,,,,,,,,,,,,,,,,,,,,,,,,,,,,,,,,,,,,,
,,,,,,,,,R_3FWgxLLz5Tirefk,2022-09-28_12h47.04.667,jpn_C03,2022.1.2,MacIntel,66.66666667,,,space,1.479,2,3,15,3,1,ムク,cowboy,,CartoonStims/cowboy_r.jpg,audio/muku.mp3,,,,,,,,,,,,,,,,,,,,,,,,,,,,,,,,,,,,,,,,,,,,,,,,,,,,,,,,,,,,,,,,,,,,,
,,,,,,,,,R_3FWgxLLz5Tirefk,2022-09-28_12h47.04.667,jpn_C03,2022.1.2,MacIntel,66.66666667,,,space,1.036,2,4,16,1,1,ルピン,burglar,,CartoonStims/burglar_r.jpg,audio/lupin.mp3,,,,,,,,,,,,,,,,,,,,,,,,,,,,,,,,,,,,,,,,,,,,,,,,,,,,,,,,,,,,,,,,,,,,,
,,,,,,,,,R_3FWgxLLz5Tirefk,2022-09-28_12h47.04.667,jpn_C03,2022.1.2,MacIntel,66.66666667,,,space,1.019,2,5,17,0,1,シド,artist,,CartoonStims/artist_r.jpg,audio/sido.mp3,,,,,,,,,,,,,,,,,,,,,,,,,,,,,,,,,,,,,,,,,,,,,,,,,,,,,,,,,,,,,,,,,,,,,
,,,,,,,,,R_3FWgxLLz5Tirefk,2022-09-28_12h47.04.667,jpn_C03,2022.1.2,MacIntel,66.66666667,,,,,,,,,,,,,,,space,1.576,right,1,1.554,0,0,0,0,1,,,,,,,,,,,,,,,,,,,,,,,,,,,,,,,,,,,,,,,,,,,,,,,,,,,,,,,,,,,
,,,,,,,,,R_3FWgxLLz5Tirefk,2022-09-28_12h47.04.667,jpn_C03,2022.1.2,MacIntel,66.66666667,,,,,,,,,,,,,,,,,,,,,,,,,0,0,0,11,1,CartoonStims/burglar_r.jpg,ドキ,CartoonStims/boxer_r.jpg,right,CartoonStims/boxer_r.jpg,audio/doki.mp3,残念！ こちらが正しい画像です。,,,,,,,,,,,,,,,,,,,,,,,,,,,,,,,,,,,,,,,,,,,,,,,
,,,,,,,,,R_3FWgxLLz5Tirefk,2022-09-28_12h47.04.667,jpn_C03,2022.1.2,MacIntel,66.66666667,,,,,,,,,,,,,,,,,left,1,1.676,,,,,,,,,,,,,,,,,,0,0,0,0,1,,,,,,,,,,,,,,,,,,,,,,,,,,,,,,,,,,,,,,,,,,
,,,,,,,,,R_3FWgxLLz5Tirefk,2022-09-28_12h47.04.667,jpn_C03,2022.1.2,MacIntel,66.66666667,,,,,,,,,,,,,,,,,,,,,,,,,0,1,1,2,1,CartoonStims/chef_r.jpg,ホレト,CartoonStims/cowboy_r.jpg,left,CartoonStims/chef_r.jpg,audio/horeto.mp3,残念！ こちらが正しい画像です。,,,,,,,,,,,,,,,,,,,,,,,,,,,,,,,,,,,,,,,,,,,,,,,
,,,,,,,,,R_3FWgxLLz5Tirefk,2022-09-28_12h47.04.667,jpn_C03,2022.1.2,MacIntel,66.66666667,,,,,,,,,,,,,,,,,left,1,0.269,,,,,,,,,,,,,,,,,,0,0,0,0,1,,,,,,,,,,,,,,,,,,,,,,,,,,,,,,,,,,,,,,,,,,
,,,,,,,,,R_3FWgxLLz5Tirefk,2022-09-28_12h47.04.667,jpn_C03,2022.1.2,MacIntel,66.66666667,,,,,,,,,,,,,,,,,,,,,,,,,0,2,2,1,1,CartoonStims/burglar_r.jpg,ルピン,CartoonStims/chef_r.jpg,left,CartoonStims/burglar_r.jpg,audio/lupin.mp3,残念！ こちらが正しい画像です。,,,,,,,,,,,,,,,,,,,,,,,,,,,,,,,,,,,,,,,,,,,,,,,
,,,,,,,,,R_3FWgxLLz5Tirefk,2022-09-28_12h47.04.667,jpn_C03,2022.1.2,MacIntel,66.66666667,,,,,,,,,,,,,,,,,left,1,1.971,,,,,,,,,,,,,,,,,,0,0,0,0,1,,,,,,,,,,,,,,,,,,,,,,,,,,,,,,,,,,,,,,,,,,
,,,,,,,,,R_3FWgxLLz5Tirefk,2022-09-28_12h47.04.667,jpn_C03,2022.1.2,MacIntel,66.66666667,,,,,,,,,,,,,,,,,,,,,,,,,0,3,3,4,1,CartoonStims/doctor_r.jpg,ピポ,CartoonStims/boxer_r.jpg,left,CartoonStims/doctor_r.jpg,audio/pipo.mp3,残念！ こちらが正しい画像です。,,,,,,,,,,,,,,,,,,,,,,,,,,,,,,,,,,,,,,,,,,,,,,,
,,,,,,,,,R_3FWgxLLz5Tirefk,2022-09-28_12h47.04.667,jpn_C03,2022.1.2,MacIntel,66.66666667,,,,,,,,,,,,,,,,,right,1,0.698,0,0,0,0,1,,,,,,,,,,,,,,,,,,,,,,,,,,,,,,,,,,,,,,,,,,,,,,,,,,,,,,,,,,,
,,,,,,,,,R_3FWgxLLz5Tirefk,2022-09-28_12h47.04.667,jpn_C03,2022.1.2,MacIntel,66.66666667,,,,,,,,,,,,,,,,,,,,,,,,,0,4,4,9,1,CartoonStims/boxer_r.jpg,ムク,CartoonStims/cowboy_r.jpg,right,CartoonStims/cowboy_r.jpg,audio/muku.mp3,残念！ こちらが正しい画像です。,,,,,,,,,,,,,,,,,,,,,,,,,,,,,,,,,,,,,,,,,,,,,,,
,,,,,,,,,R_3FWgxLLz5Tirefk,2022-09-28_12h47.04.667,jpn_C03,2022.1.2,MacIntel,66.66666667,,,,,,,,,,,,,,,,,left,1,0.271,,,,,,,,,,,,,,,,,,0,0,0,0,1,,,,,,,,,,,,,,,,,,,,,,,,,,,,,,,,,,,,,,,,,,
,,,,,,,,,R_3FWgxLLz5Tirefk,2022-09-28_12h47.04.667,jpn_C03,2022.1.2,MacIntel,66.66666667,,,,,,,,,,,,,,,,,,,,,,,,,0,5,5,3,1,CartoonStims/cowboy_r.jpg,ムク,CartoonStims/doctor_r.jpg,left,CartoonStims/cowboy_r.jpg,audio/muku.mp3,残念！ こちらが正しい画像です。,,,,,,,,,,,,,,,,,,,,,,,,,,,,,,,,,,,,,,,,,,,,,,,
,,,,,,,,,R_3FWgxLLz5Tirefk,2022-09-28_12h47.04.667,jpn_C03,2022.1.2,MacIntel,66.66666667,,,,,,,,,,,,,,,,,right,1,0.554,0,0,0,0,1,,,,,,,,,,,,,,,,,,,,,,,,,,,,,,,,,,,,,,,,,,,,,,,,,,,,,,,,,,,
,,,,,,,,,R_3FWgxLLz5Tirefk,2022-09-28_12h47.04.667,jpn_C03,2022.1.2,MacIntel,66.66666667,,,,,,,,,,,,,,,,,,,,,,,,,0,6,6,8,1,CartoonStims/doctor_r.jpg,ホレト,CartoonStims/chef_r.jpg,right,CartoonStims/chef_r.jpg,audio/horeto.mp3,残念！ こちらが正しい画像です。,,,,,,,,,,,,,,,,,,,,,,,,,,,,,,,,,,,,,,,,,,,,,,,
,,,,,,,,,R_3FWgxLLz5Tirefk,2022-09-28_12h47.04.667,jpn_C03,2022.1.2,MacIntel,66.66666667,,,,,,,,,,,,,,,,,right,1,0.155,0,0,0,0,1,,,,,,,,,,,,,,,,,,,,,,,,,,,,,,,,,,,,,,,,,,,,,,,,,,,,,,,,,,,
,,,,,,,,,R_3FWgxLLz5Tirefk,2022-09-28_12h47.04.667,jpn_C03,2022.1.2,MacIntel,66.66666667,,,,,,,,,,,,,,,,,,,,,,,,,0,7,7,7,1,CartoonStims/cowboy_r.jpg,ルピン,CartoonStims/burglar_r.jpg,right,CartoonStims/burglar_r.jpg,audio/lupin.mp3,残念！ こちらが正しい画像です。,,,,,,,,,,,,,,,,,,,,,,,,,,,,,,,,,,,,,,,,,,,,,,,
,,,,,,,,,R_3FWgxLLz5Tirefk,2022-09-28_12h47.04.667,jpn_C03,2022.1.2,MacIntel,66.66666667,,,,,,,,,,,,,,,,,right,1,0.96,0,0,0,0,1,,,,,,,,,,,,,,,,,,,,,,,,,,,,,,,,,,,,,,,,,,,,,,,,,,,,,,,,,,,
,,,,,,,,,R_3FWgxLLz5Tirefk,2022-09-28_12h47.04.667,jpn_C03,2022.1.2,MacIntel,66.66666667,,,,,,,,,,,,,,,,,,,,,,,,,0,8,8,10,1,CartoonStims/artist_r.jpg,ピポ,CartoonStims/doctor_r.jpg,right,CartoonStims/doctor_r.jpg,audio/pipo.mp3,残念！ こちらが正しい画像です。,,,,,,,,,,,,,,,,,,,,,,,,,,,,,,,,,,,,,,,,,,,,,,,
,,,,,,,,,R_3FWgxLLz5Tirefk,2022-09-28_12h47.04.667,jpn_C03,2022.1.2,MacIntel,66.66666667,,,,,,,,,,,,,,,,,left,1,0.764,,,,,,,,,,,,,,,,,,0,0,0,0,1,,,,,,,,,,,,,,,,,,,,,,,,,,,,,,,,,,,,,,,,,,
,,,,,,,,,R_3FWgxLLz5Tirefk,2022-09-28_12h47.04.667,jpn_C03,2022.1.2,MacIntel,66.66666667,,,,,,,,,,,,,,,,,,,,,,,,,0,9,9,5,1,CartoonStims/boxer_r.jpg,ドキ,CartoonStims/artist_r.jpg,left,CartoonStims/boxer_r.jpg,audio/doki.mp3,残念！ こちらが正しい画像です。,,,,,,,,,,,,,,,,,,,,,,,,,,,,,,,,,,,,,,,,,,,,,,,
,,,,,,,,,R_3FWgxLLz5Tirefk,2022-09-28_12h47.04.667,jpn_C03,2022.1.2,MacIntel,66.66666667,,,,,,,,,,,,,,,,,left,1,1.055,,,,,,,,,,,,,,,,,,0,0,0,0,1,,,,,,,,,,,,,,,,,,,,,,,,,,,,,,,,,,,,,,,,,,
,,,,,,,,,R_3FWgxLLz5Tirefk,2022-09-28_12h47.04.667,jpn_C03,2022.1.2,MacIntel,66.66666667,,,,,,,,,,,,,,,,,,,,,,,,,0,10,10,0,1,CartoonStims/artist_r.jpg,シド,CartoonStims/burglar_r.jpg,left,CartoonStims/artist_r.jpg,audio/sido.mp3,残念！ こちらが正しい画像です。,,,,,,,,,,,,,,,,,,,,,,,,,,,,,,,,,,,,,,,,,,,,,,,
,,,,,,,,,R_3FWgxLLz5Tirefk,2022-09-28_12h47.04.667,jpn_C03,2022.1.2,MacIntel,66.66666667,,,,,,,,,,,,,,,,,right,1,0.6,0,0,0,0,1,,,,,,,,,,,,,,,,,,,,,,,,,,,,,,,,,,,,,,,,,,,,,,,,,,,,,,,,,,,
,,,,,,,,,R_3FWgxLLz5Tirefk,2022-09-28_12h47.04.667,jpn_C03,2022.1.2,MacIntel,66.66666667,,,,,,,,,,,,,,,,,,,,,,,,,0,11,11,6,1,CartoonStims/chef_r.jpg,シド,CartoonStims/artist_r.jpg,right,CartoonStims/artist_r.jpg,audio/sido.mp3,残念！ こちらが正しい画像です。,,,,,,,,,,,,,,,,,,,,,,,,,,,,,,,,,,,,,,,,,,,,,,,
,,,,,,,,,R_3FWgxLLz5Tirefk,2022-09-28_12h47.04.667,jpn_C03,2022.1.2,MacIntel,66.66666667,,,,,,,,,,,,,,,,,,,,,,,,,,,,,,,,,,,,,,,,,,space,6.563,シド,right,8.727,0,0,0,0,1,,,,,,,,,,,,,,,,,,,,,,,,,,,,,,,,
,,,,,,,,,R_3FWgxLLz5Tirefk,2022-09-28_12h47.04.667,jpn_C03,2022.1.2,MacIntel,66.66666667,,,,,,,,,,,,,CartoonStims/artist_r.jpg,audio/sido.mp3,,,,,,,,,,,,,,,,,,,,,,,,,,,,,,,,,,,,,,0,0,0,0,1,シド,,,,,,,,,,,,,,,,,,,,,,,,,,
,,,,,,,,,R_3FWgxLLz5Tirefk,2022-09-28_12h47.04.667,jpn_C03,2022.1.2,MacIntel,66.66666667,,,,,,,,,,,,,,,,,,,,,,,,,,,,,,,,,,,,,,,,,,,,ルピン,right,7.078,0,0,0,0,1,,,,,,,,,,,,,,,,,,,,,,,,,,,,,,,,
,,,,,,,,,R_3FWgxLLz5Tirefk,2022-09-28_12h47.04.667,jpn_C03,2022.1.2,MacIntel,66.66666667,,,,,,,,,,,,,CartoonStims/burglar_r.jpg,audio/lupin.mp3,,,,,,,,,,,,,,,,,,,,,,,,,,,,,,,,,,,,,,0,1,1,1,1,ルピン,,,,,,,,,,,,,,,,,,,,,,,,,,
,,,,,,,,,R_3FWgxLLz5Tirefk,2022-09-28_12h47.04.667,jpn_C03,2022.1.2,MacIntel,66.66666667,,,,,,,,,,,,,,,,,,,,,,,,,,,,,,,,,,,,,,,,,,,,ムク,right,3.655,0,0,0,0,1,,,,,,,,,,,,,,,,,,,,,,,,,,,,,,,,
,,,,,,,,,R_3FWgxLLz5Tirefk,2022-09-28_12h47.04.667,jpn_C03,2022.1.2,MacIntel,66.66666667,,,,,,,,,,,,,CartoonStims/cowboy_r.jpg,audio/muku.mp3,,,,,,,,,,,,,,,,,,,,,,,,,,,,,,,,,,,,,,0,2,2,3,1,ムク,,,,,,,,,,,,,,,,,,,,,,,,,,
,,,,,,,,,R_3FWgxLLz5Tirefk,2022-09-28_12h47.04.667,jpn_C03,2022.1.2,MacIntel,66.66666667,,,,,,,,,,,,,,,,,,,,,,,,,,,,,,,,,,,,,,,,,,,,ホレト,right,3.719,0,0,0,0,1,,,,,,,,,,,,,,,,,,,,,,,,,,,,,,,,
,,,,,,,,,R_3FWgxLLz5Tirefk,2022-09-28_12h47.04.667,jpn_C03,2022.1.2,MacIntel,66.66666667,,,,,,,,,,,,,CartoonStims/chef_r.jpg,audio/horeto.mp3,,,,,,,,,,,,,,,,,,,,,,,,,,,,,,,,,,,,,,0,3,3,2,1,ホレト,,,,,,,,,,,,,,,,,,,,,,,,,,
,,,,,,,,,R_3FWgxLLz5Tirefk,2022-09-28_12h47.04.667,jpn_C03,2022.1.2,MacIntel,66.66666667,,,,,,,,,,,,,,,,,,,,,,,,,,,,,,,,,,,,,,,,,,,,ドキ,right,3.591,0,0,0,0,1,,,,,,,,,,,,,,,,,,,,,,,,,,,,,,,,
,,,,,,,,,R_3FWgxLLz5Tirefk,2022-09-28_12h47.04.667,jpn_C03,2022.1.2,MacIntel,66.66666667,,,,,,,,,,,,,CartoonStims/boxer_r.jpg,audio/doki.mp3,,,,,,,,,,,,,,,,,,,,,,,,,,,,,,,,,,,,,,0,4,4,5,1,ドキ,,,,,,,,,,,,,,,,,,,,,,,,,,
,,,,,,,,,R_3FWgxLLz5Tirefk,2022-09-28_12h47.04.667,jpn_C03,2022.1.2,MacIntel,66.66666667,,,,,,,,,,,,,,,,,,,,,,,,,,,,,,,,,,,,,,,,,,,,ピポ,right,6.974,0,0,0,0,1,,,,,,,,,,,,,,,,,,,,,,,,,,,,,,,,
,,,,,,,,,R_3FWgxLLz5Tirefk,2022-09-28_12h47.04.667,jpn_C03,2022.1.2,MacIntel,66.66666667,,,,,,,,,,,,,CartoonStims/doctor_r.jpg,audio/pipo.mp3,,,,,,,,,,,,,,,,,,,,,,,,,,,,,,,,,,,,,,0,5,5,4,1,ピポ,,,,,,,,,,,,,,,,,,,,,,,,,,
,,,,,,,,,R_3FWgxLLz5Tirefk,2022-09-28_12h47.04.667,jpn_C03,2022.1.2,MacIntel,66.66666667,,,,,,,,,,,,,,,,,,,,,,,,,,,,,,,,,,,,,,,,,,,,ルピン,right,5.066,0,0,0,0,1,,,,,,,,,,,,,,,,,,,,,,,,,,,,,,,,
,,,,,,,,,R_3FWgxLLz5Tirefk,2022-09-28_12h47.04.667,jpn_C03,2022.1.2,MacIntel,66.66666667,,,,,,,,,,,,,CartoonStims/burglar_r.jpg,audio/lupin.mp3,,,,,,,,,,,,,,,,,,,,,,,,,,,,,,,,,,,,,,1,0,6,1,1,ルピン,,,,,,,,,,,,,,,,,,,,,,,,,,
,,,,,,,,,R_3FWgxLLz5Tirefk,2022-09-28_12h47.04.667,jpn_C03,2022.1.2,MacIntel,66.66666667,,,,,,,,,,,,,,,,,,,,,,,,,,,,,,,,,,,,,,,,,,,,ホレト,right,3.737,0,0,0,0,1,,,,,,,,,,,,,,,,,,,,,,,,,,,,,,,,
,,,,,,,,,R_3FWgxLLz5Tirefk,2022-09-28_12h47.04.667,jpn_C03,2022.1.2,MacIntel,66.66666667,,,,,,,,,,,,,CartoonStims/chef_r.jpg,audio/horeto.mp3,,,,,,,,,,,,,,,,,,,,,,,,,,,,,,,,,,,,,,1,1,7,2,1,ホレト,,,,,,,,,,,,,,,,,,,,,,,,,,
,,,,,,,,,R_3FWgxLLz5Tirefk,2022-09-28_12h47.04.667,jpn_C03,2022.1.2,MacIntel,66.66666667,,,,,,,,,,,,,,,,,,,,,,,,,,,,,,,,,,,,,,,,,,,,ドキ,right,5.542,0,0,0,0,1,,,,,,,,,,,,,,,,,,,,,,,,,,,,,,,,
,,,,,,,,,R_3FWgxLLz5Tirefk,2022-09-28_12h47.04.667,jpn_C03,2022.1.2,MacIntel,66.66666667,,,,,,,,,,,,,CartoonStims/boxer_r.jpg,audio/doki.mp3,,,,,,,,,,,,,,,,,,,,,,,,,,,,,,,,,,,,,,1,2,8,5,1,ドキ,,,,,,,,,,,,,,,,,,,,,,,,,,
,,,,,,,,,R_3FWgxLLz5Tirefk,2022-09-28_12h47.04.667,jpn_C03,2022.1.2,MacIntel,66.66666667,,,,,,,,,,,,,,,,,,,,,,,,,,,,,,,,,,,,,,,,,,,,シド,right,3.212,0,0,0,0,1,,,,,,,,,,,,,,,,,,,,,,,,,,,,,,,,
,,,,,,,,,R_3FWgxLLz5Tirefk,2022-09-28_12h47.04.667,jpn_C03,2022.1.2,MacIntel,66.66666667,,,,,,,,,,,,,CartoonStims/artist_r.jpg,audio/sido.mp3,,,,,,,,,,,,,,,,,,,,,,,,,,,,,,,,,,,,,,1,3,9,0,1,シド,,,,,,,,,,,,,,,,,,,,,,,,,,
,,,,,,,,,R_3FWgxLLz5Tirefk,2022-09-28_12h47.04.667,jpn_C03,2022.1.2,MacIntel,66.66666667,,,,,,,,,,,,,,,,,,,,,,,,,,,,,,,,,,,,,,,,,,,,ムク,right,2.83,0,0,0,0,1,,,,,,,,,,,,,,,,,,,,,,,,,,,,,,,,
,,,,,,,,,R_3FWgxLLz5Tirefk,2022-09-28_12h47.04.667,jpn_C03,2022.1.2,MacIntel,66.66666667,,,,,,,,,,,,,CartoonStims/cowboy_r.jpg,audio/muku.mp3,,,,,,,,,,,,,,,,,,,,,,,,,,,,,,,,,,,,,,1,4,10,3,1,ムク,,,,,,,,,,,,,,,,,,,,,,,,,,
,,,,,,,,,R_3FWgxLLz5Tirefk,2022-09-28_12h47.04.667,jpn_C03,2022.1.2,MacIntel,66.66666667,,,,,,,,,,,,,,,,,,,,,,,,,,,,,,,,,,,,,,,,,,,,ピポ,right,3.404,0,0,0,0,1,,,,,,,,,,,,,,,,,,,,,,,,,,,,,,,,
,,,,,,,,,R_3FWgxLLz5Tirefk,2022-09-28_12h47.04.667,jpn_C03,2022.1.2,MacIntel,66.66666667,,,,,,,,,,,,,CartoonStims/doctor_r.jpg,audio/pipo.mp3,,,,,,,,,,,,,,,,,,,,,,,,,,,,,,,,,,,,,,1,5,11,4,1,ピポ,,,,,,,,,,,,,,,,,,,,,,,,,,
,,,,,,,,,R_3FWgxLLz5Tirefk,2022-09-28_12h47.04.667,jpn_C03,2022.1.2,MacIntel,66.66666667,,,,,,,,,,,,,,,,,,,,,,,,,,,,,,,,,,,,,,,,,,,,,,,,,,,,,,,,,,,space,1.552,0,0,0,0,1,NounExposure.xlsx,"最初のトライアルでは、 画像が表示され、 その画像の下に単語が出てきます。 またこの単語の音も聞くことができます。 この音を大きな声で復唱してください。 そしてこの画像がどのような単語を示しているのか, 考えてみてください。 その後、 続きのボタンを押すと次の単語の学習が始まります。

スペースキーを押して、学習を始めましょう。",3,NounFCT.xlsx,ここから語彙のクイズが始まります。スクリーンに表示される単語に合う画像をキーボードの右と左の矢印キーを使って選択してください。,NounTest.xlsx,2,次に、これまで学習してきたことをアウトプットしていただきます。 表示される画像を描写していると思う単語を、テキストボックスにタイプしてください。,1,"ここまでが最初のトライアルです。ここで休憩をとっても構いません。

休憩が済みましたら、スペースキーを押して続きを始めましょう。",,,,,,,,
,,,,,,,,,R_3FWgxLLz5Tirefk,2022-09-28_12h47.04.667,jpn_C03,2022.1.2,MacIntel,66.66666667,space,9.657,space,16.573,0,0,0,36,1,プミ　シド　ピポ,,,CartoonStims/artist_punch_doctor_r.jpg,audio/pumisidopipo.mp3,,,,,,,,,,,,,,,,,,,,,,,,,,,,,,,,,,,,,,,,,,,,,,,,,,,,,,,,,,,,,,,,,,,,,
,,,,,,,,,R_3FWgxLLz5Tirefk,2022-09-28_12h47.04.667,jpn_C03,2022.1.2,MacIntel,66.66666667,,,space,12.988,0,1,1,38,1,プミ　ルピン　ドキ,,,CartoonStims/burglar_punch_boxer_r.jpg,audio/pumilupindoki.mp3,,,,,,,,,,,,,,,,,,,,,,,,,,,,,,,,,,,,,,,,,,,,,,,,,,,,,,,,,,,,,,,,,,,,,
,,,,,,,,,R_3FWgxLLz5Tirefk,2022-09-28_12h47.04.667,jpn_C03,2022.1.2,MacIntel,66.66666667,,,space,5.182,0,2,2,33,1,パツ　ピポ　ホレト,,,CartoonStims/doctor_shoot_chef_r.jpg,audio/patsupipohoreto.mp3,,,,,,,,,,,,,,,,,,,,,,,,,,,,,,,,,,,,,,,,,,,,,,,,,,,,,,,,,,,,,,,,,,,,,
,,,,,,,,,R_3FWgxLLz5Tirefk,2022-09-28_12h47.04.667,jpn_C03,2022.1.2,MacIntel,66.66666667,,,space,4.14,0,3,3,28,1,パツ　ホレト　ドキ,,,CartoonStims/chef_shoot_boxer_r.jpg,audio/patsuhoretodoki.mp3,,,,,,,,,,,,,,,,,,,,,,,,,,,,,,,,,,,,,,,,,,,,,,,,,,,,,,,,,,,,,,,,,,,,,
,,,,,,,,,R_3FWgxLLz5Tirefk,2022-09-28_12h47.04.667,jpn_C03,2022.1.2,MacIntel,66.66666667,,,space,1.988,0,4,4,35,1,パツ　ドキ　ムク,,,CartoonStims/boxer_shoot_cowboy_r.jpg,audio/patsudokimuku.mp3,,,,,,,,,,,,,,,,,,,,,,,,,,,,,,,,,,,,,,,,,,,,,,,,,,,,,,,,,,,,,,,,,,,,,
,,,,,,,,,R_3FWgxLLz5Tirefk,2022-09-28_12h47.04.667,jpn_C03,2022.1.2,MacIntel,66.66666667,,,space,2.581,0,5,5,44,1,プミ　ピポ　ホレト,,,CartoonStims/doctor_punch_chef_r.jpg,audio/pumipipohoreto.mp3,,,,,,,,,,,,,,,,,,,,,,,,,,,,,,,,,,,,,,,,,,,,,,,,,,,,,,,,,,,,,,,,,,,,,
,,,,,,,,,R_3FWgxLLz5Tirefk,2022-09-28_12h47.04.667,jpn_C03,2022.1.2,MacIntel,66.66666667,,,space,6.368,0,6,6,22,1,トマ　ドキ　ルピン,,,CartoonStims/boxer_point_burglar_r.jpg,audio/tomadokilupin.mp3,,,,,,,,,,,,,,,,,,,,,,,,,,,,,,,,,,,,,,,,,,,,,,,,,,,,,,,,,,,,,,,,,,,,,
,,,,,,,,,R_3FWgxLLz5Tirefk,2022-09-28_12h47.04.667,jpn_C03,2022.1.2,MacIntel,66.66666667,,,space,3.09,0,7,7,17,1,トマ　ホレト　ドキ,,,CartoonStims/chef_point_boxer_r.jpg,audio/tomahoretodoki.mp3,,,,,,,,,,,,,,,,,,,,,,,,,,,,,,,,,,,,,,,,,,,,,,,,,,,,,,,,,,,,,,,,,,,,,
,,,,,,,,,R_3FWgxLLz5Tirefk,2022-09-28_12h47.04.667,jpn_C03,2022.1.2,MacIntel,66.66666667,,,space,1.629,0,8,8,42,1,プミ　ムク　ルピン,,,CartoonStims/cowboy_punch_burglar_r.jpg,audio/pumimukulupin.mp3,,,,,,,,,,,,,,,,,,,,,,,,,,,,,,,,,,,,,,,,,,,,,,,,,,,,,,,,,,,,,,,,,,,,,
,,,,,,,,,R_3FWgxLLz5Tirefk,2022-09-28_12h47.04.667,jpn_C03,2022.1.2,MacIntel,66.66666667,,,space,1.952,0,9,9,40,1,プミ　ホレト　シド,,,CartoonStims/chef_punch_artist_r.jpg,audio/pumihoretosido.mp3,,,,,,,,,,,,,,,,,,,,,,,,,,,,,,,,,,,,,,,,,,,,,,,,,,,,,,,,,,,,,,,,,,,,,
,,,,,,,,,R_3FWgxLLz5Tirefk,2022-09-28_12h47.04.667,jpn_C03,2022.1.2,MacIntel,66.66666667,,,space,4.289,0,10,10,1,1,セル 　シド 　ホレト,,,CartoonStims/artist_kick_chef_r.jpg,audio/serusidohoreto.mp3,,,,,,,,,,,,,,,,,,,,,,,,,,,,,,,,,,,,,,,,,,,,,,,,,,,,,,,,,,,,,,,,,,,,,
,,,,,,,,,R_3FWgxLLz5Tirefk,2022-09-28_12h47.04.667,jpn_C03,2022.1.2,MacIntel,66.66666667,,,space,2.485,0,11,11,2,1,セル 　ルピン 　ホレト,,,CartoonStims/burglar_kick_chef_r.jpg,audio/serulupinhoreto.mp3,,,,,,,,,,,,,,,,,,,,,,,,,,,,,,,,,,,,,,,,,,,,,,,,,,,,,,,,,,,,,,,,,,,,,
,,,,,,,,,R_3FWgxLLz5Tirefk,2022-09-28_12h47.04.667,jpn_C03,2022.1.2,MacIntel,66.66666667,,,space,4.156,0,12,12,18,1,トマ　ムク　ドキ,,,CartoonStims/cowboy_point_boxer_r.jpg,audio/tomamukudoki.mp3,,,,,,,,,,,,,,,,,,,,,,,,,,,,,,,,,,,,,,,,,,,,,,,,,,,,,,,,,,,,,,,,,,,,,
,,,,,,,,,R_3FWgxLLz5Tirefk,2022-09-28_12h47.04.667,jpn_C03,2022.1.2,MacIntel,66.66666667,,,space,1.513,0,13,13,6,1,セル　ムク　ピポ,,,CartoonStims/cowboy_kick_doctor_r.jpg,audio/serumukupipo.mp3,,,,,,,,,,,,,,,,,,,,,,,,,,,,,,,,,,,,,,,,,,,,,,,,,,,,,,,,,,,,,,,,,,,,,
,,,,,,,,,R_3FWgxLLz5Tirefk,2022-09-28_12h47.04.667,jpn_C03,2022.1.2,MacIntel,66.66666667,,,space,1.597,0,14,14,7,1,セル　ムク　ドキ,,,CartoonStims/cowboy_kick_boxer_r.jpg,audio/serumukudoki.mp3,,,,,,,,,,,,,,,,,,,,,,,,,,,,,,,,,,,,,,,,,,,,,,,,,,,,,,,,,,,,,,,,,,,,,
,,,,,,,,,R_3FWgxLLz5Tirefk,2022-09-28_12h47.04.667,jpn_C03,2022.1.2,MacIntel,66.66666667,,,space,1.292,0,15,15,29,1,パツ　ホレト　シド,,,CartoonStims/chef_shoot_artist_r.jpg,audio/patsuhoretosido.mp3,,,,,,,,,,,,,,,,,,,,,,,,,,,,,,,,,,,,,,,,,,,,,,,,,,,,,,,,,,,,,,,,,,,,,
,,,,,,,,,R_3FWgxLLz5Tirefk,2022-09-28_12h47.04.667,jpn_C03,2022.1.2,MacIntel,66.66666667,,,space,0.925,0,16,16,11,1,セル　ドキ　ルピン,,,CartoonStims/boxer_kick_burglar_r.jpg,audio/serudokilupin.mp3,,,,,,,,,,,,,,,,,,,,,,,,,,,,,,,,,,,,,,,,,,,,,,,,,,,,,,,,,,,,,,,,,,,,,
,,,,,,,,,R_3FWgxLLz5Tirefk,2022-09-28_12h47.04.667,jpn_C03,2022.1.2,MacIntel,66.66666667,,,space,0.748,0,17,17,24,1,パツ　シド　ムク,,,CartoonStims/artist_shoot_cowboy_r.jpg,audio/patsusidomuku.mp3,,,,,,,,,,,,,,,,,,,,,,,,,,,,,,,,,,,,,,,,,,,,,,,,,,,,,,,,,,,,,,,,,,,,,
,,,,,,,,,R_3FWgxLLz5Tirefk,2022-09-28_12h47.04.667,jpn_C03,2022.1.2,MacIntel,66.66666667,,,space,0.688,0,18,18,20,1,トマ　ピポ　シド,,,CartoonStims/doctor_point_artist_r.jpg,audio/tomapiposido.mp3,,,,,,,,,,,,,,,,,,,,,,,,,,,,,,,,,,,,,,,,,,,,,,,,,,,,,,,,,,,,,,,,,,,,,
,,,,,,,,,R_3FWgxLLz5Tirefk,2022-09-28_12h47.04.667,jpn_C03,2022.1.2,MacIntel,66.66666667,,,space,0.621,0,19,19,10,1,セル　ドキ　シド,,,CartoonStims/boxer_kick_artist_r.jpg,audio/serudokisido.mp3,,,,,,,,,,,,,,,,,,,,,,,,,,,,,,,,,,,,,,,,,,,,,,,,,,,,,,,,,,,,,,,,,,,,,
,,,,,,,,,R_3FWgxLLz5Tirefk,2022-09-28_12h47.04.667,jpn_C03,2022.1.2,MacIntel,66.66666667,,,space,0.171,0,20,20,9,1,セル　ピポ　シド,,,CartoonStims/doctor_kick_artist_r.jpg,audio/serupiposido.mp3,,,,,,,,,,,,,,,,,,,,,,,,,,,,,,,,,,,,,,,,,,,,,,,,,,,,,,,,,,,,,,,,,,,,,
,,,,,,,,,R_3FWgxLLz5Tirefk,2022-09-28_12h47.04.667,jpn_C03,2022.1.2,MacIntel,66.66666667,,,space,3.757,0,21,21,8,1,セル　ピポ　ドキ,,,CartoonStims/doctor_kick_boxer_r.jpg,audio/serupipodoki.mp3,,,,,,,,,,,,,,,,,,,,,,,,,,,,,,,,,,,,,,,,,,,,,,,,,,,,,,,,,,,,,,,,,,,,,
,,,,,,,,,R_3FWgxLLz5Tirefk,2022-09-28_12h47.04.667,jpn_C03,2022.1.2,MacIntel,66.66666667,,,space,0.686,0,22,22,39,1,プミ　ルピン　シド,,,CartoonStims/burglar_punch_artist_r.jpg,audio/pumilupinsido.mp3,,,,,,,,,,,,,,,,,,,,,,,,,,,,,,,,,,,,,,,,,,,,,,,,,,,,,,,,,,,,,,,,,,,,,
,,,,,,,,,R_3FWgxLLz5Tirefk,2022-09-28_12h47.04.667,jpn_C03,2022.1.2,MacIntel,66.66666667,,,space,0.485,0,23,23,45,1,プミ　ピポ　ムク,,,CartoonStims/doctor_punch_cowboy_r.jpg,audio/pumipipomuku.mp3,,,,,,,,,,,,,,,,,,,,,,,,,,,,,,,,,,,,,,,,,,,,,,,,,,,,,,,,,,,,,,,,,,,,,
,,,,,,,,,R_3FWgxLLz5Tirefk,2022-09-28_12h47.04.667,jpn_C03,2022.1.2,MacIntel,66.66666667,,,space,0.29,0,24,24,30,1,パツ　ムク　シド,,,CartoonStims/cowboy_shoot_artist_r.jpg,audio/patsumukusido.mp3,,,,,,,,,,,,,,,,,,,,,,,,,,,,,,,,,,,,,,,,,,,,,,,,,,,,,,,,,,,,,,,,,,,,,
,,,,,,,,,R_3FWgxLLz5Tirefk,2022-09-28_12h47.04.667,jpn_C03,2022.1.2,MacIntel,66.66666667,,,space,0.542,0,25,25,14,1,トマ　ルピン　ムク,,,CartoonStims/burglar_point_cowboy_r.jpg,audio/tomalupinmuku.mp3,,,,,,,,,,,,,,,,,,,,,,,,,,,,,,,,,,,,,,,,,,,,,,,,,,,,,,,,,,,,,,,,,,,,,
,,,,,,,,,R_3FWgxLLz5Tirefk,2022-09-28_12h47.04.667,jpn_C03,2022.1.2,MacIntel,66.66666667,,,space,0.274,0,26,26,16,1,トマ　ホレト　ピポ,,,CartoonStims/chef_point_doctor_r.jpg,audio/tomahoretopipo.mp3,,,,,,,,,,,,,,,,,,,,,,,,,,,,,,,,,,,,,,,,,,,,,,,,,,,,,,,,,,,,,,,,,,,,,
,,,,,,,,,R_3FWgxLLz5Tirefk,2022-09-28_12h47.04.667,jpn_C03,2022.1.2,MacIntel,66.66666667,,,space,0.277,0,27,27,37,1,プミ　シド　ドキ,,,CartoonStims/artist_punch_boxer_r.jpg,audio/pumisidodoki.mp3,,,,,,,,,,,,,,,,,,,,,,,,,,,,,,,,,,,,,,,,,,,,,,,,,,,,,,,,,,,,,,,,,,,,,
,,,,,,,,,R_3FWgxLLz5Tirefk,2022-09-28_12h47.04.667,jpn_C03,2022.1.2,MacIntel,66.66666667,,,space,1.267,0,28,28,5,1,セル　ホレト　ピポ,,,CartoonStims/chef_kick_doctor_r.jpg,audio/seruhoretopipo.mp3,,,,,,,,,,,,,,,,,,,,,,,,,,,,,,,,,,,,,,,,,,,,,,,,,,,,,,,,,,,,,,,,,,,,,
,,,,,,,,,R_3FWgxLLz5Tirefk,2022-09-28_12h47.04.667,jpn_C03,2022.1.2,MacIntel,66.66666667,,,space,0.097,0,29,29,3,1,セル　ルピン　ムク,,,CartoonStims/burglar_kick_cowboy_r.jpg,audio/serulupinmuku.mp3,,,,,,,,,,,,,,,,,,,,,,,,,,,,,,,,,,,,,,,,,,,,,,,,,,,,,,,,,,,,,,,,,,,,,
,,,,,,,,,R_3FWgxLLz5Tirefk,2022-09-28_12h47.04.667,jpn_C03,2022.1.2,MacIntel,66.66666667,,,space,0.097,0,30,30,0,1,セル　シド　ルピン,,,CartoonStims/artist_kick_burglar_r.jpg,audio/serusidolupin.mp3,,,,,,,,,,,,,,,,,,,,,,,,,,,,,,,,,,,,,,,,,,,,,,,,,,,,,,,,,,,,,,,,,,,,,
,,,,,,,,,R_3FWgxLLz5Tirefk,2022-09-28_12h47.04.667,jpn_C03,2022.1.2,MacIntel,66.66666667,,,space,0.109,0,31,31,31,1,パツ　ムク　ルピン,,,CartoonStims/cowboy_shoot_burglar_r.jpg,audio/patsumukulupin.mp3,,,,,,,,,,,,,,,,,,,,,,,,,,,,,,,,,,,,,,,,,,,,,,,,,,,,,,,,,,,,,,,,,,,,,
,,,,,,,,,R_3FWgxLLz5Tirefk,2022-09-28_12h47.04.667,jpn_C03,2022.1.2,MacIntel,66.66666667,,,space,0.822,0,32,32,41,1,プミ　ホレト　ルピン,,,CartoonStims/chef_punch_burglar_r.jpg,audio/pumihoretolupin.mp3,,,,,,,,,,,,,,,,,,,,,,,,,,,,,,,,,,,,,,,,,,,,,,,,,,,,,,,,,,,,,,,,,,,,,
,,,,,,,,,R_3FWgxLLz5Tirefk,2022-09-28_12h47.04.667,jpn_C03,2022.1.2,MacIntel,66.66666667,,,space,0.691,0,33,33,23,1,トマ　ドキ　ホレト,,,CartoonStims/boxer_point_chef_r.jpg,audio/tomadokihoreto.mp3,,,,,,,,,,,,,,,,,,,,,,,,,,,,,,,,,,,,,,,,,,,,,,,,,,,,,,,,,,,,,,,,,,,,,
,,,,,,,,,R_3FWgxLLz5Tirefk,2022-09-28_12h47.04.667,jpn_C03,2022.1.2,MacIntel,66.66666667,,,space,0.124,0,34,34,25,1,パツ　シド　ピポ,,,CartoonStims/artist_shoot_doctor_r.jpg,audio/patsusidopipo.mp3,,,,,,,,,,,,,,,,,,,,,,,,,,,,,,,,,,,,,,,,,,,,,,,,,,,,,,,,,,,,,,,,,,,,,
,,,,,,,,,R_3FWgxLLz5Tirefk,2022-09-28_12h47.04.667,jpn_C03,2022.1.2,MacIntel,66.66666667,,,space,4.329,0,35,35,27,1,パツ　ルピン　ドキ,,,CartoonStims/burglar_shoot_boxer_r.jpg,audio/patsulupindoki.mp3,,,,,,,,,,,,,,,,,,,,,,,,,,,,,,,,,,,,,,,,,,,,,,,,,,,,,,,,,,,,,,,,,,,,,
,,,,,,,,,R_3FWgxLLz5Tirefk,2022-09-28_12h47.04.667,jpn_C03,2022.1.2,MacIntel,66.66666667,,,space,0.175,0,36,36,34,1,パツ　ドキ　ホレト,,,CartoonStims/boxer_shoot_chef_r.jpg,audio/patsudokihoreto.mp3,,,,,,,,,,,,,,,,,,,,,,,,,,,,,,,,,,,,,,,,,,,,,,,,,,,,,,,,,,,,,,,,,,,,,
,,,,,,,,,R_3FWgxLLz5Tirefk,2022-09-28_12h47.04.667,jpn_C03,2022.1.2,MacIntel,66.66666667,,,space,0.207,0,37,37,15,1,トマ　ルピン　ピポ,,,CartoonStims/burglar_point_doctor_r.jpg,audio/tomalupinpipo.mp3,,,,,,,,,,,,,,,,,,,,,,,,,,,,,,,,,,,,,,,,,,,,,,,,,,,,,,,,,,,,,,,,,,,,,
,,,,,,,,,R_3FWgxLLz5Tirefk,2022-09-28_12h47.04.667,jpn_C03,2022.1.2,MacIntel,66.66666667,,,space,1.28,0,38,38,4,1,セル　ホレト　ムク,,,CartoonStims/chef_kick_cowboy_r.jpg,audio/seruhoretomuku.mp3,,,,,,,,,,,,,,,,,,,,,,,,,,,,,,,,,,,,,,,,,,,,,,,,,,,,,,,,,,,,,,,,,,,,,
,,,,,,,,,R_3FWgxLLz5Tirefk,2022-09-28_12h47.04.667,jpn_C03,2022.1.2,MacIntel,66.66666667,,,space,0.474,0,39,39,19,1,トマ　ムク　シド,,,CartoonStims/cowboy_point_artist_r.jpg,audio/tomamukusido.mp3,,,,,,,,,,,,,,,,,,,,,,,,,,,,,,,,,,,,,,,,,,,,,,,,,,,,,,,,,,,,,,,,,,,,,
,,,,,,,,,R_3FWgxLLz5Tirefk,2022-09-28_12h47.04.667,jpn_C03,2022.1.2,MacIntel,66.66666667,,,space,0.41,0,40,40,21,1,トマ　ピポ　ルピン,,,CartoonStims/doctor_point_burglar_r.jpg,audio/tomapipolupin.mp3,,,,,,,,,,,,,,,,,,,,,,,,,,,,,,,,,,,,,,,,,,,,,,,,,,,,,,,,,,,,,,,,,,,,,
,,,,,,,,,R_3FWgxLLz5Tirefk,2022-09-28_12h47.04.667,jpn_C03,2022.1.2,MacIntel,66.66666667,,,space,0.326,0,41,41,26,1,パツ　ルピン　ピポ,,,CartoonStims/burglar_shoot_doctor_r.jpg,audio/patsulupinpipo.mp3,,,,,,,,,,,,,,,,,,,,,,,,,,,,,,,,,,,,,,,,,,,,,,,,,,,,,,,,,,,,,,,,,,,,,
,,,,,,,,,R_3FWgxLLz5Tirefk,2022-09-28_12h47.04.667,jpn_C03,2022.1.2,MacIntel,66.66666667,,,space,0.347,0,42,42,47,1,プミ　ドキ　ピポ,,,CartoonStims/boxer_punch_doctor_r.jpg,audio/pumidokipipo.mp3,,,,,,,,,,,,,,,,,,,,,,,,,,,,,,,,,,,,,,,,,,,,,,,,,,,,,,,,,,,,,,,,,,,,,
,,,,,,,,,R_3FWgxLLz5Tirefk,2022-09-28_12h47.04.667,jpn_C03,2022.1.2,MacIntel,66.66666667,,,space,0.401,0,43,43,46,1,プミ　ドキ　ムク,,,CartoonStims/boxer_punch_cowboy_r.jpg,audio/pumidokimuku.mp3,,,,,,,,,,,,,,,,,,,,,,,,,,,,,,,,,,,,,,,,,,,,,,,,,,,,,,,,,,,,,,,,,,,,,
,,,,,,,,,R_3FWgxLLz5Tirefk,2022-09-28_12h47.04.667,jpn_C03,2022.1.2,MacIntel,66.66666667,,,space,0.32,0,44,44,32,1,パツ　ピポ　ルピン,,,CartoonStims/doctor_shoot_burglar_r.jpg,audio/patsupipolupin.mp3,,,,,,,,,,,,,,,,,,,,,,,,,,,,,,,,,,,,,,,,,,,,,,,,,,,,,,,,,,,,,,,,,,,,,
,,,,,,,,,R_3FWgxLLz5Tirefk,2022-09-28_12h47.04.667,jpn_C03,2022.1.2,MacIntel,66.66666667,,,space,0.175,0,45,45,12,1,トマ　シド　ホレト,,,CartoonStims/artist_point_chef_r.jpg,audio/tomasidohoreto.mp3,,,,,,,,,,,,,,,,,,,,,,,,,,,,,,,,,,,,,,,,,,,,,,,,,,,,,,,,,,,,,,,,,,,,,
,,,,,,,,,R_3FWgxLLz5Tirefk,2022-09-28_12h47.04.667,jpn_C03,2022.1.2,MacIntel,66.66666667,,,space,0.156,0,46,46,43,1,プミ　ムク　ホレト,,,CartoonStims/cowboy_punch_chef_r.jpg,audio/pumimukuhoreto.mp3,,,,,,,,,,,,,,,,,,,,,,,,,,,,,,,,,,,,,,,,,,,,,,,,,,,,,,,,,,,,,,,,,,,,,
,,,,,,,,,R_3FWgxLLz5Tirefk,2022-09-28_12h47.04.667,jpn_C03,2022.1.2,MacIntel,66.66666667,,,space,0.413,0,47,47,13,1,トマ　シド　ムク,,,CartoonStims/artist_point_cowboy_r.jpg,audio/tomasidomuku.mp3,,,,,,,,,,,,,,,,,,,,,,,,,,,,,,,,,,,,,,,,,,,,,,,,,,,,,,,,,,,,,,,,,,,,,
,,,,,,,,,R_3FWgxLLz5Tirefk,2022-09-28_12h47.04.667,jpn_C03,2022.1.2,MacIntel,66.66666667,,,,,,,,,,,,,,,space,0.039,right,1,6.324,0,0,0,0,1,,,,,,,,,,,,,,,,,,,,,,,,,,,,,,,,,,,,,,,,,,,,,,,,,,,,,,,,,,,
,,,,,,,,,R_3FWgxLLz5Tirefk,2022-09-28_12h47.04.667,jpn_C03,2022.1.2,MacIntel,66.66666667,,,,,,,,,,,,,,,,,,,,,,,,,0,0,0,11,1,CartoonStims/burglar_punch_cowboy_r.jpg,プミ　ホレト　ムク,CartoonStims/chef_punch_cowboy_r.jpg,right,CartoonStims/chef_punch_cowboy_r.jpg,audio/pumihoretomuku.mp3,残念！ こちらが正しい画像です。,,,,,,,,,,,,,,,,,,,,,,,,,,,,,,,,,,,,,,,,,,,,,,,
,,,,,,,,,R_3FWgxLLz5Tirefk,2022-09-28_12h47.04.667,jpn_C03,2022.1.2,MacIntel,66.66666667,,,,,,,,,,,,,,,,,right,1,3.453,0,0,0,0,1,,,,,,,,,,,,,,,,,,,,,,,,,,,,,,,,,,,,,,,,,,,,,,,,,,,,,,,,,,,
,,,,,,,,,R_3FWgxLLz5Tirefk,2022-09-28_12h47.04.667,jpn_C03,2022.1.2,MacIntel,66.66666667,,,,,,,,,,,,,,,,,,,,,,,,,0,1,1,3,1,CartoonStims/cowboy_punch_doctor_r.jpg,プミ　ムク　ドキ,CartoonStims/cowboy_punch_boxer_r.jpg,right,CartoonStims/cowboy_punch_boxer_r.jpg,audio/pumimukudoki.mp3,残念！ こちらが正しい画像です。,,,,,,,,,,,,,,,,,,,,,,,,,,,,,,,,,,,,,,,,,,,,,,,
,,,,,,,,,R_3FWgxLLz5Tirefk,2022-09-28_12h47.04.667,jpn_C03,2022.1.2,MacIntel,66.66666667,,,,,,,,,,,,,,,,,right,1,2.188,0,0,0,0,1,,,,,,,,,,,,,,,,,,,,,,,,,,,,,,,,,,,,,,,,,,,,,,,,,,,,,,,,,,,
,,,,,,,,,R_3FWgxLLz5Tirefk,2022-09-28_12h47.04.667,jpn_C03,2022.1.2,MacIntel,66.66666667,,,,,,,,,,,,,,,,,,,,,,,,,0,2,2,1,1,CartoonStims/chef_point_burglar_r.jpg,トマ　ホレト　シド,CartoonStims/chef_point_artist_r.jpg,right,CartoonStims/chef_point_artist_r.jpg,audio/tomahoretosido.mp3,残念！ こちらが正しい画像です。,,,,,,,,,,,,,,,,,,,,,,,,,,,,,,,,,,,,,,,,,,,,,,,
,,,,,,,,,R_3FWgxLLz5Tirefk,2022-09-28_12h47.04.667,jpn_C03,2022.1.2,MacIntel,66.66666667,,,,,,,,,,,,,,,,,right,1,1.292,0,0,0,0,1,,,,,,,,,,,,,,,,,,,,,,,,,,,,,,,,,,,,,,,,,,,,,,,,,,,,,,,,,,,
,,,,,,,,,R_3FWgxLLz5Tirefk,2022-09-28_12h47.04.667,jpn_C03,2022.1.2,MacIntel,66.66666667,,,,,,,,,,,,,,,,,,,,,,,,,0,3,3,5,1,CartoonStims/cowboy_point_chef_r.jpg,パツ　ムク　ホレト,CartoonStims/cowboy_shoot_chef_r.jpg,right,CartoonStims/cowboy_shoot_chef_r.jpg,audio/patsumukuhoreto.mp3,残念！ こちらが正しい画像です。,,,,,,,,,,,,,,,,,,,,,,,,,,,,,,,,,,,,,,,,,,,,,,,
,,,,,,,,,R_3FWgxLLz5Tirefk,2022-09-28_12h47.04.667,jpn_C03,2022.1.2,MacIntel,66.66666667,,,,,,,,,,,,,,,,,left,1,1.669,,,,,,,,,,,,,,,,,,0,0,0,0,1,,,,,,,,,,,,,,,,,,,,,,,,,,,,,,,,,,,,,,,,,,
,,,,,,,,,R_3FWgxLLz5Tirefk,2022-09-28_12h47.04.667,jpn_C03,2022.1.2,MacIntel,66.66666667,,,,,,,,,,,,,,,,,,,,,,,,,0,4,4,6,1,CartoonStims/doctor_punch_boxer_r.jpg,プミ　ピポ　ドキ,CartoonStims/doctor_shoot_boxer_r.jpg,left,CartoonStims/doctor_punch_boxer_r.jpg,audio/pumipipodoki.mp3,残念！ こちらが正しい画像です。,,,,,,,,,,,,,,,,,,,,,,,,,,,,,,,,,,,,,,,,,,,,,,,
,,,,,,,,,R_3FWgxLLz5Tirefk,2022-09-28_12h47.04.667,jpn_C03,2022.1.2,MacIntel,66.66666667,,,,,,,,,,,,,,,,,left,1,6.027,,,,,,,,,,,,,,,,,,0,0,0,0,1,,,,,,,,,,,,,,,,,,,,,,,,,,,,,,,,,,,,,,,,,,
,,,,,,,,,R_3FWgxLLz5Tirefk,2022-09-28_12h47.04.667,jpn_C03,2022.1.2,MacIntel,66.66666667,,,,,,,,,,,,,,,,,,,,,,,,,0,5,5,2,1,CartoonStims/boxer_shoot_doctor_r.jpg,パツ　ドキ　ピポ,CartoonStims/boxer_shoot_artist_r.jpg,left,CartoonStims/boxer_shoot_doctor_r.jpg,audio/patsudokipipo.mp3,残念！ こちらが正しい画像です。,,,,,,,,,,,,,,,,,,,,,,,,,,,,,,,,,,,,,,,,,,,,,,,
,,,,,,,,,R_3FWgxLLz5Tirefk,2022-09-28_12h47.04.667,jpn_C03,2022.1.2,MacIntel,66.66666667,,,,,,,,,,,,,,,,,right,1,4.156,0,0,0,0,1,,,,,,,,,,,,,,,,,,,,,,,,,,,,,,,,,,,,,,,,,,,,,,,,,,,,,,,,,,,
,,,,,,,,,R_3FWgxLLz5Tirefk,2022-09-28_12h47.04.667,jpn_C03,2022.1.2,MacIntel,66.66666667,,,,,,,,,,,,,,,,,,,,,,,,,0,6,6,7,1,CartoonStims/artist_punch_cowboy_r.jpg,セル　シド　ムク,CartoonStims/artist_kick_cowboy_r.jpg,right,CartoonStims/artist_kick_cowboy_r.jpg,audio/serusidomuku.mp3,残念！ こちらが正しい画像です。,,,,,,,,,,,,,,,,,,,,,,,,,,,,,,,,,,,,,,,,,,,,,,,
,,,,,,,,,R_3FWgxLLz5Tirefk,2022-09-28_12h47.04.667,jpn_C03,2022.1.2,MacIntel,66.66666667,,,,,,,,,,,,,,,,,left,1,2.404,,,,,,,,,,,,,,,,,,0,0,0,0,1,,,,,,,,,,,,,,,,,,,,,,,,,,,,,,,,,,,,,,,,,,
,,,,,,,,,R_3FWgxLLz5Tirefk,2022-09-28_12h47.04.667,jpn_C03,2022.1.2,MacIntel,66.66666667,,,,,,,,,,,,,,,,,,,,,,,,,0,7,7,10,1,CartoonStims/artist_shoot_burglar_r.jpg,パツ　シド　ルピン,CartoonStims/chef_shoot_burglar_r.jpg,left,CartoonStims/artist_shoot_burglar_r.jpg,audio/patsusidolupin.mp3,残念！ こちらが正しい画像です。,,,,,,,,,,,,,,,,,,,,,,,,,,,,,,,,,,,,,,,,,,,,,,,
,,,,,,,,,R_3FWgxLLz5Tirefk,2022-09-28_12h47.04.667,jpn_C03,2022.1.2,MacIntel,66.66666667,,,,,,,,,,,,,,,,,left,1,3.127,,,,,,,,,,,,,,,,,,0,0,0,0,1,,,,,,,,,,,,,,,,,,,,,,,,,,,,,,,,,,,,,,,,,,
,,,,,,,,,R_3FWgxLLz5Tirefk,2022-09-28_12h47.04.667,jpn_C03,2022.1.2,MacIntel,66.66666667,,,,,,,,,,,,,,,,,,,,,,,,,0,8,8,8,1,CartoonStims/doctor_point_cowboy_r.jpg,トマ　ピポ　ムク,CartoonStims/boxer_point_cowboy_r.jpg,left,CartoonStims/doctor_point_cowboy_r.jpg,audio/tomapipomuku.mp3,残念！ こちらが正しい画像です。,,,,,,,,,,,,,,,,,,,,,,,,,,,,,,,,,,,,,,,,,,,,,,,
,,,,,,,,,R_3FWgxLLz5Tirefk,2022-09-28_12h47.04.667,jpn_C03,2022.1.2,MacIntel,66.66666667,,,,,,,,,,,,,,,,,right,1,2.74,0,0,0,0,1,,,,,,,,,,,,,,,,,,,,,,,,,,,,,,,,,,,,,,,,,,,,,,,,,,,,,,,,,,,
,,,,,,,,,R_3FWgxLLz5Tirefk,2022-09-28_12h47.04.667,jpn_C03,2022.1.2,MacIntel,66.66666667,,,,,,,,,,,,,,,,,,,,,,,,,0,9,9,9,1,CartoonStims/chef_kick_artist_r.jpg,セル　ムク　シド,CartoonStims/cowboy_kick_artist_r.jpg,right,CartoonStims/cowboy_kick_artist_r.jpg,audio/serumukusido.mp3,残念！ こちらが正しい画像です。,,,,,,,,,,,,,,,,,,,,,,,,,,,,,,,,,,,,,,,,,,,,,,,
,,,,,,,,,R_3FWgxLLz5Tirefk,2022-09-28_12h47.04.667,jpn_C03,2022.1.2,MacIntel,66.66666667,,,,,,,,,,,,,,,,,left,1,2.174,,,,,,,,,,,,,,,,,,0,0,0,0,1,,,,,,,,,,,,,,,,,,,,,,,,,,,,,,,,,,,,,,,,,,
,,,,,,,,,R_3FWgxLLz5Tirefk,2022-09-28_12h47.04.667,jpn_C03,2022.1.2,MacIntel,66.66666667,,,,,,,,,,,,,,,,,,,,,,,,,0,10,10,4,1,CartoonStims/burglar_point_boxer_r.jpg,トマ　ルピン　ドキ,CartoonStims/burglar_kick_boxer_r.jpg,left,CartoonStims/burglar_point_boxer_r.jpg,audio/tomalupindoki.mp3,残念！ こちらが正しい画像です。,,,,,,,,,,,,,,,,,,,,,,,,,,,,,,,,,,,,,,,,,,,,,,,
,,,,,,,,,R_3FWgxLLz5Tirefk,2022-09-28_12h47.04.667,jpn_C03,2022.1.2,MacIntel,66.66666667,,,,,,,,,,,,,,,,,left,1,1.984,,,,,,,,,,,,,,,,,,0,0,0,0,1,,,,,,,,,,,,,,,,,,,,,,,,,,,,,,,,,,,,,,,,,,
,,,,,,,,,R_3FWgxLLz5Tirefk,2022-09-28_12h47.04.667,jpn_C03,2022.1.2,MacIntel,66.66666667,,,,,,,,,,,,,,,,,,,,,,,,,0,11,11,0,1,CartoonStims/doctor_kick_burglar_r.jpg,セル　ピポ　ルピン,CartoonStims/doctor_kick_chef_r.jpg,left,CartoonStims/doctor_kick_burglar_r.jpg,audio/serupipolupin.mp3,残念！ こちらが正しい画像です。,,,,,,,,,,,,,,,,,,,,,,,,,,,,,,,,,,,,,,,,,,,,,,,
,,,,,,,,,R_3FWgxLLz5Tirefk,2022-09-28_12h47.04.667,jpn_C03,2022.1.2,MacIntel,66.66666667,,,,,,,,,,,,,,,,,,,,,,,,,,,,,,,,,,,,,,,,,,space,5.732,セル　ドキ　ムク,right,17.297,0,0,0,0,1,,,,,,,,,,,,,,,,,,,,,,,,,,,,,,,,
,,,,,,,,,R_3FWgxLLz5Tirefk,2022-09-28_12h47.04.667,jpn_C03,2022.1.2,MacIntel,66.66666667,,,,,,,,,,,,,CartoonStims/boxer_kick_cowboy_r.jpg,audio/serudokimuku.mp3,,,,,,,,,,,,,,,,,,,,,,,,,,,,,,,,,,,,,,0,0,0,2,1,セル　ドキ　ムク,,,,,,,,,,,,,,,,,,,,,,,,,,
,,,,,,,,,R_3FWgxLLz5Tirefk,2022-09-28_12h47.04.667,jpn_C03,2022.1.2,MacIntel,66.66666667,,,,,,,,,,,,,,,,,,,,,,,,,,,,,,,,,,,,,,,,,,,,トマ　ホレト　ルピン,right,13.054,0,0,0,0,1,,,,,,,,,,,,,,,,,,,,,,,,,,,,,,,,
,,,,,,,,,R_3FWgxLLz5Tirefk,2022-09-28_12h47.04.667,jpn_C03,2022.1.2,MacIntel,66.66666667,,,,,,,,,,,,,CartoonStims/chef_point_burglar_r.jpg,audio/tomahoretolupin.mp3,,,,,,,,,,,,,,,,,,,,,,,,,,,,,,,,,,,,,,0,1,1,5,1,トマ　ホレト　ルピン,,,,,,,,,,,,,,,,,,,,,,,,,,
,,,,,,,,,R_3FWgxLLz5Tirefk,2022-09-28_12h47.04.667,jpn_C03,2022.1.2,MacIntel,66.66666667,,,,,,,,,,,,,,,,,,,,,,,,,,,,,,,,,,,,,,,,,,,,セル　シド　ルピン,right,14.915,0,0,0,0,1,,,,,,,,,,,,,,,,,,,,,,,,,,,,,,,,
,,,,,,,,,R_3FWgxLLz5Tirefk,2022-09-28_12h47.04.667,jpn_C03,2022.1.2,MacIntel,66.66666667,,,,,,,,,,,,,CartoonStims/cowboy_kick_burglar_r.jpg,audio/serumukulupin.mp3,,,,,,,,,,,,,,,,,,,,,,,,,,,,,,,,,,,,,,0,2,2,0,1,セル　ムク　ルピン,,,,,,,,,,,,,,,,,,,,,,,,,,
,,,,,,,,,R_3FWgxLLz5Tirefk,2022-09-28_12h47.04.667,jpn_C03,2022.1.2,MacIntel,66.66666667,,,,,,,,,,,,,,,,,,,,,,,,,,,,,,,,,,,,,,,,,,,,"パツ　ルピン　ホレト
",right,18.373,0,0,0,0,1,,,,,,,,,,,,,,,,,,,,,,,,,,,,,,,,
,,,,,,,,,R_3FWgxLLz5Tirefk,2022-09-28_12h47.04.667,jpn_C03,2022.1.2,MacIntel,66.66666667,,,,,,,,,,,,,CartoonStims/burglar_shoot_chef_r.jpg,audio/patsulupinhoreto.mp3,,,,,,,,,,,,,,,,,,,,,,,,,,,,,,,,,,,,,,0,3,3,6,1,パツ　ルピン　ホレト,,,,,,,,,,,,,,,,,,,,,,,,,,
,,,,,,,,,R_3FWgxLLz5Tirefk,2022-09-28_12h47.04.667,jpn_C03,2022.1.2,MacIntel,66.66666667,,,,,,,,,,,,,,,,,,,,,,,,,,,,,,,,,,,,,,,,,,,,"プミ　ピポ　ドキ
",right,11.26,0,0,0,0,1,,,,,,,,,,,,,,,,,,,,,,,,,,,,,,,,
,,,,,,,,,R_3FWgxLLz5Tirefk,2022-09-28_12h47.04.667,jpn_C03,2022.1.2,MacIntel,66.66666667,,,,,,,,,,,,,CartoonStims/doctor_punch_boxer_r.jpg,audio/pumipipodoki.mp3,,,,,,,,,,,,,,,,,,,,,,,,,,,,,,,,,,,,,,0,4,4,10,1,プミ　ピポ　ドキ,,,,,,,,,,,,,,,,,,,,,,,,,,
,,,,,,,,,R_3FWgxLLz5Tirefk,2022-09-28_12h47.04.667,jpn_C03,2022.1.2,MacIntel,66.66666667,,,,,,,,,,,,,,,,,,,,,,,,,,,,,,,,,,,,,,,,,,,,パツ　ホレト　ムク,right,20.71,0,0,0,0,1,,,,,,,,,,,,,,,,,,,,,,,,,,,,,,,,
,,,,,,,,,R_3FWgxLLz5Tirefk,2022-09-28_12h47.04.667,jpn_C03,2022.1.2,MacIntel,66.66666667,,,,,,,,,,,,,CartoonStims/chef_shoot_cowboy_r.jpg,audio/patsuhoretomuku.mp3,,,,,,,,,,,,,,,,,,,,,,,,,,,,,,,,,,,,,,0,5,5,7,1,パツ　ホレト　ムク,,,,,,,,,,,,,,,,,,,,,,,,,,
,,,,,,,,,R_3FWgxLLz5Tirefk,2022-09-28_12h47.04.667,jpn_C03,2022.1.2,MacIntel,66.66666667,,,,,,,,,,,,,,,,,,,,,,,,,,,,,,,,,,,,,,,,,,,,トマ　ルピン　シド　,right,14.25,0,0,0,0,1,,,,,,,,,,,,,,,,,,,,,,,,,,,,,,,,
,,,,,,,,,R_3FWgxLLz5Tirefk,2022-09-28_12h47.04.667,jpn_C03,2022.1.2,MacIntel,66.66666667,,,,,,,,,,,,,CartoonStims/burglar_point_artist_r.jpg,audio/tomalupinsido.mp3,,,,,,,,,,,,,,,,,,,,,,,,,,,,,,,,,,,,,,0,6,6,4,1,トマ　ルピン　シド,,,,,,,,,,,,,,,,,,,,,,,,,,
,,,,,,,,,R_3FWgxLLz5Tirefk,2022-09-28_12h47.04.667,jpn_C03,2022.1.2,MacIntel,66.66666667,,,,,,,,,,,,,,,,,,,,,,,,,,,,,,,,,,,,,,,,,,,,トマ　シド　ドキ,right,8.436,0,0,0,0,1,,,,,,,,,,,,,,,,,,,,,,,,,,,,,,,,
,,,,,,,,,R_3FWgxLLz5Tirefk,2022-09-28_12h47.04.667,jpn_C03,2022.1.2,MacIntel,66.66666667,,,,,,,,,,,,,CartoonStims/artist_point_boxer_r.jpg,audio/tomasidodoki.mp3,,,,,,,,,,,,,,,,,,,,,,,,,,,,,,,,,,,,,,0,7,7,3,1,トマ　シド　ドキ,,,,,,,,,,,,,,,,,,,,,,,,,,
,,,,,,,,,R_3FWgxLLz5Tirefk,2022-09-28_12h47.04.667,jpn_C03,2022.1.2,MacIntel,66.66666667,,,,,,,,,,,,,,,,,,,,,,,,,,,,,,,,,,,,,,,,,,,,プミ　ドキ　シド,right,11.093,0,0,0,0,1,,,,,,,,,,,,,,,,,,,,,,,,,,,,,,,,
,,,,,,,,,R_3FWgxLLz5Tirefk,2022-09-28_12h47.04.667,jpn_C03,2022.1.2,MacIntel,66.66666667,,,,,,,,,,,,,CartoonStims/boxer_punch_artist_r.jpg,audio/pumidokisido.mp3,,,,,,,,,,,,,,,,,,,,,,,,,,,,,,,,,,,,,,0,8,8,11,1,プミ　ドキ　シド,,,,,,,,,,,,,,,,,,,,,,,,,,
,,,,,,,,,R_3FWgxLLz5Tirefk,2022-09-28_12h47.04.667,jpn_C03,2022.1.2,MacIntel,66.66666667,,,,,,,,,,,,,,,,,,,,,,,,,,,,,,,,,,,,,,,,,,,,"セル　ピポ　ホレト
",right,12.675,0,0,0,0,1,,,,,,,,,,,,,,,,,,,,,,,,,,,,,,,,
,,,,,,,,,R_3FWgxLLz5Tirefk,2022-09-28_12h47.04.667,jpn_C03,2022.1.2,MacIntel,66.66666667,,,,,,,,,,,,,CartoonStims/doctor_kick_chef_r.jpg,audio/serupipohoreto.mp3,,,,,,,,,,,,,,,,,,,,,,,,,,,,,,,,,,,,,,0,9,9,1,1,セル　ピポ　ホレト,,,,,,,,,,,,,,,,,,,,,,,,,,
,,,,,,,,,R_3FWgxLLz5Tirefk,2022-09-28_12h47.04.667,jpn_C03,2022.1.2,MacIntel,66.66666667,,,,,,,,,,,,,,,,,,,,,,,,,,,,,,,,,,,,,,,,,,,,"プミ　シド　ルピン
",right,13.413,0,0,0,0,1,,,,,,,,,,,,,,,,,,,,,,,,,,,,,,,,
,,,,,,,,,R_3FWgxLLz5Tirefk,2022-09-28_12h47.04.667,jpn_C03,2022.1.2,MacIntel,66.66666667,,,,,,,,,,,,,CartoonStims/artist_punch_burglar_r.jpg,audio/pumisidolupin.mp3,,,,,,,,,,,,,,,,,,,,,,,,,,,,,,,,,,,,,,0,10,10,9,1,プミ　シド　ルピン,,,,,,,,,,,,,,,,,,,,,,,,,,
,,,,,,,,,R_3FWgxLLz5Tirefk,2022-09-28_12h47.04.667,jpn_C03,2022.1.2,MacIntel,66.66666667,,,,,,,,,,,,,,,,,,,,,,,,,,,,,,,,,,,,,,,,,,,,"パツ　シド　ピポ
",right,10.168,0,0,0,0,1,,,,,,,,,,,,,,,,,,,,,,,,,,,,,,,,
,,,,,,,,,R_3FWgxLLz5Tirefk,2022-09-28_12h47.04.667,jpn_C03,2022.1.2,MacIntel,66.66666667,,,,,,,,,,,,,CartoonStims/cowboy_shoot_doctor_r.jpg,audio/patsumukupipo.mp3,,,,,,,,,,,,,,,,,,,,,,,,,,,,,,,,,,,,,,0,11,11,8,1,パツ　ムク　ピポ,,,,,,,,,,,,,,,,,,,,,,,,,,
,,,,,,,,,R_3FWgxLLz5Tirefk,2022-09-28_12h47.04.667,jpn_C03,2022.1.2,MacIntel,66.66666667,,,,,,,,,,,,,,,,,,,,,,,,,,,,,,,,,,,,,,,,,,,,,,,,,,,,,,,,,,,space,17.044,0,1,1,1,1,AffExposure.xlsx,"第二のトライアルの学習では、この言語で書かれた文を見ていただきます。引き続き注意して、 聞こえた音を復唱してください。


スペースキーを押してください。",1,AffFCT.xlsx,ここからクイズが始まります。 スクリーンに表示されるテキストに合う画像を選んでください。,AffTest.xlsx,1,次にここまで学んだことをアウトプットしていただきます。 表示される画像を描写していると思う単語を、テキストボックスにタイプしてください。 答えを提出したあとに正しい正解が少しの間画面に写ります。,1,"これで第二のトライアルが終了しました。 ここで休憩をとっていただいても構いません。

休憩が終わりましたら、 スペースキーを押して続きの学習を行いましょう。",,,,,,,,
,,,,,,,,,R_3FWgxLLz5Tirefk,2022-09-28_12h47.04.667,jpn_C03,2022.1.2,MacIntel,66.66666667,space,24.189,space,7.5,0,0,0,47,1,プミ　ピク　ドキ　ピポ,,,CartoonStims/boxer_punch_doctor_r_no.jpg,audio/pumipikudokipipo.mp3,,,,,,,,,,,,,,,,,,,,,,,,,,,,,,,,,,,,,,,,,,,,,,,,,,,,,,,,,,,,,,,,,,,,,
,,,,,,,,,R_3FWgxLLz5Tirefk,2022-09-28_12h47.04.667,jpn_C03,2022.1.2,MacIntel,66.66666667,,,space,1.519,0,1,1,35,1,パツ　ピク　ドキ　ムク,,,CartoonStims/boxer_shoot_cowboy_r_no.jpg,audio/patsupikudokimuku.mp3,,,,,,,,,,,,,,,,,,,,,,,,,,,,,,,,,,,,,,,,,,,,,,,,,,,,,,,,,,,,,,,,,,,,,
,,,,,,,,,R_3FWgxLLz5Tirefk,2022-09-28_12h47.04.667,jpn_C03,2022.1.2,MacIntel,66.66666667,,,space,0.337,0,2,2,34,1,パツ　ピク　ドキ　ホレト,,,CartoonStims/boxer_shoot_chef_r_no.jpg,audio/patsupikudokihoreto.mp3,,,,,,,,,,,,,,,,,,,,,,,,,,,,,,,,,,,,,,,,,,,,,,,,,,,,,,,,,,,,,,,,,,,,,
,,,,,,,,,R_3FWgxLLz5Tirefk,2022-09-28_12h47.04.667,jpn_C03,2022.1.2,MacIntel,66.66666667,,,space,0.643,0,3,3,15,1,ピク　トマ　ルピン　ピポ,,,CartoonStims/burglar_point_doctor_r_no.jpg,audio/pikutomalupinpipo.mp3,,,,,,,,,,,,,,,,,,,,,,,,,,,,,,,,,,,,,,,,,,,,,,,,,,,,,,,,,,,,,,,,,,,,,
,,,,,,,,,R_3FWgxLLz5Tirefk,2022-09-28_12h47.04.667,jpn_C03,2022.1.2,MacIntel,66.66666667,,,space,4.58,0,4,4,8,1,ピク　セル　ピポ　ドキ,,,CartoonStims/doctor_kick_boxer_r_no.jpg,audio/pikuserupipodoki.mp3,,,,,,,,,,,,,,,,,,,,,,,,,,,,,,,,,,,,,,,,,,,,,,,,,,,,,,,,,,,,,,,,,,,,,
,,,,,,,,,R_3FWgxLLz5Tirefk,2022-09-28_12h47.04.667,jpn_C03,2022.1.2,MacIntel,66.66666667,,,space,13.707,0,5,5,45,1,プミ　ピク　ピポ　ムク,,,CartoonStims/doctor_punch_cowboy_r_no.jpg,audio/pumipikupipomuku.mp3,,,,,,,,,,,,,,,,,,,,,,,,,,,,,,,,,,,,,,,,,,,,,,,,,,,,,,,,,,,,,,,,,,,,,
,,,,,,,,,R_3FWgxLLz5Tirefk,2022-09-28_12h47.04.667,jpn_C03,2022.1.2,MacIntel,66.66666667,,,space,5.46,0,6,6,16,1,トマ　ピク　ホレト　ピポ,,,CartoonStims/chef_point_doctor_r_no.jpg,audio/tomapikuhoretopipo.mp3,,,,,,,,,,,,,,,,,,,,,,,,,,,,,,,,,,,,,,,,,,,,,,,,,,,,,,,,,,,,,,,,,,,,,
,,,,,,,,,R_3FWgxLLz5Tirefk,2022-09-28_12h47.04.667,jpn_C03,2022.1.2,MacIntel,66.66666667,,,space,1.77,0,7,7,31,1,パツ　ピク　ムク　ルピン,,,CartoonStims/cowboy_shoot_burglar_r_no.jpg,audio/patsupikumukulupin.mp3,,,,,,,,,,,,,,,,,,,,,,,,,,,,,,,,,,,,,,,,,,,,,,,,,,,,,,,,,,,,,,,,,,,,,
,,,,,,,,,R_3FWgxLLz5Tirefk,2022-09-28_12h47.04.667,jpn_C03,2022.1.2,MacIntel,66.66666667,,,space,1.852,0,8,8,13,1,トマ　ピク　シド　ムク,,,CartoonStims/artist_point_cowboy_r_no.jpg,audio/tomapikusidomuku.mp3,,,,,,,,,,,,,,,,,,,,,,,,,,,,,,,,,,,,,,,,,,,,,,,,,,,,,,,,,,,,,,,,,,,,,
,,,,,,,,,R_3FWgxLLz5Tirefk,2022-09-28_12h47.04.667,jpn_C03,2022.1.2,MacIntel,66.66666667,,,space,1.778,0,9,9,39,1,プミ　ピク　ルピン　シド,,,CartoonStims/burglar_punch_artist_r_no.jpg,audio/pumipikulupinsido.mp3,,,,,,,,,,,,,,,,,,,,,,,,,,,,,,,,,,,,,,,,,,,,,,,,,,,,,,,,,,,,,,,,,,,,,
,,,,,,,,,R_3FWgxLLz5Tirefk,2022-09-28_12h47.04.667,jpn_C03,2022.1.2,MacIntel,66.66666667,,,space,1.028,0,10,10,20,1,トマ　ピク　ピポ　シド,,,CartoonStims/doctor_point_artist_r_no.jpg,audio/tomapikupiposido.mp3,,,,,,,,,,,,,,,,,,,,,,,,,,,,,,,,,,,,,,,,,,,,,,,,,,,,,,,,,,,,,,,,,,,,,
,,,,,,,,,R_3FWgxLLz5Tirefk,2022-09-28_12h47.04.667,jpn_C03,2022.1.2,MacIntel,66.66666667,,,space,6.301,0,11,11,19,1,ピク　トマ　ムク　シド,,,CartoonStims/cowboy_point_artist_r_no.jpg,audio/pikutomamukusido.mp3,,,,,,,,,,,,,,,,,,,,,,,,,,,,,,,,,,,,,,,,,,,,,,,,,,,,,,,,,,,,,,,,,,,,,
,,,,,,,,,R_3FWgxLLz5Tirefk,2022-09-28_12h47.04.667,jpn_C03,2022.1.2,MacIntel,66.66666667,,,space,2.49,0,12,12,3,1,セル　ピク　ルピン　ムク,,,CartoonStims/burglar_kick_cowboy_r_no.jpg,audio/serupikulupinmuku.mp3,,,,,,,,,,,,,,,,,,,,,,,,,,,,,,,,,,,,,,,,,,,,,,,,,,,,,,,,,,,,,,,,,,,,,
,,,,,,,,,R_3FWgxLLz5Tirefk,2022-09-28_12h47.04.667,jpn_C03,2022.1.2,MacIntel,66.66666667,,,space,2.645,0,13,13,2,1,セル　ピク　ルピン　ホレト,,,CartoonStims/burglar_kick_chef_r_no.jpg,audio/serupikulupinhoreto.mp3,,,,,,,,,,,,,,,,,,,,,,,,,,,,,,,,,,,,,,,,,,,,,,,,,,,,,,,,,,,,,,,,,,,,,
,,,,,,,,,R_3FWgxLLz5Tirefk,2022-09-28_12h47.04.667,jpn_C03,2022.1.2,MacIntel,66.66666667,,,space,6.041,0,14,14,46,1,ピク　プミ　ドキ　ムク,,,CartoonStims/boxer_punch_cowboy_r_no.jpg,audio/pikupumidokimuku.mp3,,,,,,,,,,,,,,,,,,,,,,,,,,,,,,,,,,,,,,,,,,,,,,,,,,,,,,,,,,,,,,,,,,,,,
,,,,,,,,,R_3FWgxLLz5Tirefk,2022-09-28_12h47.04.667,jpn_C03,2022.1.2,MacIntel,66.66666667,,,space,6.113,0,15,15,7,1,セル　ピク　ムク　ドキ,,,CartoonStims/cowboy_kick_boxer_r_no.jpg,audio/serupikumukudoki.mp3,,,,,,,,,,,,,,,,,,,,,,,,,,,,,,,,,,,,,,,,,,,,,,,,,,,,,,,,,,,,,,,,,,,,,
,,,,,,,,,R_3FWgxLLz5Tirefk,2022-09-28_12h47.04.667,jpn_C03,2022.1.2,MacIntel,66.66666667,,,space,3.123,0,16,16,41,1,プミ　ピク　ホレト　ルピン,,,CartoonStims/chef_punch_burglar_r_no.jpg,audio/pumipikuhoretolupin.mp3,,,,,,,,,,,,,,,,,,,,,,,,,,,,,,,,,,,,,,,,,,,,,,,,,,,,,,,,,,,,,,,,,,,,,
,,,,,,,,,R_3FWgxLLz5Tirefk,2022-09-28_12h47.04.667,jpn_C03,2022.1.2,MacIntel,66.66666667,,,space,2.344,0,17,17,30,1,パツ　ピク　ムク　シド,,,CartoonStims/cowboy_shoot_artist_r_no.jpg,audio/patsupikumukusido.mp3,,,,,,,,,,,,,,,,,,,,,,,,,,,,,,,,,,,,,,,,,,,,,,,,,,,,,,,,,,,,,,,,,,,,,
,,,,,,,,,R_3FWgxLLz5Tirefk,2022-09-28_12h47.04.667,jpn_C03,2022.1.2,MacIntel,66.66666667,,,space,0.934,0,18,18,1,1,セル　ピク　シド　ホレト,,,CartoonStims/artist_kick_chef_r_no.jpg,audio/serupikusidohoreto.mp3,,,,,,,,,,,,,,,,,,,,,,,,,,,,,,,,,,,,,,,,,,,,,,,,,,,,,,,,,,,,,,,,,,,,,
,,,,,,,,,R_3FWgxLLz5Tirefk,2022-09-28_12h47.04.667,jpn_C03,2022.1.2,MacIntel,66.66666667,,,space,1.254,0,19,19,6,1,セル　ピク　ムク　ピポ,,,CartoonStims/cowboy_kick_doctor_r_no.jpg,audio/serupikumukupipo.mp3,,,,,,,,,,,,,,,,,,,,,,,,,,,,,,,,,,,,,,,,,,,,,,,,,,,,,,,,,,,,,,,,,,,,,
,,,,,,,,,R_3FWgxLLz5Tirefk,2022-09-28_12h47.04.667,jpn_C03,2022.1.2,MacIntel,66.66666667,,,space,1.168,0,20,20,9,1,セル　ピク　ピポ　シド,,,CartoonStims/doctor_kick_artist_r_no.jpg,audio/serupikupiposido.mp3,,,,,,,,,,,,,,,,,,,,,,,,,,,,,,,,,,,,,,,,,,,,,,,,,,,,,,,,,,,,,,,,,,,,,
,,,,,,,,,R_3FWgxLLz5Tirefk,2022-09-28_12h47.04.667,jpn_C03,2022.1.2,MacIntel,66.66666667,,,space,1.104,0,21,21,36,1,プミ　ピク　シド　ピポ,,,CartoonStims/artist_punch_doctor_r_no.jpg,audio/pumipikusidopipo.mp3,,,,,,,,,,,,,,,,,,,,,,,,,,,,,,,,,,,,,,,,,,,,,,,,,,,,,,,,,,,,,,,,,,,,,
,,,,,,,,,R_3FWgxLLz5Tirefk,2022-09-28_12h47.04.667,jpn_C03,2022.1.2,MacIntel,66.66666667,,,space,0.967,0,22,22,10,1,セル　ピク　ドキ　シド,,,CartoonStims/boxer_kick_artist_r_no.jpg,audio/serupikudokisido.mp3,,,,,,,,,,,,,,,,,,,,,,,,,,,,,,,,,,,,,,,,,,,,,,,,,,,,,,,,,,,,,,,,,,,,,
,,,,,,,,,R_3FWgxLLz5Tirefk,2022-09-28_12h47.04.667,jpn_C03,2022.1.2,MacIntel,66.66666667,,,space,0.936,0,23,23,26,1,パツ　ピク　ルピン　ピポ,,,CartoonStims/burglar_shoot_doctor_r_no.jpg,audio/patsupikulupinpipo.mp3,,,,,,,,,,,,,,,,,,,,,,,,,,,,,,,,,,,,,,,,,,,,,,,,,,,,,,,,,,,,,,,,,,,,,
,,,,,,,,,R_3FWgxLLz5Tirefk,2022-09-28_12h47.04.667,jpn_C03,2022.1.2,MacIntel,66.66666667,,,space,2.07,0,24,24,4,1,ピク　セル　ホレト　ムク,,,CartoonStims/chef_kick_cowboy_r_no.jpg,audio/pikuseruhoretomuku.mp3,,,,,,,,,,,,,,,,,,,,,,,,,,,,,,,,,,,,,,,,,,,,,,,,,,,,,,,,,,,,,,,,,,,,,
,,,,,,,,,R_3FWgxLLz5Tirefk,2022-09-28_12h47.04.667,jpn_C03,2022.1.2,MacIntel,66.66666667,,,space,1.636,0,25,25,18,1,トマ　ピク　ムク　ドキ,,,CartoonStims/cowboy_point_boxer_r_no.jpg,audio/tomapikumukudoki.mp3,,,,,,,,,,,,,,,,,,,,,,,,,,,,,,,,,,,,,,,,,,,,,,,,,,,,,,,,,,,,,,,,,,,,,
,,,,,,,,,R_3FWgxLLz5Tirefk,2022-09-28_12h47.04.667,jpn_C03,2022.1.2,MacIntel,66.66666667,,,space,6.231,0,26,26,25,1,ピク　パツ　シド　ピポ,,,CartoonStims/artist_shoot_doctor_r_no.jpg,audio/pikupatsusidopipo.mp3,,,,,,,,,,,,,,,,,,,,,,,,,,,,,,,,,,,,,,,,,,,,,,,,,,,,,,,,,,,,,,,,,,,,,
,,,,,,,,,R_3FWgxLLz5Tirefk,2022-09-28_12h47.04.667,jpn_C03,2022.1.2,MacIntel,66.66666667,,,space,0.445,0,27,27,22,1,トマ　ピク　ドキ　ルピン,,,CartoonStims/boxer_point_burglar_r_no.jpg,audio/tomapikudokilupin.mp3,,,,,,,,,,,,,,,,,,,,,,,,,,,,,,,,,,,,,,,,,,,,,,,,,,,,,,,,,,,,,,,,,,,,,
,,,,,,,,,R_3FWgxLLz5Tirefk,2022-09-28_12h47.04.667,jpn_C03,2022.1.2,MacIntel,66.66666667,,,space,0.377,0,28,28,14,1,トマ　ピク　ルピン　ムク,,,CartoonStims/burglar_point_cowboy_r_no.jpg,audio/tomapikulupinmuku.mp3,,,,,,,,,,,,,,,,,,,,,,,,,,,,,,,,,,,,,,,,,,,,,,,,,,,,,,,,,,,,,,,,,,,,,
,,,,,,,,,R_3FWgxLLz5Tirefk,2022-09-28_12h47.04.667,jpn_C03,2022.1.2,MacIntel,66.66666667,,,space,1.224,0,29,29,37,1,プミ　ピク　シド　ドキ,,,CartoonStims/artist_punch_boxer_r_no.jpg,audio/pumipikusidodoki.mp3,,,,,,,,,,,,,,,,,,,,,,,,,,,,,,,,,,,,,,,,,,,,,,,,,,,,,,,,,,,,,,,,,,,,,
,,,,,,,,,R_3FWgxLLz5Tirefk,2022-09-28_12h47.04.667,jpn_C03,2022.1.2,MacIntel,66.66666667,,,space,0.327,0,30,30,12,1,トマ　ピク　シド　ホレト,,,CartoonStims/artist_point_chef_r_no.jpg,audio/tomapikusidohoreto.mp3,,,,,,,,,,,,,,,,,,,,,,,,,,,,,,,,,,,,,,,,,,,,,,,,,,,,,,,,,,,,,,,,,,,,,
,,,,,,,,,R_3FWgxLLz5Tirefk,2022-09-28_12h47.04.667,jpn_C03,2022.1.2,MacIntel,66.66666667,,,space,3.976,0,31,31,44,1,ピク　プミ　ピポ　ホレト,,,CartoonStims/doctor_punch_chef_r_no.jpg,audio/pikupumipipohoreto.mp3,,,,,,,,,,,,,,,,,,,,,,,,,,,,,,,,,,,,,,,,,,,,,,,,,,,,,,,,,,,,,,,,,,,,,
,,,,,,,,,R_3FWgxLLz5Tirefk,2022-09-28_12h47.04.667,jpn_C03,2022.1.2,MacIntel,66.66666667,,,space,0.484,0,32,32,33,1,パツ　ピク　ピポ　ホレト,,,CartoonStims/doctor_shoot_chef_r_no.jpg,audio/patsupikupipohoreto.mp3,,,,,,,,,,,,,,,,,,,,,,,,,,,,,,,,,,,,,,,,,,,,,,,,,,,,,,,,,,,,,,,,,,,,,
,,,,,,,,,R_3FWgxLLz5Tirefk,2022-09-28_12h47.04.667,jpn_C03,2022.1.2,MacIntel,66.66666667,,,space,0.018,0,33,33,28,1,パツ　ピク　ホレト　ドキ,,,CartoonStims/chef_shoot_boxer_r_no.jpg,audio/patsupikuhoretodoki.mp3,,,,,,,,,,,,,,,,,,,,,,,,,,,,,,,,,,,,,,,,,,,,,,,,,,,,,,,,,,,,,,,,,,,,,
,,,,,,,,,R_3FWgxLLz5Tirefk,2022-09-28_12h47.04.667,jpn_C03,2022.1.2,MacIntel,66.66666667,,,space,0.737,0,34,34,29,1,ピク　パツ　ホレト　シド,,,CartoonStims/chef_shoot_artist_r_no.jpg,audio/pikupatsuhoretosido.mp3,,,,,,,,,,,,,,,,,,,,,,,,,,,,,,,,,,,,,,,,,,,,,,,,,,,,,,,,,,,,,,,,,,,,,
,,,,,,,,,R_3FWgxLLz5Tirefk,2022-09-28_12h47.04.667,jpn_C03,2022.1.2,MacIntel,66.66666667,,,space,0.207,0,35,35,23,1,ピク　トマ　ドキ　ホレト,,,CartoonStims/boxer_point_chef_r_no.jpg,audio/pikutomadokihoreto.mp3,,,,,,,,,,,,,,,,,,,,,,,,,,,,,,,,,,,,,,,,,,,,,,,,,,,,,,,,,,,,,,,,,,,,,
,,,,,,,,,R_3FWgxLLz5Tirefk,2022-09-28_12h47.04.667,jpn_C03,2022.1.2,MacIntel,66.66666667,,,space,0.161,0,36,36,40,1,プミ　ピク　ホレト　シド,,,CartoonStims/chef_punch_artist_r_no.jpg,audio/pumipikuhoretosido.mp3,,,,,,,,,,,,,,,,,,,,,,,,,,,,,,,,,,,,,,,,,,,,,,,,,,,,,,,,,,,,,,,,,,,,,
,,,,,,,,,R_3FWgxLLz5Tirefk,2022-09-28_12h47.04.667,jpn_C03,2022.1.2,MacIntel,66.66666667,,,space,0.283,0,37,37,27,1,ピク　パツ　ルピン　ドキ,,,CartoonStims/burglar_shoot_boxer_r_no.jpg,audio/pikupatsulupindoki.mp3,,,,,,,,,,,,,,,,,,,,,,,,,,,,,,,,,,,,,,,,,,,,,,,,,,,,,,,,,,,,,,,,,,,,,
,,,,,,,,,R_3FWgxLLz5Tirefk,2022-09-28_12h47.04.667,jpn_C03,2022.1.2,MacIntel,66.66666667,,,space,0.229,0,38,38,0,1,ピク　セル　シド　ルピン,,,CartoonStims/artist_kick_burglar_r_no.jpg,audio/pikuserusidolupin.mp3,,,,,,,,,,,,,,,,,,,,,,,,,,,,,,,,,,,,,,,,,,,,,,,,,,,,,,,,,,,,,,,,,,,,,
,,,,,,,,,R_3FWgxLLz5Tirefk,2022-09-28_12h47.04.667,jpn_C03,2022.1.2,MacIntel,66.66666667,,,space,0.136,0,39,39,32,1,パツ　ピク　ピポ　ルピン,,,CartoonStims/doctor_shoot_burglar_r_no.jpg,audio/patsupikupipolupin.mp3,,,,,,,,,,,,,,,,,,,,,,,,,,,,,,,,,,,,,,,,,,,,,,,,,,,,,,,,,,,,,,,,,,,,,
,,,,,,,,,R_3FWgxLLz5Tirefk,2022-09-28_12h47.04.667,jpn_C03,2022.1.2,MacIntel,66.66666667,,,space,0.153,0,40,40,17,1,トマ　ピク　ホレト　ドキ,,,CartoonStims/chef_point_boxer_r_no.jpg,audio/tomapikuhoretodoki.mp3,,,,,,,,,,,,,,,,,,,,,,,,,,,,,,,,,,,,,,,,,,,,,,,,,,,,,,,,,,,,,,,,,,,,,
,,,,,,,,,R_3FWgxLLz5Tirefk,2022-09-28_12h47.04.667,jpn_C03,2022.1.2,MacIntel,66.66666667,,,space,0.229,0,41,41,43,1,プミ　ピク　ムク　ホレト,,,CartoonStims/cowboy_punch_chef_r_no.jpg,audio/pumipikumukuhoreto.mp3,,,,,,,,,,,,,,,,,,,,,,,,,,,,,,,,,,,,,,,,,,,,,,,,,,,,,,,,,,,,,,,,,,,,,
,,,,,,,,,R_3FWgxLLz5Tirefk,2022-09-28_12h47.04.667,jpn_C03,2022.1.2,MacIntel,66.66666667,,,space,0.008,0,42,42,5,1,セル　ピク　ホレト　ピポ,,,CartoonStims/chef_kick_doctor_r_no.jpg,audio/serupikuhoretopipo.mp3,,,,,,,,,,,,,,,,,,,,,,,,,,,,,,,,,,,,,,,,,,,,,,,,,,,,,,,,,,,,,,,,,,,,,
,,,,,,,,,R_3FWgxLLz5Tirefk,2022-09-28_12h47.04.667,jpn_C03,2022.1.2,MacIntel,66.66666667,,,space,0.377,0,43,43,42,1,ピク　プミ　ムク　ルピン,,,CartoonStims/cowboy_punch_burglar_r_no.jpg,audio/pikupumimukulupin.mp3,,,,,,,,,,,,,,,,,,,,,,,,,,,,,,,,,,,,,,,,,,,,,,,,,,,,,,,,,,,,,,,,,,,,,
,,,,,,,,,R_3FWgxLLz5Tirefk,2022-09-28_12h47.04.667,jpn_C03,2022.1.2,MacIntel,66.66666667,,,space,0.161,0,44,44,21,1,トマ　ピク　ピポ　ルピン,,,CartoonStims/doctor_point_burglar_r_no.jpg,audio/tomapikupipolupin.mp3,,,,,,,,,,,,,,,,,,,,,,,,,,,,,,,,,,,,,,,,,,,,,,,,,,,,,,,,,,,,,,,,,,,,,
,,,,,,,,,R_3FWgxLLz5Tirefk,2022-09-28_12h47.04.667,jpn_C03,2022.1.2,MacIntel,66.66666667,,,space,0.03,0,45,45,11,1,セル　ピク　ドキ　ルピン,,,CartoonStims/boxer_kick_burglar_r_no.jpg,audio/serupikudokilupin.mp3,,,,,,,,,,,,,,,,,,,,,,,,,,,,,,,,,,,,,,,,,,,,,,,,,,,,,,,,,,,,,,,,,,,,,
,,,,,,,,,R_3FWgxLLz5Tirefk,2022-09-28_12h47.04.667,jpn_C03,2022.1.2,MacIntel,66.66666667,,,space,0.26,0,46,46,38,1,プミ　ピク　ルピン　ドキ,,,CartoonStims/burglar_punch_boxer_r_no.jpg,audio/pumipikulupindoki.mp3,,,,,,,,,,,,,,,,,,,,,,,,,,,,,,,,,,,,,,,,,,,,,,,,,,,,,,,,,,,,,,,,,,,,,
,,,,,,,,,R_3FWgxLLz5Tirefk,2022-09-28_12h47.04.667,jpn_C03,2022.1.2,MacIntel,66.66666667,,,space,0.152,0,47,47,24,1,パツ　ピク　シド　ムク,,,CartoonStims/artist_shoot_cowboy_r_no.jpg,audio/patsupikusidomuku.mp3,,,,,,,,,,,,,,,,,,,,,,,,,,,,,,,,,,,,,,,,,,,,,,,,,,,,,,,,,,,,,,,,,,,,,
,,,,,,,,,R_3FWgxLLz5Tirefk,2022-09-28_12h47.04.667,jpn_C03,2022.1.2,MacIntel,66.66666667,,,,,,,,,,,,,,,space,0.496,left,0,7.225,,,,,,,,,,,,,,,,,,,,,,,,,,,,,,,,,,,,,,,,,,,,,,,,,,,,,,,,,0,0,0,0,1,,,
,,,,,,,,,R_3FWgxLLz5Tirefk,2022-09-28_12h47.04.667,jpn_C03,2022.1.2,MacIntel,66.66666667,,,,,,,,,,,,,,,,,,,,,,,,,0,0,0,5,1,CartoonStims/boxer_kick_cowboy_r.jpg,セル　ピク　ドキ　ムク,CartoonStims/boxer_punch_cowboy_r.jpg,right,CartoonStims/boxer_punch_cowboy_r.jpg,audio/serupikudokimuku.mp3,"残念！ こちらが正しい画像です。

否定文は起きていないことを示しているのを思い出してください。",,,,,,,,,,,,,,,,,,,,,,,,,,,,,,,,,,,,,,,,,,,,,,,
,,,,,,,,,R_3FWgxLLz5Tirefk,2022-09-28_12h47.04.667,jpn_C03,2022.1.2,MacIntel,66.66666667,,,,,,,,,,,,,,,,,left,1,8.037,,,,,,,,,,,,,,,,,,0,0,0,0,1,,,,,,,,,,,,,,,,,,,,,,,,,,,,,,,,,,,,,,,,,,
,,,,,,,,,R_3FWgxLLz5Tirefk,2022-09-28_12h47.04.667,jpn_C03,2022.1.2,MacIntel,66.66666667,,,,,,,,,,,,,,,,,,,,,,,,,0,1,1,10,1,CartoonStims/doctor_punch_cowboy_r.jpg,ピク　パツ　ピポ　ムク,CartoonStims/doctor_shoot_cowboy_r.jpg,left,CartoonStims/doctor_punch_cowboy_r.jpg,audio/pikupatsupipomuku.mp3,"残念！ こちらが正しい画像です。

否定文は起きていないことを示しているのを思い出してください。",,,,,,,,,,,,,,,,,,,,,,,,,,,,,,,,,,,,,,,,,,,,,,,
,,,,,,,,,R_3FWgxLLz5Tirefk,2022-09-28_12h47.04.667,jpn_C03,2022.1.2,MacIntel,66.66666667,,,,,,,,,,,,,,,,,left,1,1.528,,,,,,,,,,,,,,,,,,0,0,0,0,1,,,,,,,,,,,,,,,,,,,,,,,,,,,,,,,,,,,,,,,,,,
,,,,,,,,,R_3FWgxLLz5Tirefk,2022-09-28_12h47.04.667,jpn_C03,2022.1.2,MacIntel,66.66666667,,,,,,,,,,,,,,,,,,,,,,,,,0,2,2,4,1,CartoonStims/burglar_shoot_doctor_r.jpg,セル　ピク　ルピン　ピポ,CartoonStims/burglar_kick_doctor_r.jpg,left,CartoonStims/burglar_shoot_doctor_r.jpg,audio/serupikulupinpipo.mp3,"残念！ こちらが正しい画像です。

否定文は起きていないことを示しているのを思い出してください。",,,,,,,,,,,,,,,,,,,,,,,,,,,,,,,,,,,,,,,,,,,,,,,
,,,,,,,,,R_3FWgxLLz5Tirefk,2022-09-28_12h47.04.667,jpn_C03,2022.1.2,MacIntel,66.66666667,,,,,,,,,,,,,,,,,left,1,1.035,,,,,,,,,,,,,,,,,,0,0,0,0,1,,,,,,,,,,,,,,,,,,,,,,,,,,,,,,,,,,,,,,,,,,
,,,,,,,,,R_3FWgxLLz5Tirefk,2022-09-28_12h47.04.667,jpn_C03,2022.1.2,MacIntel,66.66666667,,,,,,,,,,,,,,,,,,,,,,,,,0,3,3,0,1,CartoonStims/artist_shoot_burglar_r.jpg,ピク　プミ　シド　ルピン,CartoonStims/artist_punch_burglar_r.jpg,left,CartoonStims/artist_shoot_burglar_r.jpg,audio/pikupumisidolupin.mp3,"残念！ こちらが正しい画像です。

否定文は起きていないことを示しているのを思い出してください。",,,,,,,,,,,,,,,,,,,,,,,,,,,,,,,,,,,,,,,,,,,,,,,
,,,,,,,,,R_3FWgxLLz5Tirefk,2022-09-28_12h47.04.667,jpn_C03,2022.1.2,MacIntel,66.66666667,,,,,,,,,,,,,,,,,right,1,1.256,0,0,0,0,1,,,,,,,,,,,,,,,,,,,,,,,,,,,,,,,,,,,,,,,,,,,,,,,,,,,,,,,,,,,
,,,,,,,,,R_3FWgxLLz5Tirefk,2022-09-28_12h47.04.667,jpn_C03,2022.1.2,MacIntel,66.66666667,,,,,,,,,,,,,,,,,,,,,,,,,0,4,4,9,1,CartoonStims/boxer_shoot_doctor_r.jpg,パツ　ピク　ドキ　ピポ,CartoonStims/boxer_point_doctor_r.jpg,right,CartoonStims/boxer_point_doctor_r.jpg,audio/patsupikudokipipo.mp3,"残念！ こちらが正しい画像です。

否定文は起きていないことを示しているのを思い出してください。",,,,,,,,,,,,,,,,,,,,,,,,,,,,,,,,,,,,,,,,,,,,,,,
,,,,,,,,,R_3FWgxLLz5Tirefk,2022-09-28_12h47.04.667,jpn_C03,2022.1.2,MacIntel,66.66666667,,,,,,,,,,,,,,,,,left,1,1.901,,,,,,,,,,,,,,,,,,0,0,0,0,1,,,,,,,,,,,,,,,,,,,,,,,,,,,,,,,,,,,,,,,,,,
,,,,,,,,,R_3FWgxLLz5Tirefk,2022-09-28_12h47.04.667,jpn_C03,2022.1.2,MacIntel,66.66666667,,,,,,,,,,,,,,,,,,,,,,,,,0,5,5,2,1,CartoonStims/doctor_point_boxer_r.jpg,プミ　ピク　ピポ　ドキ,CartoonStims/doctor_punch_boxer_r.jpg,left,CartoonStims/doctor_point_boxer_r.jpg,audio/pumipikupipodoki.mp3,"残念！ こちらが正しい画像です。

否定文は起きていないことを示しているのを思い出してください。",,,,,,,,,,,,,,,,,,,,,,,,,,,,,,,,,,,,,,,,,,,,,,,
,,,,,,,,,R_3FWgxLLz5Tirefk,2022-09-28_12h47.04.667,jpn_C03,2022.1.2,MacIntel,66.66666667,,,,,,,,,,,,,,,,,right,1,2.636,0,0,0,0,1,,,,,,,,,,,,,,,,,,,,,,,,,,,,,,,,,,,,,,,,,,,,,,,,,,,,,,,,,,,
,,,,,,,,,R_3FWgxLLz5Tirefk,2022-09-28_12h47.04.667,jpn_C03,2022.1.2,MacIntel,66.66666667,,,,,,,,,,,,,,,,,,,,,,,,,0,6,6,7,1,CartoonStims/cowboy_point_chef_r.jpg,ピク　トマ　ムク　ホレト,CartoonStims/cowboy_kick_chef_r.jpg,right,CartoonStims/cowboy_kick_chef_r.jpg,audio/pikutomamukuhoreto.mp3,"残念！ こちらが正しい画像です。

否定文は起きていないことを示しているのを思い出してください。",,,,,,,,,,,,,,,,,,,,,,,,,,,,,,,,,,,,,,,,,,,,,,,
,,,,,,,,,R_3FWgxLLz5Tirefk,2022-09-28_12h47.04.667,jpn_C03,2022.1.2,MacIntel,66.66666667,,,,,,,,,,,,,,,,,right,1,0.948,0,0,0,0,1,,,,,,,,,,,,,,,,,,,,,,,,,,,,,,,,,,,,,,,,,,,,,,,,,,,,,,,,,,,
,,,,,,,,,R_3FWgxLLz5Tirefk,2022-09-28_12h47.04.667,jpn_C03,2022.1.2,MacIntel,66.66666667,,,,,,,,,,,,,,,,,,,,,,,,,0,7,7,11,1,CartoonStims/chef_shoot_burglar_r.jpg,パツ　ピク　ホレト　ルピン,CartoonStims/chef_kick_burglar_r.jpg,right,CartoonStims/chef_kick_burglar_r.jpg,audio/patsupikuhoretolupin.mp3,"残念！ こちらが正しい画像です。

否定文は起きていないことを示しているのを思い出してください。",,,,,,,,,,,,,,,,,,,,,,,,,,,,,,,,,,,,,,,,,,,,,,,
,,,,,,,,,R_3FWgxLLz5Tirefk,2022-09-28_12h47.04.667,jpn_C03,2022.1.2,MacIntel,66.66666667,,,,,,,,,,,,,,,,,left,1,0.744,,,,,,,,,,,,,,,,,,0,0,0,0,1,,,,,,,,,,,,,,,,,,,,,,,,,,,,,,,,,,,,,,,,,,
,,,,,,,,,R_3FWgxLLz5Tirefk,2022-09-28_12h47.04.667,jpn_C03,2022.1.2,MacIntel,66.66666667,,,,,,,,,,,,,,,,,,,,,,,,,0,8,8,6,1,CartoonStims/artist_shoot_boxer_r.jpg,トマ　ピク　シド　ドキ,CartoonStims/artist_point_boxer_r.jpg,left,CartoonStims/artist_shoot_boxer_r.jpg,audio/tomapikusidodoki.mp3,"残念！ こちらが正しい画像です。

否定文は起きていないことを示しているのを思い出してください。",,,,,,,,,,,,,,,,,,,,,,,,,,,,,,,,,,,,,,,,,,,,,,,
,,,,,,,,,R_3FWgxLLz5Tirefk,2022-09-28_12h47.04.667,jpn_C03,2022.1.2,MacIntel,66.66666667,,,,,,,,,,,,,,,,,left,1,0.63,,,,,,,,,,,,,,,,,,0,0,0,0,1,,,,,,,,,,,,,,,,,,,,,,,,,,,,,,,,,,,,,,,,,,
,,,,,,,,,R_3FWgxLLz5Tirefk,2022-09-28_12h47.04.667,jpn_C03,2022.1.2,MacIntel,66.66666667,,,,,,,,,,,,,,,,,,,,,,,,,0,9,9,8,1,CartoonStims/burglar_punch_artist_r.jpg,トマ　ピク　ルピン　シド,CartoonStims/burglar_point_artist_r.jpg,left,CartoonStims/burglar_punch_artist_r.jpg,audio/tomapikulupinsido.mp3,"残念！ こちらが正しい画像です。

否定文は起きていないことを示しているのを思い出してください。",,,,,,,,,,,,,,,,,,,,,,,,,,,,,,,,,,,,,,,,,,,,,,,
,,,,,,,,,R_3FWgxLLz5Tirefk,2022-09-28_12h47.04.667,jpn_C03,2022.1.2,MacIntel,66.66666667,,,,,,,,,,,,,,,,,right,1,0.754,0,0,0,0,1,,,,,,,,,,,,,,,,,,,,,,,,,,,,,,,,,,,,,,,,,,,,,,,,,,,,,,,,,,,
,,,,,,,,,R_3FWgxLLz5Tirefk,2022-09-28_12h47.04.667,jpn_C03,2022.1.2,MacIntel,66.66666667,,,,,,,,,,,,,,,,,,,,,,,,,0,10,10,1,1,CartoonStims/chef_punch_cowboy_r.jpg,プミ　ピク　ホレト　ムク,CartoonStims/chef_kick_cowboy_r.jpg,right,CartoonStims/chef_kick_cowboy_r.jpg,audio/pumipikuhoretomuku.mp3,"残念！ こちらが正しい画像です。

否定文は起きていないことを示しているのを思い出してください。",,,,,,,,,,,,,,,,,,,,,,,,,,,,,,,,,,,,,,,,,,,,,,,
,,,,,,,,,R_3FWgxLLz5Tirefk,2022-09-28_12h47.04.667,jpn_C03,2022.1.2,MacIntel,66.66666667,,,,,,,,,,,,,,,,,right,1,0.544,0,0,0,0,1,,,,,,,,,,,,,,,,,,,,,,,,,,,,,,,,,,,,,,,,,,,,,,,,,,,,,,,,,,,
,,,,,,,,,R_3FWgxLLz5Tirefk,2022-09-28_12h47.04.667,jpn_C03,2022.1.2,MacIntel,66.66666667,,,,,,,,,,,,,,,,,,,,,,,,,0,11,11,3,1,CartoonStims/chef_kick_artist_r.jpg,ピク　セル　ホレト　シド,CartoonStims/chef_point_artist_r.jpg,right,CartoonStims/chef_point_artist_r.jpg,audio/pikuseruhoretosido.mp3,"残念！ こちらが正しい画像です。

否定文は起きていないことを示しているのを思い出してください。",,,,,,,,,,,,,,,,,,,,,,,,,,,,,,,,,,,,,,,,,,,,,,,
,,,,,,,,,R_3FWgxLLz5Tirefk,2022-09-28_12h47.04.667,jpn_C03,2022.1.2,MacIntel,66.66666667,,,,,,,,,,,,,CartoonStims/cowboy_shoot_boxer_r_no.jpg,,,,,,,,,,,,,,,,,,,,,,,,,,,,,space,5,ピク　パツ　シド　ドキ,right,16.186,,,,,,0,0,0,15,1,,,,,,,,,,,,,,,,,,,,,,,,,ピク　パツ　ムク　ドキ,パツ　ピク　ムク　ドキ,1
,,,,,,,,,R_3FWgxLLz5Tirefk,2022-09-28_12h47.04.667,jpn_C03,2022.1.2,MacIntel,66.66666667,,,,,,,,,,,,,CartoonStims/cowboy_kick_chef_r_no.jpg,,,,,,,,,,,,,,,,,,,,,,,,,,,,,,,セル,right,7.898,,,,,,0,1,1,3,1,,,,,,,,,,,,,,,,,,,,,,,,,ピク　セル　ムク　ホレト,セル　ピク　ムク　ホレト,1
,,,,,,,,,R_3FWgxLLz5Tirefk,2022-09-28_12h47.04.667,jpn_C03,2022.1.2,MacIntel,66.66666667,,,,,,,,,,,,,CartoonStims/burglar_shoot_cowboy_r_no.jpg,,,,,,,,,,,,,,,,,,,,,,,,,,,,,,,,right,0.143,,,,,,0,2,2,13,1,,,,,,,,,,,,,,,,,,,,,,,,,ピク　パツ　ルピン　ムク,パツ　ピク　ルピン　ムク,1
,,,,,,,,,R_3FWgxLLz5Tirefk,2022-09-28_12h47.04.667,jpn_C03,2022.1.2,MacIntel,66.66666667,,,,,,,,,,,,,CartoonStims/doctor_point_boxer_r_no.jpg,,,,,,,,,,,,,,,,,,,,,,,,,,,,,,,トマ　ピク　ピポ　ドキ,right,28.502,,,,,,0,3,3,10,1,,,,,,,,,,,,,,,,,,,,,,,,,ピク　トマ　ピポ　ドキ,トマ　ピク　ピポ　ドキ,1
,,,,,,,,,R_3FWgxLLz5Tirefk,2022-09-28_12h47.04.667,jpn_C03,2022.1.2,MacIntel,66.66666667,,,,,,,,,,,,,CartoonStims/doctor_kick_chef_r.jpg,,,,,,,,,,,,,,,,,,,,,,,,,,,,,,,セル　ピポ　ホレト,right,15.477,,,,,,0,4,4,25,1,,,,,,,,,,,,,,,,,,,,,,,,,セル　ピポ　ホレト,セル　ピポ　ホレト,0
,,,,,,,,,R_3FWgxLLz5Tirefk,2022-09-28_12h47.04.667,jpn_C03,2022.1.2,MacIntel,66.66666667,,,,,,,,,,,,,CartoonStims/cowboy_kick_burglar_r.jpg,,,,,,,,,,,,,,,,,,,,,,,,,,,,,,,セル　シド　ルピん,right,8.394,,,,,,0,5,5,24,1,,,,,,,,,,,,,,,,,,,,,,,,,セル　ムク　ルピン,セル　ムク　ルピン,0
,,,,,,,,,R_3FWgxLLz5Tirefk,2022-09-28_12h47.04.667,jpn_C03,2022.1.2,MacIntel,66.66666667,,,,,,,,,,,,,CartoonStims/artist_kick_boxer_r_no.jpg,,,,,,,,,,,,,,,,,,,,,,,,,,,,,,,ピク　セル　シド　ドキ,right,23.907,,,,,,0,6,6,0,1,,,,,,,,,,,,,,,,,,,,,,,,,ピク　セル　シド　ドキ,セル　ピク　シド　ドキ,1
,,,,,,,,,R_3FWgxLLz5Tirefk,2022-09-28_12h47.04.667,jpn_C03,2022.1.2,MacIntel,66.66666667,,,,,,,,,,,,,CartoonStims/cowboy_shoot_doctor_r.jpg,,,,,,,,,,,,,,,,,,,,,,,,,,,,,,,パツ　シド　ピポ,right,9.942,,,,,,0,7,7,32,1,,,,,,,,,,,,,,,,,,,,,,,,,パツ　ムク　ピポ,パツ　ムク　ピポ,0
,,,,,,,,,R_3FWgxLLz5Tirefk,2022-09-28_12h47.04.667,jpn_C03,2022.1.2,MacIntel,66.66666667,,,,,,,,,,,,,CartoonStims/cowboy_point_doctor_r_no.jpg,,,,,,,,,,,,,,,,,,,,,,,,,,,,,,,トマ　ピク　シド　ピポ,right,12.795,,,,,,0,8,8,9,1,,,,,,,,,,,,,,,,,,,,,,,,,ピク　トマ　ムク　ピポ,トマ　ピク　ムク　ピポ,1
,,,,,,,,,R_3FWgxLLz5Tirefk,2022-09-28_12h47.04.667,jpn_C03,2022.1.2,MacIntel,66.66666667,,,,,,,,,,,,,CartoonStims/chef_punch_boxer_r_no.jpg,,,,,,,,,,,,,,,,,,,,,,,,,,,,,,,プミ　ピク　ホレト　ドキ,right,17.081,,,,,,0,9,9,20,1,,,,,,,,,,,,,,,,,,,,,,,,,ピク　プミ　ホレト　ドキ,プミ　ピク　ホレト　ドキ,1
,,,,,,,,,R_3FWgxLLz5Tirefk,2022-09-28_12h47.04.667,jpn_C03,2022.1.2,MacIntel,66.66666667,,,,,,,,,,,,,CartoonStims/cowboy_punch_artist_r_no.jpg,,,,,,,,,,,,,,,,,,,,,,,,,,,,,,,ぷみ　ピク　シド　,right,30.692,,,,,,0,10,10,21,1,,,,,,,,,,,,,,,,,,,,,,,,,ピク　プミ　ムク　シド,プミ　ピク　ムク　シド,1
,,,,,,,,,R_3FWgxLLz5Tirefk,2022-09-28_12h47.04.667,jpn_C03,2022.1.2,MacIntel,66.66666667,,,,,,,,,,,,,CartoonStims/doctor_shoot_artist_r_no.jpg,,,,,,,,,,,,,,,,,,,,,,,,,,,,,,,ピク　パツ　ピポ　ムク,right,37.68,,,,,,0,11,11,16,1,,,,,,,,,,,,,,,,,,,,,,,,,ピク　パツ　ピポ　シド,パツ　ピク　ピポ　シド,1
,,,,,,,,,R_3FWgxLLz5Tirefk,2022-09-28_12h47.04.667,jpn_C03,2022.1.2,MacIntel,66.66666667,,,,,,,,,,,,,CartoonStims/artist_punch_burglar_r.jpg,,,,,,,,,,,,,,,,,,,,,,,,,,,,,,,プミ　シド　ルピン,right,23.995,,,,,,0,12,12,33,1,,,,,,,,,,,,,,,,,,,,,,,,,プミ　シド　ルピン,プミ　シド　ルピン,0
,,,,,,,,,R_3FWgxLLz5Tirefk,2022-09-28_12h47.04.667,jpn_C03,2022.1.2,MacIntel,66.66666667,,,,,,,,,,,,,CartoonStims/artist_shoot_chef_r_no.jpg,,,,,,,,,,,,,,,,,,,,,,,,,,,,,,,ピク　パツ　シド　ホレト,right,13.431,,,,,,0,13,13,12,1,,,,,,,,,,,,,,,,,,,,,,,,,ピク　パツ　シド　ホレト,パツ　ピク　シド　ホレト,1
,,,,,,,,,R_3FWgxLLz5Tirefk,2022-09-28_12h47.04.667,jpn_C03,2022.1.2,MacIntel,66.66666667,,,,,,,,,,,,,CartoonStims/chef_point_burglar_r.jpg,,,,,,,,,,,,,,,,,,,,,,,,,,,,,,,トマ　ホレト　ルピン,right,12.416,,,,,,0,14,14,29,1,,,,,,,,,,,,,,,,,,,,,,,,,トマ　ホレト　ルピン,トマ　ホレト　ルピン,0
,,,,,,,,,R_3FWgxLLz5Tirefk,2022-09-28_12h47.04.667,jpn_C03,2022.1.2,MacIntel,66.66666667,,,,,,,,,,,,,CartoonStims/burglar_point_artist_r.jpg,,,,,,,,,,,,,,,,,,,,,,,,,,,,,,,トマ　ルピン　シド,right,10.346,,,,,,0,15,15,28,1,,,,,,,,,,,,,,,,,,,,,,,,,トマ　ルピン　シド,トマ　ルピン　シド,0
,,,,,,,,,R_3FWgxLLz5Tirefk,2022-09-28_12h47.04.667,jpn_C03,2022.1.2,MacIntel,66.66666667,,,,,,,,,,,,,CartoonStims/boxer_kick_doctor_r_no.jpg,,,,,,,,,,,,,,,,,,,,,,,,,,,,,,,ピク　セル　ドキ　ピポ,right,11.39,,,,,,0,16,16,5,1,,,,,,,,,,,,,,,,,,,,,,,,,ピク　セル　ドキ　ピポ,セル　ピク　ドキ　ピポ,1
,,,,,,,,,R_3FWgxLLz5Tirefk,2022-09-28_12h47.04.667,jpn_C03,2022.1.2,MacIntel,66.66666667,,,,,,,,,,,,,CartoonStims/boxer_punch_chef_r_no.jpg,,,,,,,,,,,,,,,,,,,,,,,,,,,,,,,ピク　ぷ見　ドキ　ホレト,right,15.262,,,,,,0,17,17,23,1,,,,,,,,,,,,,,,,,,,,,,,,,ピク　プミ　ドキ　ホレト,プミ　ピク　ドキ　ホレト,1
,,,,,,,,,R_3FWgxLLz5Tirefk,2022-09-28_12h47.04.667,jpn_C03,2022.1.2,MacIntel,66.66666667,,,,,,,,,,,,,CartoonStims/boxer_kick_cowboy_r.jpg,,,,,,,,,,,,,,,,,,,,,,,,,,,,,,,セル　ドキ　シド,right,8.592,,,,,,0,18,18,26,1,,,,,,,,,,,,,,,,,,,,,,,,,セル　ドキ　ムク,セル　ドキ　ムク,0
,,,,,,,,,R_3FWgxLLz5Tirefk,2022-09-28_12h47.04.667,jpn_C03,2022.1.2,MacIntel,66.66666667,,,,,,,,,,,,,CartoonStims/chef_kick_burglar_r_no.jpg,,,,,,,,,,,,,,,,,,,,,,,,,,,,,,,ピク　セル　ホレト　ルピン,right,15.133,,,,,,0,19,19,2,1,,,,,,,,,,,,,,,,,,,,,,,,,ピク　セル　ホレト　ルピン,セル　ピク　ホレト　ルピン,1
,,,,,,,,,R_3FWgxLLz5Tirefk,2022-09-28_12h47.04.667,jpn_C03,2022.1.2,MacIntel,66.66666667,,,,,,,,,,,,,CartoonStims/burglar_point_chef_r_no.jpg,,,,,,,,,,,,,,,,,,,,,,,,,,,,,,,ピク　トマ　ルピん　ホレト,right,9.514,,,,,,0,20,20,7,1,,,,,,,,,,,,,,,,,,,,,,,,,ピク　トマ　ルピン　ホレト,トマ　ピク　ルピン　ホレト,1
,,,,,,,,,R_3FWgxLLz5Tirefk,2022-09-28_12h47.04.667,jpn_C03,2022.1.2,MacIntel,66.66666667,,,,,,,,,,,,,CartoonStims/artist_point_burglar_r_no.jpg,,,,,,,,,,,,,,,,,,,,,,,,,,,,,,,ピク　トマ　シド　ルピン,right,10.075,,,,,,0,21,21,6,1,,,,,,,,,,,,,,,,,,,,,,,,,ピク　トマ　シド　ルピン,トマ　ピク　シド　ルピン,1
,,,,,,,,,R_3FWgxLLz5Tirefk,2022-09-28_12h47.04.667,jpn_C03,2022.1.2,MacIntel,66.66666667,,,,,,,,,,,,,CartoonStims/boxer_punch_artist_r.jpg,,,,,,,,,,,,,,,,,,,,,,,,,,,,,,,プミ　ドキ　ムク,right,14.931,,,,,,0,22,22,35,1,,,,,,,,,,,,,,,,,,,,,,,,,プミ　ドキ　シド,プミ　ドキ　シド,0
,,,,,,,,,R_3FWgxLLz5Tirefk,2022-09-28_12h47.04.667,jpn_C03,2022.1.2,MacIntel,66.66666667,,,,,,,,,,,,,CartoonStims/artist_punch_cowboy_r_no.jpg,,,,,,,,,,,,,,,,,,,,,,,,,,,,,,,ピク　プミシド,right,14.009,,,,,,0,23,23,18,1,,,,,,,,,,,,,,,,,,,,,,,,,ピク　プミ　シド　ムク,プミ　ピク　シド　ムク,1
,,,,,,,,,R_3FWgxLLz5Tirefk,2022-09-28_12h47.04.667,jpn_C03,2022.1.2,MacIntel,66.66666667,,,,,,,,,,,,,CartoonStims/chef_point_cowboy_r_no.jpg,,,,,,,,,,,,,,,,,,,,,,,,,,,,,,,ピク　トマ　ホレト　シド,right,22.295,,,,,,0,24,24,8,1,,,,,,,,,,,,,,,,,,,,,,,,,ピク　トマ　ホレト　ムク,トマ　ピク　ホレト　ムク,1
,,,,,,,,,R_3FWgxLLz5Tirefk,2022-09-28_12h47.04.667,jpn_C03,2022.1.2,MacIntel,66.66666667,,,,,,,,,,,,,CartoonStims/chef_shoot_cowboy_r.jpg,,,,,,,,,,,,,,,,,,,,,,,,,,,,,,,パツ　ホレト　ムク,right,16.175,,,,,,0,25,25,31,1,,,,,,,,,,,,,,,,,,,,,,,,,パツ　ホレト　ムク,パツ　ホレト　ムク,0
,,,,,,,,,R_3FWgxLLz5Tirefk,2022-09-28_12h47.04.667,jpn_C03,2022.1.2,MacIntel,66.66666667,,,,,,,,,,,,,CartoonStims/chef_shoot_doctor_r_no.jpg,,,,,,,,,,,,,,,,,,,,,,,,,,,,,,,ピク　パツ　ホレト　ピポ,right,12.536,,,,,,0,26,26,14,1,,,,,,,,,,,,,,,,,,,,,,,,,ピク　パツ　ホレト　ピポ,パツ　ピク　ホレト　ピポ,1
,,,,,,,,,R_3FWgxLLz5Tirefk,2022-09-28_12h47.04.667,jpn_C03,2022.1.2,MacIntel,66.66666667,,,,,,,,,,,,,CartoonStims/doctor_punch_boxer_r.jpg,,,,,,,,,,,,,,,,,,,,,,,,,,,,,,,プミ　ピポ　ドキ,right,18.172,,,,,,0,27,27,34,1,,,,,,,,,,,,,,,,,,,,,,,,,プミ　ピポ　ドキ,プミ　ピポ　ドキ,0
,,,,,,,,,R_3FWgxLLz5Tirefk,2022-09-28_12h47.04.667,jpn_C03,2022.1.2,MacIntel,66.66666667,,,,,,,,,,,,,CartoonStims/doctor_kick_cowboy_r_no.jpg,,,,,,,,,,,,,,,,,,,,,,,,,,,,,,,ピク　セル　ピポ　シド,right,8.213,,,,,,0,28,28,4,1,,,,,,,,,,,,,,,,,,,,,,,,,ピク　セル　ピポ　ムク,セル　ピク　ピポ　ムク,1
,,,,,,,,,R_3FWgxLLz5Tirefk,2022-09-28_12h47.04.667,jpn_C03,2022.1.2,MacIntel,66.66666667,,,,,,,,,,,,,CartoonStims/artist_point_boxer_r.jpg,,,,,,,,,,,,,,,,,,,,,,,,,,,,,,,トマ　シド　ドキ,right,9.139,,,,,,0,29,29,27,1,,,,,,,,,,,,,,,,,,,,,,,,,トマ　シド　ドキ,トマ　シド　ドキ,0
,,,,,,,,,R_3FWgxLLz5Tirefk,2022-09-28_12h47.04.667,jpn_C03,2022.1.2,MacIntel,66.66666667,,,,,,,,,,,,,CartoonStims/doctor_punch_burglar_r_no.jpg,,,,,,,,,,,,,,,,,,,,,,,,,,,,,,,ピク　プミ　ピポ　ルピン,right,11.228,,,,,,0,30,30,22,1,,,,,,,,,,,,,,,,,,,,,,,,,ピク　プミ　ピポ　ルピン,プミ　ピク　ピポ　ルピン,1
,,,,,,,,,R_3FWgxLLz5Tirefk,2022-09-28_12h47.04.667,jpn_C03,2022.1.2,MacIntel,66.66666667,,,,,,,,,,,,,CartoonStims/boxer_point_artist_r_no.jpg,,,,,,,,,,,,,,,,,,,,,,,,,,,,,,,ピク　トマ　ドキ　シド,right,14.862,,,,,,0,31,31,11,1,,,,,,,,,,,,,,,,,,,,,,,,,ピク　トマ　ドキ　シド,トマ　ピク　ドキ　シド,1
,,,,,,,,,R_3FWgxLLz5Tirefk,2022-09-28_12h47.04.667,jpn_C03,2022.1.2,MacIntel,66.66666667,,,,,,,,,,,,,CartoonStims/burglar_punch_doctor_r_no.jpg,,,,,,,,,,,,,,,,,,,,,,,,,,,,,,,ピク　プミ　ルピん　ピポ,right,10.865,,,,,,0,32,32,19,1,,,,,,,,,,,,,,,,,,,,,,,,,ピク　プミ　ルピン　ピポ,プミ　ピク　ルピン　ピポ,1
,,,,,,,,,R_3FWgxLLz5Tirefk,2022-09-28_12h47.04.667,jpn_C03,2022.1.2,MacIntel,66.66666667,,,,,,,,,,,,,CartoonStims/burglar_shoot_chef_r.jpg,,,,,,,,,,,,,,,,,,,,,,,,,,,,,,,パツ　ルピン　ホレト,right,14.197,,,,,,0,33,33,30,1,,,,,,,,,,,,,,,,,,,,,,,,,パツ　ルピン　ホレト,パツ　ルピン　ホレト,0
,,,,,,,,,R_3FWgxLLz5Tirefk,2022-09-28_12h47.04.667,jpn_C03,2022.1.2,MacIntel,66.66666667,,,,,,,,,,,,,CartoonStims/boxer_shoot_burglar_r_no.jpg,,,,,,,,,,,,,,,,,,,,,,,,,,,,,,,ピク　パツ　ドキ　ルピン,right,10.68,,,,,,0,34,34,17,1,,,,,,,,,,,,,,,,,,,,,,,,,ピク　パツ　ドキ　ルピン,パツ　ピク　ドキ　ルピン,1
,,,,,,,,,R_3FWgxLLz5Tirefk,2022-09-28_12h47.04.667,jpn_C03,2022.1.2,MacIntel,66.66666667,,,,,,,,,,,,,CartoonStims/burglar_kick_artist_r_no.jpg,,,,,,,,,,,,,,,,,,,,,,,,,,,,,,,ピク　セル　ルピン　ムク,right,12.084,,,,,,0,35,35,1,1,,,,,,,,,,,,,,,,,,,,,,,,,ピク　セル　ルピン　シド,セル　ピク　ルピン　シド,1
,,,,,,,,,R_3FWgxLLz5Tirefk,2022-09-28_12h47.04.667,jpn_C03,2022.1.2,MacIntel,66.66666667,,,,,,,,,,,,,,,,,,,,,,,,,,,,,,,,,,,,,,,,,,,,,,,,,,,,,,,,,,,space,0.458,0,2,2,2,1,VNegCondition.xlsx,"ここではこの言語における否定の文を学習していただきます。引き続き注意して、 聞こえた音を復唱してください。

スペースキーを押してください。",1,VNegFCT.xlsx,ここからクイズが始まります。 スクリーンに表示されるテキストに合うイメージを選んでください。,NegTest.xlsx,1,最後にここまで学んだことをアウトプットしていただきます。 テキストボックスにあるイメージを描写するテキストを入力してください。 このタスクでは、 答え合わせは行いません。,0,これですべての実験が終わりました。 お疲れさまです。 この後はアンケートに答えていただきます。,,,,,,,,
