key_resp_instr_a.keys,key_resp_instr_a.rt,key_resp_instr_b.keys,key_resp_instr_b.rt,dummy.thisRepN,dummy.thisTrialN,dummy.thisN,dummy.thisIndex,dummy.ran,participant,date,expName,psychopyVersion,OS,frameRate,key_resp_instr1.keys,key_resp_instr1.rt,key_resp.keys,key_resp.rt,exp_loop.thisRepN,exp_loop.thisTrialN,exp_loop.thisN,exp_loop.thisIndex,exp_loop.ran,Word,English,Flip,Path,Audio,key_resp_instr2.keys,key_resp_instr2.rt,key_resp_fct.keys,key_resp_fct.corr,key_resp_fct.rt,trials.thisRepN,trials.thisTrialN,trials.thisN,trials.thisIndex,trials.ran,fct_loop.thisRepN,fct_loop.thisTrialN,fct_loop.thisN,fct_loop.thisIndex,fct_loop.ran,left_img,word,right_img,correctans,correct_img,audio,incorrect_feedback,trials_2.thisRepN,trials_2.thisTrialN,trials_2.thisN,trials_2.thisIndex,trials_2.ran,trials_3.thisRepN,trials_3.thisTrialN,trials_3.thisN,trials_3.thisIndex,trials_3.ran,key_resp_instr3.keys,key_resp_instr3.rt,textbox.text,key_resp_2.keys,key_resp_2.rt,fb_yn.thisRepN,fb_yn.thisTrialN,fb_yn.thisN,fb_yn.thisIndex,fb_yn.ran,gather_loop.thisRepN,gather_loop.thisTrialN,gather_loop.thisN,gather_loop.thisIndex,gather_loop.ran,Text,Wordbank,key_resp_instr4.keys,key_resp_instr4.rt,master_loop.thisRepN,master_loop.thisTrialN,master_loop.thisN,master_loop.thisIndex,master_loop.ran,exposure_file,instr_1,exp_reps,fct_file,instr_2,gather_file,gather_reps,instr_3,fReps,instr_4,trials_4.thisRepN,trials_4.thisTrialN,trials_4.thisN,trials_4.thisIndex,trials_4.ran,NegVSentence,VNegSentence,NegTF
space,367.0198,space,8.3259,0,0,0,0,1,R_3halPq6pgfCYq9T,2022-06-25_24h14.58.482,jpn_C01,2022.1.2,Win32,60.01680471,,,,,,,,,,,,,,,,,,,,,,,,,,,,,,,,,,,,,,,,,,,,,,,,,,,,,,,,,,,,,,,,,,,,,,,,,,,,,,,,,,,,,,,,
,,,,,,,,,R_3halPq6pgfCYq9T,2022-06-25_24h14.58.482,jpn_C01,2022.1.2,Win32,60.01680471,space,3.9562,space,1.5199,0,0,0,5,1,ドキ,boxer,,CartoonStims/boxer_r.jpg,audio/doki.mp3,,,,,,,,,,,,,,,,,,,,,,,,,,,,,,,,,,,,,,,,,,,,,,,,,,,,,,,,,,,,,,,,,,,,,,,,,,
,,,,,,,,,R_3halPq6pgfCYq9T,2022-06-25_24h14.58.482,jpn_C01,2022.1.2,Win32,60.01680471,,,space,1.4625,0,1,1,3,1,ムク,cowboy,,CartoonStims/cowboy_r.jpg,audio/muku.mp3,,,,,,,,,,,,,,,,,,,,,,,,,,,,,,,,,,,,,,,,,,,,,,,,,,,,,,,,,,,,,,,,,,,,,,,,,,
,,,,,,,,,R_3halPq6pgfCYq9T,2022-06-25_24h14.58.482,jpn_C01,2022.1.2,Win32,60.01680471,,,space,0.8073,0,2,2,4,1,ピポ,doctor,,CartoonStims/doctor_r.jpg,audio/pipo.mp3,,,,,,,,,,,,,,,,,,,,,,,,,,,,,,,,,,,,,,,,,,,,,,,,,,,,,,,,,,,,,,,,,,,,,,,,,,
,,,,,,,,,R_3halPq6pgfCYq9T,2022-06-25_24h14.58.482,jpn_C01,2022.1.2,Win32,60.01680471,,,space,1.058,0,3,3,1,1,ルピン,burglar,,CartoonStims/burglar_r.jpg,audio/lupin.mp3,,,,,,,,,,,,,,,,,,,,,,,,,,,,,,,,,,,,,,,,,,,,,,,,,,,,,,,,,,,,,,,,,,,,,,,,,,
,,,,,,,,,R_3halPq6pgfCYq9T,2022-06-25_24h14.58.482,jpn_C01,2022.1.2,Win32,60.01680471,,,space,0.9225,0,4,4,2,1,ホレト,chef,,CartoonStims/chef_r.jpg,audio/horeto.mp3,,,,,,,,,,,,,,,,,,,,,,,,,,,,,,,,,,,,,,,,,,,,,,,,,,,,,,,,,,,,,,,,,,,,,,,,,,
,,,,,,,,,R_3halPq6pgfCYq9T,2022-06-25_24h14.58.482,jpn_C01,2022.1.2,Win32,60.01680471,,,space,1.0005,0,5,5,0,1,シド,artist,,CartoonStims/artist_r.jpg,audio/sido.mp3,,,,,,,,,,,,,,,,,,,,,,,,,,,,,,,,,,,,,,,,,,,,,,,,,,,,,,,,,,,,,,,,,,,,,,,,,,
,,,,,,,,,R_3halPq6pgfCYq9T,2022-06-25_24h14.58.482,jpn_C01,2022.1.2,Win32,60.01680471,,,space,0.7953,1,0,6,5,1,ドキ,boxer,,CartoonStims/boxer_r.jpg,audio/doki.mp3,,,,,,,,,,,,,,,,,,,,,,,,,,,,,,,,,,,,,,,,,,,,,,,,,,,,,,,,,,,,,,,,,,,,,,,,,,
,,,,,,,,,R_3halPq6pgfCYq9T,2022-06-25_24h14.58.482,jpn_C01,2022.1.2,Win32,60.01680471,,,space,0.8943,1,1,7,1,1,ルピン,burglar,,CartoonStims/burglar_r.jpg,audio/lupin.mp3,,,,,,,,,,,,,,,,,,,,,,,,,,,,,,,,,,,,,,,,,,,,,,,,,,,,,,,,,,,,,,,,,,,,,,,,,,
,,,,,,,,,R_3halPq6pgfCYq9T,2022-06-25_24h14.58.482,jpn_C01,2022.1.2,Win32,60.01680471,,,space,0.7896,1,2,8,0,1,シド,artist,,CartoonStims/artist_r.jpg,audio/sido.mp3,,,,,,,,,,,,,,,,,,,,,,,,,,,,,,,,,,,,,,,,,,,,,,,,,,,,,,,,,,,,,,,,,,,,,,,,,,
,,,,,,,,,R_3halPq6pgfCYq9T,2022-06-25_24h14.58.482,jpn_C01,2022.1.2,Win32,60.01680471,,,space,0.7842,1,3,9,3,1,ムク,cowboy,,CartoonStims/cowboy_r.jpg,audio/muku.mp3,,,,,,,,,,,,,,,,,,,,,,,,,,,,,,,,,,,,,,,,,,,,,,,,,,,,,,,,,,,,,,,,,,,,,,,,,,
,,,,,,,,,R_3halPq6pgfCYq9T,2022-06-25_24h14.58.482,jpn_C01,2022.1.2,Win32,60.01680471,,,space,0.6925,1,4,10,4,1,ピポ,doctor,,CartoonStims/doctor_r.jpg,audio/pipo.mp3,,,,,,,,,,,,,,,,,,,,,,,,,,,,,,,,,,,,,,,,,,,,,,,,,,,,,,,,,,,,,,,,,,,,,,,,,,
,,,,,,,,,R_3halPq6pgfCYq9T,2022-06-25_24h14.58.482,jpn_C01,2022.1.2,Win32,60.01680471,,,space,0.7719,1,5,11,2,1,ホレト,chef,,CartoonStims/chef_r.jpg,audio/horeto.mp3,,,,,,,,,,,,,,,,,,,,,,,,,,,,,,,,,,,,,,,,,,,,,,,,,,,,,,,,,,,,,,,,,,,,,,,,,,
,,,,,,,,,R_3halPq6pgfCYq9T,2022-06-25_24h14.58.482,jpn_C01,2022.1.2,Win32,60.01680471,,,space,0.608,2,0,12,4,1,ピポ,doctor,,CartoonStims/doctor_r.jpg,audio/pipo.mp3,,,,,,,,,,,,,,,,,,,,,,,,,,,,,,,,,,,,,,,,,,,,,,,,,,,,,,,,,,,,,,,,,,,,,,,,,,
,,,,,,,,,R_3halPq6pgfCYq9T,2022-06-25_24h14.58.482,jpn_C01,2022.1.2,Win32,60.01680471,,,space,0.7144,2,1,13,5,1,ドキ,boxer,,CartoonStims/boxer_r.jpg,audio/doki.mp3,,,,,,,,,,,,,,,,,,,,,,,,,,,,,,,,,,,,,,,,,,,,,,,,,,,,,,,,,,,,,,,,,,,,,,,,,,
,,,,,,,,,R_3halPq6pgfCYq9T,2022-06-25_24h14.58.482,jpn_C01,2022.1.2,Win32,60.01680471,,,space,0.3849,2,2,14,2,1,ホレト,chef,,CartoonStims/chef_r.jpg,audio/horeto.mp3,,,,,,,,,,,,,,,,,,,,,,,,,,,,,,,,,,,,,,,,,,,,,,,,,,,,,,,,,,,,,,,,,,,,,,,,,,
,,,,,,,,,R_3halPq6pgfCYq9T,2022-06-25_24h14.58.482,jpn_C01,2022.1.2,Win32,60.01680471,,,space,0.4608,2,3,15,3,1,ムク,cowboy,,CartoonStims/cowboy_r.jpg,audio/muku.mp3,,,,,,,,,,,,,,,,,,,,,,,,,,,,,,,,,,,,,,,,,,,,,,,,,,,,,,,,,,,,,,,,,,,,,,,,,,
,,,,,,,,,R_3halPq6pgfCYq9T,2022-06-25_24h14.58.482,jpn_C01,2022.1.2,Win32,60.01680471,,,space,0.5812,2,4,16,1,1,ルピン,burglar,,CartoonStims/burglar_r.jpg,audio/lupin.mp3,,,,,,,,,,,,,,,,,,,,,,,,,,,,,,,,,,,,,,,,,,,,,,,,,,,,,,,,,,,,,,,,,,,,,,,,,,
,,,,,,,,,R_3halPq6pgfCYq9T,2022-06-25_24h14.58.482,jpn_C01,2022.1.2,Win32,60.01680471,,,space,0.4972,2,5,17,0,1,シド,artist,,CartoonStims/artist_r.jpg,audio/sido.mp3,,,,,,,,,,,,,,,,,,,,,,,,,,,,,,,,,,,,,,,,,,,,,,,,,,,,,,,,,,,,,,,,,,,,,,,,,,
,,,,,,,,,R_3halPq6pgfCYq9T,2022-06-25_24h14.58.482,jpn_C01,2022.1.2,Win32,60.01680471,,,,,,,,,,,,,,,space,1.3001,left,1,4.0272,0,0,0,0,1,,,,,,,,,,,,,,,,,,,,,,,,,,,,,,,,,,,,,,,,,,,,,,,,,,,,,,,,,,,,,,,,
,,,,,,,,,R_3halPq6pgfCYq9T,2022-06-25_24h14.58.482,jpn_C01,2022.1.2,Win32,60.01680471,,,,,,,,,,,,,,,,,,,,,,,,,0,0,0,4,1,CartoonStims/doctor_r.jpg,ピポ,CartoonStims/boxer_r.jpg,left,CartoonStims/doctor_r.jpg,audio/pipo.mp3,残念！ こちらが正しい画像です。,,,,,,,,,,,,,,,,,,,,,,,,,,,,,,,,,,,,,,,,,,,,,,,,,,,,
,,,,,,,,,R_3halPq6pgfCYq9T,2022-06-25_24h14.58.482,jpn_C01,2022.1.2,Win32,60.01680471,,,,,,,,,,,,,,,,,left,1,1.6127,0,0,0,0,1,,,,,,,,,,,,,,,,,,,,,,,,,,,,,,,,,,,,,,,,,,,,,,,,,,,,,,,,,,,,,,,,
,,,,,,,,,R_3halPq6pgfCYq9T,2022-06-25_24h14.58.482,jpn_C01,2022.1.2,Win32,60.01680471,,,,,,,,,,,,,,,,,,,,,,,,,0,1,1,1,1,CartoonStims/burglar_r.jpg,ルピン,CartoonStims/chef_r.jpg,left,CartoonStims/burglar_r.jpg,audio/lupin.mp3,残念！ こちらが正しい画像です。,,,,,,,,,,,,,,,,,,,,,,,,,,,,,,,,,,,,,,,,,,,,,,,,,,,,
,,,,,,,,,R_3halPq6pgfCYq9T,2022-06-25_24h14.58.482,jpn_C01,2022.1.2,Win32,60.01680471,,,,,,,,,,,,,,,,,right,1,6.1279,,,,,,,,,,,,,,,,,,0,0,0,0,1,,,,,,,,,,,,,,,,,,,,,,,,,,,,,,,,,,,,,,,,,,,,,,,
,,,,,,,,,R_3halPq6pgfCYq9T,2022-06-25_24h14.58.482,jpn_C01,2022.1.2,Win32,60.01680471,,,,,,,,,,,,,,,,,,,,,,,,,0,2,2,10,1,CartoonStims/artist_r.jpg,ピポ,CartoonStims/doctor_r.jpg,right,CartoonStims/doctor_r.jpg,audio/pipo.mp3,残念！ こちらが正しい画像です。,,,,,,,,,,,,,,,,,,,,,,,,,,,,,,,,,,,,,,,,,,,,,,,,,,,,
,,,,,,,,,R_3halPq6pgfCYq9T,2022-06-25_24h14.58.482,jpn_C01,2022.1.2,Win32,60.01680471,,,,,,,,,,,,,,,,,right,0,2.9089,,,,,,,,,,,,,,,,,,,,,,,0,0,0,0,1,,,,,,,,,,,,,,,,,,,,,,,,,,,,,,,,,,,,,,,,,,
,,,,,,,,,R_3halPq6pgfCYq9T,2022-06-25_24h14.58.482,jpn_C01,2022.1.2,Win32,60.01680471,,,,,,,,,,,,,,,,,,,,,,,,,0,3,3,5,1,CartoonStims/boxer_r.jpg,ドキ,CartoonStims/artist_r.jpg,left,CartoonStims/boxer_r.jpg,audio/doki.mp3,残念！ こちらが正しい画像です。,,,,,,,,,,,,,,,,,,,,,,,,,,,,,,,,,,,,,,,,,,,,,,,,,,,,
,,,,,,,,,R_3halPq6pgfCYq9T,2022-06-25_24h14.58.482,jpn_C01,2022.1.2,Win32,60.01680471,,,,,,,,,,,,,,,,,right,1,1.1567,,,,,,,,,,,,,,,,,,0,0,0,0,1,,,,,,,,,,,,,,,,,,,,,,,,,,,,,,,,,,,,,,,,,,,,,,,
,,,,,,,,,R_3halPq6pgfCYq9T,2022-06-25_24h14.58.482,jpn_C01,2022.1.2,Win32,60.01680471,,,,,,,,,,,,,,,,,,,,,,,,,0,4,4,8,1,CartoonStims/doctor_r.jpg,ホレト,CartoonStims/chef_r.jpg,right,CartoonStims/chef_r.jpg,audio/horeto.mp3,残念！ こちらが正しい画像です。,,,,,,,,,,,,,,,,,,,,,,,,,,,,,,,,,,,,,,,,,,,,,,,,,,,,
,,,,,,,,,R_3halPq6pgfCYq9T,2022-06-25_24h14.58.482,jpn_C01,2022.1.2,Win32,60.01680471,,,,,,,,,,,,,,,,,left,1,1.6008,0,0,0,0,1,,,,,,,,,,,,,,,,,,,,,,,,,,,,,,,,,,,,,,,,,,,,,,,,,,,,,,,,,,,,,,,,
,,,,,,,,,R_3halPq6pgfCYq9T,2022-06-25_24h14.58.482,jpn_C01,2022.1.2,Win32,60.01680471,,,,,,,,,,,,,,,,,,,,,,,,,0,5,5,3,1,CartoonStims/cowboy_r.jpg,ムク,CartoonStims/doctor_r.jpg,left,CartoonStims/cowboy_r.jpg,audio/muku.mp3,残念！ こちらが正しい画像です。,,,,,,,,,,,,,,,,,,,,,,,,,,,,,,,,,,,,,,,,,,,,,,,,,,,,
,,,,,,,,,R_3halPq6pgfCYq9T,2022-06-25_24h14.58.482,jpn_C01,2022.1.2,Win32,60.01680471,,,,,,,,,,,,,,,,,left,1,0.9396,0,0,0,0,1,,,,,,,,,,,,,,,,,,,,,,,,,,,,,,,,,,,,,,,,,,,,,,,,,,,,,,,,,,,,,,,,
,,,,,,,,,R_3halPq6pgfCYq9T,2022-06-25_24h14.58.482,jpn_C01,2022.1.2,Win32,60.01680471,,,,,,,,,,,,,,,,,,,,,,,,,0,6,6,2,1,CartoonStims/chef_r.jpg,ホレト,CartoonStims/cowboy_r.jpg,left,CartoonStims/chef_r.jpg,audio/horeto.mp3,残念！ こちらが正しい画像です。,,,,,,,,,,,,,,,,,,,,,,,,,,,,,,,,,,,,,,,,,,,,,,,,,,,,
,,,,,,,,,R_3halPq6pgfCYq9T,2022-06-25_24h14.58.482,jpn_C01,2022.1.2,Win32,60.01680471,,,,,,,,,,,,,,,,,left,1,0.8809,0,0,0,0,1,,,,,,,,,,,,,,,,,,,,,,,,,,,,,,,,,,,,,,,,,,,,,,,,,,,,,,,,,,,,,,,,
,,,,,,,,,R_3halPq6pgfCYq9T,2022-06-25_24h14.58.482,jpn_C01,2022.1.2,Win32,60.01680471,,,,,,,,,,,,,,,,,,,,,,,,,0,7,7,0,1,CartoonStims/artist_r.jpg,シド,CartoonStims/burglar_r.jpg,left,CartoonStims/artist_r.jpg,audio/sido.mp3,残念！ こちらが正しい画像です。,,,,,,,,,,,,,,,,,,,,,,,,,,,,,,,,,,,,,,,,,,,,,,,,,,,,
,,,,,,,,,R_3halPq6pgfCYq9T,2022-06-25_24h14.58.482,jpn_C01,2022.1.2,Win32,60.01680471,,,,,,,,,,,,,,,,,right,1,1.1208,,,,,,,,,,,,,,,,,,0,0,0,0,1,,,,,,,,,,,,,,,,,,,,,,,,,,,,,,,,,,,,,,,,,,,,,,,
,,,,,,,,,R_3halPq6pgfCYq9T,2022-06-25_24h14.58.482,jpn_C01,2022.1.2,Win32,60.01680471,,,,,,,,,,,,,,,,,,,,,,,,,0,8,8,7,1,CartoonStims/cowboy_r.jpg,ルピン,CartoonStims/burglar_r.jpg,right,CartoonStims/burglar_r.jpg,audio/lupin.mp3,残念！ こちらが正しい画像です。,,,,,,,,,,,,,,,,,,,,,,,,,,,,,,,,,,,,,,,,,,,,,,,,,,,,
,,,,,,,,,R_3halPq6pgfCYq9T,2022-06-25_24h14.58.482,jpn_C01,2022.1.2,Win32,60.01680471,,,,,,,,,,,,,,,,,right,1,1.7673,,,,,,,,,,,,,,,,,,0,0,0,0,1,,,,,,,,,,,,,,,,,,,,,,,,,,,,,,,,,,,,,,,,,,,,,,,
,,,,,,,,,R_3halPq6pgfCYq9T,2022-06-25_24h14.58.482,jpn_C01,2022.1.2,Win32,60.01680471,,,,,,,,,,,,,,,,,,,,,,,,,0,9,9,6,1,CartoonStims/chef_r.jpg,シド,CartoonStims/artist_r.jpg,right,CartoonStims/artist_r.jpg,audio/sido.mp3,残念！ こちらが正しい画像です。,,,,,,,,,,,,,,,,,,,,,,,,,,,,,,,,,,,,,,,,,,,,,,,,,,,,
,,,,,,,,,R_3halPq6pgfCYq9T,2022-06-25_24h14.58.482,jpn_C01,2022.1.2,Win32,60.01680471,,,,,,,,,,,,,,,,,right,1,0.8912,,,,,,,,,,,,,,,,,,0,0,0,0,1,,,,,,,,,,,,,,,,,,,,,,,,,,,,,,,,,,,,,,,,,,,,,,,
,,,,,,,,,R_3halPq6pgfCYq9T,2022-06-25_24h14.58.482,jpn_C01,2022.1.2,Win32,60.01680471,,,,,,,,,,,,,,,,,,,,,,,,,0,10,10,11,1,CartoonStims/burglar_r.jpg,ドキ,CartoonStims/boxer_r.jpg,right,CartoonStims/boxer_r.jpg,audio/doki.mp3,残念！ こちらが正しい画像です。,,,,,,,,,,,,,,,,,,,,,,,,,,,,,,,,,,,,,,,,,,,,,,,,,,,,
,,,,,,,,,R_3halPq6pgfCYq9T,2022-06-25_24h14.58.482,jpn_C01,2022.1.2,Win32,60.01680471,,,,,,,,,,,,,,,,,right,1,1.1058,,,,,,,,,,,,,,,,,,0,0,0,0,1,,,,,,,,,,,,,,,,,,,,,,,,,,,,,,,,,,,,,,,,,,,,,,,
,,,,,,,,,R_3halPq6pgfCYq9T,2022-06-25_24h14.58.482,jpn_C01,2022.1.2,Win32,60.01680471,,,,,,,,,,,,,,,,,,,,,,,,,0,11,11,9,1,CartoonStims/boxer_r.jpg,ムク,CartoonStims/cowboy_r.jpg,right,CartoonStims/cowboy_r.jpg,audio/muku.mp3,残念！ こちらが正しい画像です。,,,,,,,,,,,,,,,,,,,,,,,,,,,,,,,,,,,,,,,,,,,,,,,,,,,,
,,,,,,,,,R_3halPq6pgfCYq9T,2022-06-25_24h14.58.482,jpn_C01,2022.1.2,Win32,60.01680471,,,,,,,,,,,,,,,,,,,,,,,,,,,,,,,,,,,,,,,,,,,,,,,space,1.2843,ルピン,right,7.9919,0,0,0,0,1,,,,,,,,,,,,,,,,,,,,,,,,,,,,,,,,
,,,,,,,,,R_3halPq6pgfCYq9T,2022-06-25_24h14.58.482,jpn_C01,2022.1.2,Win32,60.01680471,,,,,,,,,,,,,CartoonStims/burglar_r.jpg,audio/lupin.mp3,,,,,,,,,,,,,,,,,,,,,,,,,,,,,,,,,,,,,,,,,,,0,0,0,1,1,ルピン,,,,,,,,,,,,,,,,,,,,,,,,,,
,,,,,,,,,R_3halPq6pgfCYq9T,2022-06-25_24h14.58.482,jpn_C01,2022.1.2,Win32,60.01680471,,,,,,,,,,,,,,,,,,,,,,,,,,,,,,,,,,,,,,,,,,,,,,,,,ポピ,right,11.5104,0,0,0,0,1,,,,,,,,,,,,,,,,,,,,,,,,,,,,,,,,
,,,,,,,,,R_3halPq6pgfCYq9T,2022-06-25_24h14.58.482,jpn_C01,2022.1.2,Win32,60.01680471,,,,,,,,,,,,,CartoonStims/doctor_r.jpg,audio/pipo.mp3,,,,,,,,,,,,,,,,,,,,,,,,,,,,,,,,,,,,,,,,,,,0,1,1,4,1,ピポ,,,,,,,,,,,,,,,,,,,,,,,,,,
,,,,,,,,,R_3halPq6pgfCYq9T,2022-06-25_24h14.58.482,jpn_C01,2022.1.2,Win32,60.01680471,,,,,,,,,,,,,,,,,,,,,,,,,,,,,,,,,,,,,,,,,,,,,,,,,ホレト,right,5.4624,0,0,0,0,1,,,,,,,,,,,,,,,,,,,,,,,,,,,,,,,,
,,,,,,,,,R_3halPq6pgfCYq9T,2022-06-25_24h14.58.482,jpn_C01,2022.1.2,Win32,60.01680471,,,,,,,,,,,,,CartoonStims/chef_r.jpg,audio/horeto.mp3,,,,,,,,,,,,,,,,,,,,,,,,,,,,,,,,,,,,,,,,,,,0,2,2,2,1,ホレト,,,,,,,,,,,,,,,,,,,,,,,,,,
,,,,,,,,,R_3halPq6pgfCYq9T,2022-06-25_24h14.58.482,jpn_C01,2022.1.2,Win32,60.01680471,,,,,,,,,,,,,,,,,,,,,,,,,,,,,,,,,,,,,,,,,,,,,,,,,シド,right,5.3553,0,0,0,0,1,,,,,,,,,,,,,,,,,,,,,,,,,,,,,,,,
,,,,,,,,,R_3halPq6pgfCYq9T,2022-06-25_24h14.58.482,jpn_C01,2022.1.2,Win32,60.01680471,,,,,,,,,,,,,CartoonStims/artist_r.jpg,audio/sido.mp3,,,,,,,,,,,,,,,,,,,,,,,,,,,,,,,,,,,,,,,,,,,0,3,3,0,1,シド,,,,,,,,,,,,,,,,,,,,,,,,,,
,,,,,,,,,R_3halPq6pgfCYq9T,2022-06-25_24h14.58.482,jpn_C01,2022.1.2,Win32,60.01680471,,,,,,,,,,,,,,,,,,,,,,,,,,,,,,,,,,,,,,,,,,,,,,,,,ムク,right,12.3484,0,0,0,0,1,,,,,,,,,,,,,,,,,,,,,,,,,,,,,,,,
,,,,,,,,,R_3halPq6pgfCYq9T,2022-06-25_24h14.58.482,jpn_C01,2022.1.2,Win32,60.01680471,,,,,,,,,,,,,CartoonStims/cowboy_r.jpg,audio/muku.mp3,,,,,,,,,,,,,,,,,,,,,,,,,,,,,,,,,,,,,,,,,,,0,4,4,3,1,ムク,,,,,,,,,,,,,,,,,,,,,,,,,,
,,,,,,,,,R_3halPq6pgfCYq9T,2022-06-25_24h14.58.482,jpn_C01,2022.1.2,Win32,60.01680471,,,,,,,,,,,,,,,,,,,,,,,,,,,,,,,,,,,,,,,,,,,,,,,,,ドキ,right,3.6143,0,0,0,0,1,,,,,,,,,,,,,,,,,,,,,,,,,,,,,,,,
,,,,,,,,,R_3halPq6pgfCYq9T,2022-06-25_24h14.58.482,jpn_C01,2022.1.2,Win32,60.01680471,,,,,,,,,,,,,CartoonStims/boxer_r.jpg,audio/doki.mp3,,,,,,,,,,,,,,,,,,,,,,,,,,,,,,,,,,,,,,,,,,,0,5,5,5,1,ドキ,,,,,,,,,,,,,,,,,,,,,,,,,,
,,,,,,,,,R_3halPq6pgfCYq9T,2022-06-25_24h14.58.482,jpn_C01,2022.1.2,Win32,60.01680471,,,,,,,,,,,,,,,,,,,,,,,,,,,,,,,,,,,,,,,,,,,,,,,,,ムク,right,4.5277,0,0,0,0,1,,,,,,,,,,,,,,,,,,,,,,,,,,,,,,,,
,,,,,,,,,R_3halPq6pgfCYq9T,2022-06-25_24h14.58.482,jpn_C01,2022.1.2,Win32,60.01680471,,,,,,,,,,,,,CartoonStims/cowboy_r.jpg,audio/muku.mp3,,,,,,,,,,,,,,,,,,,,,,,,,,,,,,,,,,,,,,,,,,,1,0,6,3,1,ムク,,,,,,,,,,,,,,,,,,,,,,,,,,
,,,,,,,,,R_3halPq6pgfCYq9T,2022-06-25_24h14.58.482,jpn_C01,2022.1.2,Win32,60.01680471,,,,,,,,,,,,,,,,,,,,,,,,,,,,,,,,,,,,,,,,,,,,,,,,,ホレト,right,4.0793,0,0,0,0,1,,,,,,,,,,,,,,,,,,,,,,,,,,,,,,,,
,,,,,,,,,R_3halPq6pgfCYq9T,2022-06-25_24h14.58.482,jpn_C01,2022.1.2,Win32,60.01680471,,,,,,,,,,,,,CartoonStims/chef_r.jpg,audio/horeto.mp3,,,,,,,,,,,,,,,,,,,,,,,,,,,,,,,,,,,,,,,,,,,1,1,7,2,1,ホレト,,,,,,,,,,,,,,,,,,,,,,,,,,
,,,,,,,,,R_3halPq6pgfCYq9T,2022-06-25_24h14.58.482,jpn_C01,2022.1.2,Win32,60.01680471,,,,,,,,,,,,,,,,,,,,,,,,,,,,,,,,,,,,,,,,,,,,,,,,,ドキ,right,2.8065,0,0,0,0,1,,,,,,,,,,,,,,,,,,,,,,,,,,,,,,,,
,,,,,,,,,R_3halPq6pgfCYq9T,2022-06-25_24h14.58.482,jpn_C01,2022.1.2,Win32,60.01680471,,,,,,,,,,,,,CartoonStims/boxer_r.jpg,audio/doki.mp3,,,,,,,,,,,,,,,,,,,,,,,,,,,,,,,,,,,,,,,,,,,1,2,8,5,1,ドキ,,,,,,,,,,,,,,,,,,,,,,,,,,
,,,,,,,,,R_3halPq6pgfCYq9T,2022-06-25_24h14.58.482,jpn_C01,2022.1.2,Win32,60.01680471,,,,,,,,,,,,,,,,,,,,,,,,,,,,,,,,,,,,,,,,,,,,,,,,,ルピン,right,4.1343,0,0,0,0,1,,,,,,,,,,,,,,,,,,,,,,,,,,,,,,,,
,,,,,,,,,R_3halPq6pgfCYq9T,2022-06-25_24h14.58.482,jpn_C01,2022.1.2,Win32,60.01680471,,,,,,,,,,,,,CartoonStims/burglar_r.jpg,audio/lupin.mp3,,,,,,,,,,,,,,,,,,,,,,,,,,,,,,,,,,,,,,,,,,,1,3,9,1,1,ルピン,,,,,,,,,,,,,,,,,,,,,,,,,,
,,,,,,,,,R_3halPq6pgfCYq9T,2022-06-25_24h14.58.482,jpn_C01,2022.1.2,Win32,60.01680471,,,,,,,,,,,,,,,,,,,,,,,,,,,,,,,,,,,,,,,,,,,,,,,,,シド,right,2.8372,0,0,0,0,1,,,,,,,,,,,,,,,,,,,,,,,,,,,,,,,,
,,,,,,,,,R_3halPq6pgfCYq9T,2022-06-25_24h14.58.482,jpn_C01,2022.1.2,Win32,60.01680471,,,,,,,,,,,,,CartoonStims/artist_r.jpg,audio/sido.mp3,,,,,,,,,,,,,,,,,,,,,,,,,,,,,,,,,,,,,,,,,,,1,4,10,0,1,シド,,,,,,,,,,,,,,,,,,,,,,,,,,
,,,,,,,,,R_3halPq6pgfCYq9T,2022-06-25_24h14.58.482,jpn_C01,2022.1.2,Win32,60.01680471,,,,,,,,,,,,,,,,,,,,,,,,,,,,,,,,,,,,,,,,,,,,,,,,,ムク,right,5.8909,0,0,0,0,1,,,,,,,,,,,,,,,,,,,,,,,,,,,,,,,,
,,,,,,,,,R_3halPq6pgfCYq9T,2022-06-25_24h14.58.482,jpn_C01,2022.1.2,Win32,60.01680471,,,,,,,,,,,,,CartoonStims/doctor_r.jpg,audio/pipo.mp3,,,,,,,,,,,,,,,,,,,,,,,,,,,,,,,,,,,,,,,,,,,1,5,11,4,1,ピポ,,,,,,,,,,,,,,,,,,,,,,,,,,
,,,,,,,,,R_3halPq6pgfCYq9T,2022-06-25_24h14.58.482,jpn_C01,2022.1.2,Win32,60.01680471,,,,,,,,,,,,,,,,,,,,,,,,,,,,,,,,,,,,,,,,,,,,,,,,,,,,,,,,,,,,,,,,space,0.9289,0,0,0,0,1,NounExposure.xlsx,"最初のトライアルでは、 画像が表示され、 その画像の下に単語が出てきます。 またこの単語の音も聞くことができます。 この音を大きな声で復唱してください。 そしてこの画像がどのような単語を示しているのか, 考えてみてください。 その後、 続きのボタンを押すと次の単語の学習が始まります。

スペースキーを押して、学習を始めましょう。",3,NounFCT.xlsx,ここから語彙のクイズが始まります。スクリーンに表示される単語に合う画像をキーボードの右と左の矢印キーを使って選択してください。,NounTest.xlsx,2,次に、これまで学習してきたことをアウトプットしていただきます。 表示される画像を描写していると思う単語を、テキストボックスにタイプしてください。,1,"ここまでが最初のトライアルです。ここで休憩をとっても構いません。

休憩が済みましたら、スペースキーを押して続きを始めましょう。",,,,,,,,
,,,,,,,,,R_3halPq6pgfCYq9T,2022-06-25_24h14.58.482,jpn_C01,2022.1.2,Win32,60.01680471,space,5.0476,space,4.6249,0,0,0,20,1,トマ　ピポ　シド,,,CartoonStims/doctor_point_artist_r.jpg,audio/tomapiposido.mp3,,,,,,,,,,,,,,,,,,,,,,,,,,,,,,,,,,,,,,,,,,,,,,,,,,,,,,,,,,,,,,,,,,,,,,,,,,
,,,,,,,,,R_3halPq6pgfCYq9T,2022-06-25_24h14.58.482,jpn_C01,2022.1.2,Win32,60.01680471,,,space,2.4177,0,1,1,14,1,トマ　ルピン　ムク,,,CartoonStims/burglar_point_cowboy_r.jpg,audio/tomalupinmuku.mp3,,,,,,,,,,,,,,,,,,,,,,,,,,,,,,,,,,,,,,,,,,,,,,,,,,,,,,,,,,,,,,,,,,,,,,,,,,
,,,,,,,,,R_3halPq6pgfCYq9T,2022-06-25_24h14.58.482,jpn_C01,2022.1.2,Win32,60.01680471,,,space,2.3725,0,2,2,11,1,セル　ドキ　ルピン,,,CartoonStims/boxer_kick_burglar_r.jpg,audio/serudokilupin.mp3,,,,,,,,,,,,,,,,,,,,,,,,,,,,,,,,,,,,,,,,,,,,,,,,,,,,,,,,,,,,,,,,,,,,,,,,,,
,,,,,,,,,R_3halPq6pgfCYq9T,2022-06-25_24h14.58.482,jpn_C01,2022.1.2,Win32,60.01680471,,,space,2.5351,0,3,3,5,1,セル　ホレト　ピポ,,,CartoonStims/chef_kick_doctor_r.jpg,audio/seruhoretopipo.mp3,,,,,,,,,,,,,,,,,,,,,,,,,,,,,,,,,,,,,,,,,,,,,,,,,,,,,,,,,,,,,,,,,,,,,,,,,,
,,,,,,,,,R_3halPq6pgfCYq9T,2022-06-25_24h14.58.482,jpn_C01,2022.1.2,Win32,60.01680471,,,space,2.0933,0,4,4,29,1,パツ　ホレト　シド,,,CartoonStims/chef_shoot_artist_r.jpg,audio/patsuhoretosido.mp3,,,,,,,,,,,,,,,,,,,,,,,,,,,,,,,,,,,,,,,,,,,,,,,,,,,,,,,,,,,,,,,,,,,,,,,,,,
,,,,,,,,,R_3halPq6pgfCYq9T,2022-06-25_24h14.58.482,jpn_C01,2022.1.2,Win32,60.01680471,,,space,1.9244,0,5,5,9,1,セル　ピポ　シド,,,CartoonStims/doctor_kick_artist_r.jpg,audio/serupiposido.mp3,,,,,,,,,,,,,,,,,,,,,,,,,,,,,,,,,,,,,,,,,,,,,,,,,,,,,,,,,,,,,,,,,,,,,,,,,,
,,,,,,,,,R_3halPq6pgfCYq9T,2022-06-25_24h14.58.482,jpn_C01,2022.1.2,Win32,60.01680471,,,space,1.5393,0,6,6,37,1,プミ　シド　ドキ,,,CartoonStims/artist_punch_boxer_r.jpg,audio/pumisidodoki.mp3,,,,,,,,,,,,,,,,,,,,,,,,,,,,,,,,,,,,,,,,,,,,,,,,,,,,,,,,,,,,,,,,,,,,,,,,,,
,,,,,,,,,R_3halPq6pgfCYq9T,2022-06-25_24h14.58.482,jpn_C01,2022.1.2,Win32,60.01680471,,,space,2.1595,0,7,7,34,1,パツ　ドキ　ホレト,,,CartoonStims/boxer_shoot_chef_r.jpg,audio/patsudokihoreto.mp3,,,,,,,,,,,,,,,,,,,,,,,,,,,,,,,,,,,,,,,,,,,,,,,,,,,,,,,,,,,,,,,,,,,,,,,,,,
,,,,,,,,,R_3halPq6pgfCYq9T,2022-06-25_24h14.58.482,jpn_C01,2022.1.2,Win32,60.01680471,,,space,1.4693,0,8,8,21,1,トマ　ピポ　ルピン,,,CartoonStims/doctor_point_burglar_r.jpg,audio/tomapipolupin.mp3,,,,,,,,,,,,,,,,,,,,,,,,,,,,,,,,,,,,,,,,,,,,,,,,,,,,,,,,,,,,,,,,,,,,,,,,,,
,,,,,,,,,R_3halPq6pgfCYq9T,2022-06-25_24h14.58.482,jpn_C01,2022.1.2,Win32,60.01680471,,,space,1.7018,0,9,9,23,1,トマ　ドキ　ホレト,,,CartoonStims/boxer_point_chef_r.jpg,audio/tomadokihoreto.mp3,,,,,,,,,,,,,,,,,,,,,,,,,,,,,,,,,,,,,,,,,,,,,,,,,,,,,,,,,,,,,,,,,,,,,,,,,,
,,,,,,,,,R_3halPq6pgfCYq9T,2022-06-25_24h14.58.482,jpn_C01,2022.1.2,Win32,60.01680471,,,space,1.6193,0,10,10,35,1,パツ　ドキ　ムク,,,CartoonStims/boxer_shoot_cowboy_r.jpg,audio/patsudokimuku.mp3,,,,,,,,,,,,,,,,,,,,,,,,,,,,,,,,,,,,,,,,,,,,,,,,,,,,,,,,,,,,,,,,,,,,,,,,,,
,,,,,,,,,R_3halPq6pgfCYq9T,2022-06-25_24h14.58.482,jpn_C01,2022.1.2,Win32,60.01680471,,,space,1.7819,0,11,11,26,1,パツ　ルピン　ピポ,,,CartoonStims/burglar_shoot_doctor_r.jpg,audio/patsulupinpipo.mp3,,,,,,,,,,,,,,,,,,,,,,,,,,,,,,,,,,,,,,,,,,,,,,,,,,,,,,,,,,,,,,,,,,,,,,,,,,
,,,,,,,,,R_3halPq6pgfCYq9T,2022-06-25_24h14.58.482,jpn_C01,2022.1.2,Win32,60.01680471,,,space,1.8169,0,12,12,4,1,セル　ホレト　ムク,,,CartoonStims/chef_kick_cowboy_r.jpg,audio/seruhoretomuku.mp3,,,,,,,,,,,,,,,,,,,,,,,,,,,,,,,,,,,,,,,,,,,,,,,,,,,,,,,,,,,,,,,,,,,,,,,,,,
,,,,,,,,,R_3halPq6pgfCYq9T,2022-06-25_24h14.58.482,jpn_C01,2022.1.2,Win32,60.01680471,,,space,1.5478,0,13,13,46,1,プミ　ドキ　ムク,,,CartoonStims/boxer_punch_cowboy_r.jpg,audio/pumidokimuku.mp3,,,,,,,,,,,,,,,,,,,,,,,,,,,,,,,,,,,,,,,,,,,,,,,,,,,,,,,,,,,,,,,,,,,,,,,,,,
,,,,,,,,,R_3halPq6pgfCYq9T,2022-06-25_24h14.58.482,jpn_C01,2022.1.2,Win32,60.01680471,,,space,1.2014,0,14,14,28,1,パツ　ホレト　ドキ,,,CartoonStims/chef_shoot_boxer_r.jpg,audio/patsuhoretodoki.mp3,,,,,,,,,,,,,,,,,,,,,,,,,,,,,,,,,,,,,,,,,,,,,,,,,,,,,,,,,,,,,,,,,,,,,,,,,,
,,,,,,,,,R_3halPq6pgfCYq9T,2022-06-25_24h14.58.482,jpn_C01,2022.1.2,Win32,60.01680471,,,space,1.3238,0,15,15,31,1,パツ　ムク　ルピン,,,CartoonStims/cowboy_shoot_burglar_r.jpg,audio/patsumukulupin.mp3,,,,,,,,,,,,,,,,,,,,,,,,,,,,,,,,,,,,,,,,,,,,,,,,,,,,,,,,,,,,,,,,,,,,,,,,,,
,,,,,,,,,R_3halPq6pgfCYq9T,2022-06-25_24h14.58.482,jpn_C01,2022.1.2,Win32,60.01680471,,,space,1.2738,0,16,16,6,1,セル　ムク　ピポ,,,CartoonStims/cowboy_kick_doctor_r.jpg,audio/serumukupipo.mp3,,,,,,,,,,,,,,,,,,,,,,,,,,,,,,,,,,,,,,,,,,,,,,,,,,,,,,,,,,,,,,,,,,,,,,,,,,
,,,,,,,,,R_3halPq6pgfCYq9T,2022-06-25_24h14.58.482,jpn_C01,2022.1.2,Win32,60.01680471,,,space,1.762,0,17,17,19,1,トマ　ムク　シド,,,CartoonStims/cowboy_point_artist_r.jpg,audio/tomamukusido.mp3,,,,,,,,,,,,,,,,,,,,,,,,,,,,,,,,,,,,,,,,,,,,,,,,,,,,,,,,,,,,,,,,,,,,,,,,,,
,,,,,,,,,R_3halPq6pgfCYq9T,2022-06-25_24h14.58.482,jpn_C01,2022.1.2,Win32,60.01680471,,,space,1.9579,0,18,18,13,1,トマ　シド　ムク,,,CartoonStims/artist_point_cowboy_r.jpg,audio/tomasidomuku.mp3,,,,,,,,,,,,,,,,,,,,,,,,,,,,,,,,,,,,,,,,,,,,,,,,,,,,,,,,,,,,,,,,,,,,,,,,,,
,,,,,,,,,R_3halPq6pgfCYq9T,2022-06-25_24h14.58.482,jpn_C01,2022.1.2,Win32,60.01680471,,,space,2.5628,0,19,19,8,1,セル　ピポ　ドキ,,,CartoonStims/doctor_kick_boxer_r.jpg,audio/serupipodoki.mp3,,,,,,,,,,,,,,,,,,,,,,,,,,,,,,,,,,,,,,,,,,,,,,,,,,,,,,,,,,,,,,,,,,,,,,,,,,
,,,,,,,,,R_3halPq6pgfCYq9T,2022-06-25_24h14.58.482,jpn_C01,2022.1.2,Win32,60.01680471,,,space,3.5191,0,20,20,12,1,トマ　シド　ホレト,,,CartoonStims/artist_point_chef_r.jpg,audio/tomasidohoreto.mp3,,,,,,,,,,,,,,,,,,,,,,,,,,,,,,,,,,,,,,,,,,,,,,,,,,,,,,,,,,,,,,,,,,,,,,,,,,
,,,,,,,,,R_3halPq6pgfCYq9T,2022-06-25_24h14.58.482,jpn_C01,2022.1.2,Win32,60.01680471,,,space,1.8296,0,21,21,39,1,プミ　ルピン　シド,,,CartoonStims/burglar_punch_artist_r.jpg,audio/pumilupinsido.mp3,,,,,,,,,,,,,,,,,,,,,,,,,,,,,,,,,,,,,,,,,,,,,,,,,,,,,,,,,,,,,,,,,,,,,,,,,,
,,,,,,,,,R_3halPq6pgfCYq9T,2022-06-25_24h14.58.482,jpn_C01,2022.1.2,Win32,60.01680471,,,space,2.3757,0,22,22,44,1,プミ　ピポ　ホレト,,,CartoonStims/doctor_punch_chef_r.jpg,audio/pumipipohoreto.mp3,,,,,,,,,,,,,,,,,,,,,,,,,,,,,,,,,,,,,,,,,,,,,,,,,,,,,,,,,,,,,,,,,,,,,,,,,,
,,,,,,,,,R_3halPq6pgfCYq9T,2022-06-25_24h14.58.482,jpn_C01,2022.1.2,Win32,60.01680471,,,space,2.1241,0,23,23,16,1,トマ　ホレト　ピポ,,,CartoonStims/chef_point_doctor_r.jpg,audio/tomahoretopipo.mp3,,,,,,,,,,,,,,,,,,,,,,,,,,,,,,,,,,,,,,,,,,,,,,,,,,,,,,,,,,,,,,,,,,,,,,,,,,
,,,,,,,,,R_3halPq6pgfCYq9T,2022-06-25_24h14.58.482,jpn_C01,2022.1.2,Win32,60.01680471,,,space,1.9924,0,24,24,27,1,パツ　ルピン　ドキ,,,CartoonStims/burglar_shoot_boxer_r.jpg,audio/patsulupindoki.mp3,,,,,,,,,,,,,,,,,,,,,,,,,,,,,,,,,,,,,,,,,,,,,,,,,,,,,,,,,,,,,,,,,,,,,,,,,,
,,,,,,,,,R_3halPq6pgfCYq9T,2022-06-25_24h14.58.482,jpn_C01,2022.1.2,Win32,60.01680471,,,space,1.4449,0,25,25,30,1,パツ　ムク　シド,,,CartoonStims/cowboy_shoot_artist_r.jpg,audio/patsumukusido.mp3,,,,,,,,,,,,,,,,,,,,,,,,,,,,,,,,,,,,,,,,,,,,,,,,,,,,,,,,,,,,,,,,,,,,,,,,,,
,,,,,,,,,R_3halPq6pgfCYq9T,2022-06-25_24h14.58.482,jpn_C01,2022.1.2,Win32,60.01680471,,,space,1.3905,0,26,26,0,1,セル　シド　ルピン,,,CartoonStims/artist_kick_burglar_r.jpg,audio/serusidolupin.mp3,,,,,,,,,,,,,,,,,,,,,,,,,,,,,,,,,,,,,,,,,,,,,,,,,,,,,,,,,,,,,,,,,,,,,,,,,,
,,,,,,,,,R_3halPq6pgfCYq9T,2022-06-25_24h14.58.482,jpn_C01,2022.1.2,Win32,60.01680471,,,space,2.1767,0,27,27,10,1,セル　ドキ　シド,,,CartoonStims/boxer_kick_artist_r.jpg,audio/serudokisido.mp3,,,,,,,,,,,,,,,,,,,,,,,,,,,,,,,,,,,,,,,,,,,,,,,,,,,,,,,,,,,,,,,,,,,,,,,,,,
,,,,,,,,,R_3halPq6pgfCYq9T,2022-06-25_24h14.58.482,jpn_C01,2022.1.2,Win32,60.01680471,,,space,1.4218,0,28,28,33,1,パツ　ピポ　ホレト,,,CartoonStims/doctor_shoot_chef_r.jpg,audio/patsupipohoreto.mp3,,,,,,,,,,,,,,,,,,,,,,,,,,,,,,,,,,,,,,,,,,,,,,,,,,,,,,,,,,,,,,,,,,,,,,,,,,
,,,,,,,,,R_3halPq6pgfCYq9T,2022-06-25_24h14.58.482,jpn_C01,2022.1.2,Win32,60.01680471,,,space,1.5196,0,29,29,15,1,トマ　ルピン　ピポ,,,CartoonStims/burglar_point_doctor_r.jpg,audio/tomalupinpipo.mp3,,,,,,,,,,,,,,,,,,,,,,,,,,,,,,,,,,,,,,,,,,,,,,,,,,,,,,,,,,,,,,,,,,,,,,,,,,
,,,,,,,,,R_3halPq6pgfCYq9T,2022-06-25_24h14.58.482,jpn_C01,2022.1.2,Win32,60.01680471,,,space,2.1245,0,30,30,17,1,トマ　ホレト　ドキ,,,CartoonStims/chef_point_boxer_r.jpg,audio/tomahoretodoki.mp3,,,,,,,,,,,,,,,,,,,,,,,,,,,,,,,,,,,,,,,,,,,,,,,,,,,,,,,,,,,,,,,,,,,,,,,,,,
,,,,,,,,,R_3halPq6pgfCYq9T,2022-06-25_24h14.58.482,jpn_C01,2022.1.2,Win32,60.01680471,,,space,2.5075,0,31,31,42,1,プミ　ムク　ルピン,,,CartoonStims/cowboy_punch_burglar_r.jpg,audio/pumimukulupin.mp3,,,,,,,,,,,,,,,,,,,,,,,,,,,,,,,,,,,,,,,,,,,,,,,,,,,,,,,,,,,,,,,,,,,,,,,,,,
,,,,,,,,,R_3halPq6pgfCYq9T,2022-06-25_24h14.58.482,jpn_C01,2022.1.2,Win32,60.01680471,,,space,1.7383,0,32,32,41,1,プミ　ホレト　ルピン,,,CartoonStims/chef_punch_burglar_r.jpg,audio/pumihoretolupin.mp3,,,,,,,,,,,,,,,,,,,,,,,,,,,,,,,,,,,,,,,,,,,,,,,,,,,,,,,,,,,,,,,,,,,,,,,,,,
,,,,,,,,,R_3halPq6pgfCYq9T,2022-06-25_24h14.58.482,jpn_C01,2022.1.2,Win32,60.01680471,,,space,1.6397,0,33,33,1,1,セル 　シド 　ホレト,,,CartoonStims/artist_kick_chef_r.jpg,audio/serusidohoreto.mp3,,,,,,,,,,,,,,,,,,,,,,,,,,,,,,,,,,,,,,,,,,,,,,,,,,,,,,,,,,,,,,,,,,,,,,,,,,
,,,,,,,,,R_3halPq6pgfCYq9T,2022-06-25_24h14.58.482,jpn_C01,2022.1.2,Win32,60.01680471,,,space,1.7685,0,34,34,32,1,パツ　ピポ　ルピン,,,CartoonStims/doctor_shoot_burglar_r.jpg,audio/patsupipolupin.mp3,,,,,,,,,,,,,,,,,,,,,,,,,,,,,,,,,,,,,,,,,,,,,,,,,,,,,,,,,,,,,,,,,,,,,,,,,,
,,,,,,,,,R_3halPq6pgfCYq9T,2022-06-25_24h14.58.482,jpn_C01,2022.1.2,Win32,60.01680471,,,space,1.4126,0,35,35,36,1,プミ　シド　ピポ,,,CartoonStims/artist_punch_doctor_r.jpg,audio/pumisidopipo.mp3,,,,,,,,,,,,,,,,,,,,,,,,,,,,,,,,,,,,,,,,,,,,,,,,,,,,,,,,,,,,,,,,,,,,,,,,,,
,,,,,,,,,R_3halPq6pgfCYq9T,2022-06-25_24h14.58.482,jpn_C01,2022.1.2,Win32,60.01680471,,,space,1.4875,0,36,36,40,1,プミ　ホレト　シド,,,CartoonStims/chef_punch_artist_r.jpg,audio/pumihoretosido.mp3,,,,,,,,,,,,,,,,,,,,,,,,,,,,,,,,,,,,,,,,,,,,,,,,,,,,,,,,,,,,,,,,,,,,,,,,,,
,,,,,,,,,R_3halPq6pgfCYq9T,2022-06-25_24h14.58.482,jpn_C01,2022.1.2,Win32,60.01680471,,,space,1.2938,0,37,37,43,1,プミ　ムク　ホレト,,,CartoonStims/cowboy_punch_chef_r.jpg,audio/pumimukuhoreto.mp3,,,,,,,,,,,,,,,,,,,,,,,,,,,,,,,,,,,,,,,,,,,,,,,,,,,,,,,,,,,,,,,,,,,,,,,,,,
,,,,,,,,,R_3halPq6pgfCYq9T,2022-06-25_24h14.58.482,jpn_C01,2022.1.2,Win32,60.01680471,,,space,1.9103,0,38,38,3,1,セル　ルピン　ムク,,,CartoonStims/burglar_kick_cowboy_r.jpg,audio/serulupinmuku.mp3,,,,,,,,,,,,,,,,,,,,,,,,,,,,,,,,,,,,,,,,,,,,,,,,,,,,,,,,,,,,,,,,,,,,,,,,,,
,,,,,,,,,R_3halPq6pgfCYq9T,2022-06-25_24h14.58.482,jpn_C01,2022.1.2,Win32,60.01680471,,,space,1.1808,0,39,39,7,1,セル　ムク　ドキ,,,CartoonStims/cowboy_kick_boxer_r.jpg,audio/serumukudoki.mp3,,,,,,,,,,,,,,,,,,,,,,,,,,,,,,,,,,,,,,,,,,,,,,,,,,,,,,,,,,,,,,,,,,,,,,,,,,
,,,,,,,,,R_3halPq6pgfCYq9T,2022-06-25_24h14.58.482,jpn_C01,2022.1.2,Win32,60.01680471,,,space,1.1448,0,40,40,18,1,トマ　ムク　ドキ,,,CartoonStims/cowboy_point_boxer_r.jpg,audio/tomamukudoki.mp3,,,,,,,,,,,,,,,,,,,,,,,,,,,,,,,,,,,,,,,,,,,,,,,,,,,,,,,,,,,,,,,,,,,,,,,,,,
,,,,,,,,,R_3halPq6pgfCYq9T,2022-06-25_24h14.58.482,jpn_C01,2022.1.2,Win32,60.01680471,,,space,1.694,0,41,41,38,1,プミ　ルピン　ドキ,,,CartoonStims/burglar_punch_boxer_r.jpg,audio/pumilupindoki.mp3,,,,,,,,,,,,,,,,,,,,,,,,,,,,,,,,,,,,,,,,,,,,,,,,,,,,,,,,,,,,,,,,,,,,,,,,,,
,,,,,,,,,R_3halPq6pgfCYq9T,2022-06-25_24h14.58.482,jpn_C01,2022.1.2,Win32,60.01680471,,,space,1.4777,0,42,42,2,1,セル 　ルピン 　ホレト,,,CartoonStims/burglar_kick_chef_r.jpg,audio/serulupinhoreto.mp3,,,,,,,,,,,,,,,,,,,,,,,,,,,,,,,,,,,,,,,,,,,,,,,,,,,,,,,,,,,,,,,,,,,,,,,,,,
,,,,,,,,,R_3halPq6pgfCYq9T,2022-06-25_24h14.58.482,jpn_C01,2022.1.2,Win32,60.01680471,,,space,1.4603,0,43,43,22,1,トマ　ドキ　ルピン,,,CartoonStims/boxer_point_burglar_r.jpg,audio/tomadokilupin.mp3,,,,,,,,,,,,,,,,,,,,,,,,,,,,,,,,,,,,,,,,,,,,,,,,,,,,,,,,,,,,,,,,,,,,,,,,,,
,,,,,,,,,R_3halPq6pgfCYq9T,2022-06-25_24h14.58.482,jpn_C01,2022.1.2,Win32,60.01680471,,,space,1.3423,0,44,44,24,1,パツ　シド　ムク,,,CartoonStims/artist_shoot_cowboy_r.jpg,audio/patsusidomuku.mp3,,,,,,,,,,,,,,,,,,,,,,,,,,,,,,,,,,,,,,,,,,,,,,,,,,,,,,,,,,,,,,,,,,,,,,,,,,
,,,,,,,,,R_3halPq6pgfCYq9T,2022-06-25_24h14.58.482,jpn_C01,2022.1.2,Win32,60.01680471,,,space,1.2431,0,45,45,25,1,パツ　シド　ピポ,,,CartoonStims/artist_shoot_doctor_r.jpg,audio/patsusidopipo.mp3,,,,,,,,,,,,,,,,,,,,,,,,,,,,,,,,,,,,,,,,,,,,,,,,,,,,,,,,,,,,,,,,,,,,,,,,,,
,,,,,,,,,R_3halPq6pgfCYq9T,2022-06-25_24h14.58.482,jpn_C01,2022.1.2,Win32,60.01680471,,,space,1.5408,0,46,46,47,1,プミ　ドキ　ピポ,,,CartoonStims/boxer_punch_doctor_r.jpg,audio/pumidokipipo.mp3,,,,,,,,,,,,,,,,,,,,,,,,,,,,,,,,,,,,,,,,,,,,,,,,,,,,,,,,,,,,,,,,,,,,,,,,,,
,,,,,,,,,R_3halPq6pgfCYq9T,2022-06-25_24h14.58.482,jpn_C01,2022.1.2,Win32,60.01680471,,,space,1.3616,0,47,47,45,1,プミ　ピポ　ムク,,,CartoonStims/doctor_punch_cowboy_r.jpg,audio/pumipipomuku.mp3,,,,,,,,,,,,,,,,,,,,,,,,,,,,,,,,,,,,,,,,,,,,,,,,,,,,,,,,,,,,,,,,,,,,,,,,,,
,,,,,,,,,R_3halPq6pgfCYq9T,2022-06-25_24h14.58.482,jpn_C01,2022.1.2,Win32,60.01680471,,,,,,,,,,,,,,,space,0.3693,right,1,7.5748,,,,,,,,,,,,,,,,,,0,0,0,0,1,,,,,,,,,,,,,,,,,,,,,,,,,,,,,,,,,,,,,,,,,,,,,,,
,,,,,,,,,R_3halPq6pgfCYq9T,2022-06-25_24h14.58.482,jpn_C01,2022.1.2,Win32,60.01680471,,,,,,,,,,,,,,,,,,,,,,,,,0,0,0,9,1,CartoonStims/chef_kick_artist_r.jpg,セル　ムク　シド,CartoonStims/cowboy_kick_artist_r.jpg,right,CartoonStims/cowboy_kick_artist_r.jpg,audio/serumukusido.mp3,残念！ こちらが正しい画像です。,,,,,,,,,,,,,,,,,,,,,,,,,,,,,,,,,,,,,,,,,,,,,,,,,,,,
,,,,,,,,,R_3halPq6pgfCYq9T,2022-06-25_24h14.58.482,jpn_C01,2022.1.2,Win32,60.01680471,,,,,,,,,,,,,,,,,right,1,2.5297,,,,,,,,,,,,,,,,,,0,0,0,0,1,,,,,,,,,,,,,,,,,,,,,,,,,,,,,,,,,,,,,,,,,,,,,,,
,,,,,,,,,R_3halPq6pgfCYq9T,2022-06-25_24h14.58.482,jpn_C01,2022.1.2,Win32,60.01680471,,,,,,,,,,,,,,,,,,,,,,,,,0,1,1,3,1,CartoonStims/cowboy_punch_doctor_r.jpg,プミ　ムク　ドキ,CartoonStims/cowboy_punch_boxer_r.jpg,right,CartoonStims/cowboy_punch_boxer_r.jpg,audio/pumimukudoki.mp3,残念！ こちらが正しい画像です。,,,,,,,,,,,,,,,,,,,,,,,,,,,,,,,,,,,,,,,,,,,,,,,,,,,,
,,,,,,,,,R_3halPq6pgfCYq9T,2022-06-25_24h14.58.482,jpn_C01,2022.1.2,Win32,60.01680471,,,,,,,,,,,,,,,,,left,1,1.8965,0,0,0,0,1,,,,,,,,,,,,,,,,,,,,,,,,,,,,,,,,,,,,,,,,,,,,,,,,,,,,,,,,,,,,,,,,
,,,,,,,,,R_3halPq6pgfCYq9T,2022-06-25_24h14.58.482,jpn_C01,2022.1.2,Win32,60.01680471,,,,,,,,,,,,,,,,,,,,,,,,,0,2,2,8,1,CartoonStims/doctor_point_cowboy_r.jpg,トマ　ピポ　ムク,CartoonStims/boxer_point_cowboy_r.jpg,left,CartoonStims/doctor_point_cowboy_r.jpg,audio/tomapipomuku.mp3,残念！ こちらが正しい画像です。,,,,,,,,,,,,,,,,,,,,,,,,,,,,,,,,,,,,,,,,,,,,,,,,,,,,
,,,,,,,,,R_3halPq6pgfCYq9T,2022-06-25_24h14.58.482,jpn_C01,2022.1.2,Win32,60.01680471,,,,,,,,,,,,,,,,,right,1,1.2073,,,,,,,,,,,,,,,,,,0,0,0,0,1,,,,,,,,,,,,,,,,,,,,,,,,,,,,,,,,,,,,,,,,,,,,,,,
,,,,,,,,,R_3halPq6pgfCYq9T,2022-06-25_24h14.58.482,jpn_C01,2022.1.2,Win32,60.01680471,,,,,,,,,,,,,,,,,,,,,,,,,0,3,3,1,1,CartoonStims/chef_point_burglar_r.jpg,トマ　ホレト　シド,CartoonStims/chef_point_artist_r.jpg,right,CartoonStims/chef_point_artist_r.jpg,audio/tomahoretosido.mp3,残念！ こちらが正しい画像です。,,,,,,,,,,,,,,,,,,,,,,,,,,,,,,,,,,,,,,,,,,,,,,,,,,,,
,,,,,,,,,R_3halPq6pgfCYq9T,2022-06-25_24h14.58.482,jpn_C01,2022.1.2,Win32,60.01680471,,,,,,,,,,,,,,,,,left,1,1.5785,0,0,0,0,1,,,,,,,,,,,,,,,,,,,,,,,,,,,,,,,,,,,,,,,,,,,,,,,,,,,,,,,,,,,,,,,,
,,,,,,,,,R_3halPq6pgfCYq9T,2022-06-25_24h14.58.482,jpn_C01,2022.1.2,Win32,60.01680471,,,,,,,,,,,,,,,,,,,,,,,,,0,4,4,4,1,CartoonStims/burglar_point_boxer_r.jpg,トマ　ルピン　ドキ,CartoonStims/burglar_kick_boxer_r.jpg,left,CartoonStims/burglar_point_boxer_r.jpg,audio/tomalupindoki.mp3,残念！ こちらが正しい画像です。,,,,,,,,,,,,,,,,,,,,,,,,,,,,,,,,,,,,,,,,,,,,,,,,,,,,
,,,,,,,,,R_3halPq6pgfCYq9T,2022-06-25_24h14.58.482,jpn_C01,2022.1.2,Win32,60.01680471,,,,,,,,,,,,,,,,,left,1,2.0616,0,0,0,0,1,,,,,,,,,,,,,,,,,,,,,,,,,,,,,,,,,,,,,,,,,,,,,,,,,,,,,,,,,,,,,,,,
,,,,,,,,,R_3halPq6pgfCYq9T,2022-06-25_24h14.58.482,jpn_C01,2022.1.2,Win32,60.01680471,,,,,,,,,,,,,,,,,,,,,,,,,0,5,5,6,1,CartoonStims/doctor_punch_boxer_r.jpg,プミ　ピポ　ドキ,CartoonStims/doctor_shoot_boxer_r.jpg,left,CartoonStims/doctor_punch_boxer_r.jpg,audio/pumipipodoki.mp3,残念！ こちらが正しい画像です。,,,,,,,,,,,,,,,,,,,,,,,,,,,,,,,,,,,,,,,,,,,,,,,,,,,,
,,,,,,,,,R_3halPq6pgfCYq9T,2022-06-25_24h14.58.482,jpn_C01,2022.1.2,Win32,60.01680471,,,,,,,,,,,,,,,,,right,1,2.1428,,,,,,,,,,,,,,,,,,0,0,0,0,1,,,,,,,,,,,,,,,,,,,,,,,,,,,,,,,,,,,,,,,,,,,,,,,
,,,,,,,,,R_3halPq6pgfCYq9T,2022-06-25_24h14.58.482,jpn_C01,2022.1.2,Win32,60.01680471,,,,,,,,,,,,,,,,,,,,,,,,,0,6,6,11,1,CartoonStims/burglar_punch_cowboy_r.jpg,プミ　ホレト　ムク,CartoonStims/chef_punch_cowboy_r.jpg,right,CartoonStims/chef_punch_cowboy_r.jpg,audio/pumihoretomuku.mp3,残念！ こちらが正しい画像です。,,,,,,,,,,,,,,,,,,,,,,,,,,,,,,,,,,,,,,,,,,,,,,,,,,,,
,,,,,,,,,R_3halPq6pgfCYq9T,2022-06-25_24h14.58.482,jpn_C01,2022.1.2,Win32,60.01680471,,,,,,,,,,,,,,,,,left,1,4.972,0,0,0,0,1,,,,,,,,,,,,,,,,,,,,,,,,,,,,,,,,,,,,,,,,,,,,,,,,,,,,,,,,,,,,,,,,
,,,,,,,,,R_3halPq6pgfCYq9T,2022-06-25_24h14.58.482,jpn_C01,2022.1.2,Win32,60.01680471,,,,,,,,,,,,,,,,,,,,,,,,,0,7,7,2,1,CartoonStims/boxer_shoot_doctor_r.jpg,パツ　ドキ　ピポ,CartoonStims/boxer_shoot_artist_r.jpg,left,CartoonStims/boxer_shoot_doctor_r.jpg,audio/patsudokipipo.mp3,残念！ こちらが正しい画像です。,,,,,,,,,,,,,,,,,,,,,,,,,,,,,,,,,,,,,,,,,,,,,,,,,,,,
,,,,,,,,,R_3halPq6pgfCYq9T,2022-06-25_24h14.58.482,jpn_C01,2022.1.2,Win32,60.01680471,,,,,,,,,,,,,,,,,left,1,2.4335,0,0,0,0,1,,,,,,,,,,,,,,,,,,,,,,,,,,,,,,,,,,,,,,,,,,,,,,,,,,,,,,,,,,,,,,,,
,,,,,,,,,R_3halPq6pgfCYq9T,2022-06-25_24h14.58.482,jpn_C01,2022.1.2,Win32,60.01680471,,,,,,,,,,,,,,,,,,,,,,,,,0,8,8,10,1,CartoonStims/artist_shoot_burglar_r.jpg,パツ　シド　ルピン,CartoonStims/chef_shoot_burglar_r.jpg,left,CartoonStims/artist_shoot_burglar_r.jpg,audio/patsusidolupin.mp3,残念！ こちらが正しい画像です。,,,,,,,,,,,,,,,,,,,,,,,,,,,,,,,,,,,,,,,,,,,,,,,,,,,,
,,,,,,,,,R_3halPq6pgfCYq9T,2022-06-25_24h14.58.482,jpn_C01,2022.1.2,Win32,60.01680471,,,,,,,,,,,,,,,,,left,1,1.4018,0,0,0,0,1,,,,,,,,,,,,,,,,,,,,,,,,,,,,,,,,,,,,,,,,,,,,,,,,,,,,,,,,,,,,,,,,
,,,,,,,,,R_3halPq6pgfCYq9T,2022-06-25_24h14.58.482,jpn_C01,2022.1.2,Win32,60.01680471,,,,,,,,,,,,,,,,,,,,,,,,,0,9,9,0,1,CartoonStims/doctor_kick_burglar_r.jpg,セル　ピポ　ルピン,CartoonStims/doctor_kick_chef_r.jpg,left,CartoonStims/doctor_kick_burglar_r.jpg,audio/serupipolupin.mp3,残念！ こちらが正しい画像です。,,,,,,,,,,,,,,,,,,,,,,,,,,,,,,,,,,,,,,,,,,,,,,,,,,,,
,,,,,,,,,R_3halPq6pgfCYq9T,2022-06-25_24h14.58.482,jpn_C01,2022.1.2,Win32,60.01680471,,,,,,,,,,,,,,,,,right,1,1.1484,,,,,,,,,,,,,,,,,,0,0,0,0,1,,,,,,,,,,,,,,,,,,,,,,,,,,,,,,,,,,,,,,,,,,,,,,,
,,,,,,,,,R_3halPq6pgfCYq9T,2022-06-25_24h14.58.482,jpn_C01,2022.1.2,Win32,60.01680471,,,,,,,,,,,,,,,,,,,,,,,,,0,10,10,5,1,CartoonStims/cowboy_point_chef_r.jpg,パツ　ムク　ホレト,CartoonStims/cowboy_shoot_chef_r.jpg,right,CartoonStims/cowboy_shoot_chef_r.jpg,audio/patsumukuhoreto.mp3,残念！ こちらが正しい画像です。,,,,,,,,,,,,,,,,,,,,,,,,,,,,,,,,,,,,,,,,,,,,,,,,,,,,
,,,,,,,,,R_3halPq6pgfCYq9T,2022-06-25_24h14.58.482,jpn_C01,2022.1.2,Win32,60.01680471,,,,,,,,,,,,,,,,,right,1,1.4673,,,,,,,,,,,,,,,,,,0,0,0,0,1,,,,,,,,,,,,,,,,,,,,,,,,,,,,,,,,,,,,,,,,,,,,,,,
,,,,,,,,,R_3halPq6pgfCYq9T,2022-06-25_24h14.58.482,jpn_C01,2022.1.2,Win32,60.01680471,,,,,,,,,,,,,,,,,,,,,,,,,0,11,11,7,1,CartoonStims/artist_punch_cowboy_r.jpg,セル　シド　ムク,CartoonStims/artist_kick_cowboy_r.jpg,right,CartoonStims/artist_kick_cowboy_r.jpg,audio/serusidomuku.mp3,残念！ こちらが正しい画像です。,,,,,,,,,,,,,,,,,,,,,,,,,,,,,,,,,,,,,,,,,,,,,,,,,,,,
,,,,,,,,,R_3halPq6pgfCYq9T,2022-06-25_24h14.58.482,jpn_C01,2022.1.2,Win32,60.01680471,,,,,,,,,,,,,,,,,,,,,,,,,,,,,,,,,,,,,,,,,,,,,,,space,4.1815,パツ　ルピン　ピポ,right,14.0008,0,0,0,0,1,,,,,,,,,,,,,,,,,,,,,,,,,,,,,,,,
,,,,,,,,,R_3halPq6pgfCYq9T,2022-06-25_24h14.58.482,jpn_C01,2022.1.2,Win32,60.01680471,,,,,,,,,,,,,CartoonStims/burglar_shoot_chef_r.jpg,audio/patsulupinhoreto.mp3,,,,,,,,,,,,,,,,,,,,,,,,,,,,,,,,,,,,,,,,,,,0,0,0,6,1,パツ　ルピン　ホレト,,,,,,,,,,,,,,,,,,,,,,,,,,
,,,,,,,,,R_3halPq6pgfCYq9T,2022-06-25_24h14.58.482,jpn_C01,2022.1.2,Win32,60.01680471,,,,,,,,,,,,,,,,,,,,,,,,,,,,,,,,,,,,,,,,,,,,,,,,,パツ　ホレト　シド,right,23.4811,0,0,0,0,1,,,,,,,,,,,,,,,,,,,,,,,,,,,,,,,,
,,,,,,,,,R_3halPq6pgfCYq9T,2022-06-25_24h14.58.482,jpn_C01,2022.1.2,Win32,60.01680471,,,,,,,,,,,,,CartoonStims/cowboy_shoot_doctor_r.jpg,audio/patsumukupipo.mp3,,,,,,,,,,,,,,,,,,,,,,,,,,,,,,,,,,,,,,,,,,,0,1,1,8,1,パツ　ムク　ピポ,,,,,,,,,,,,,,,,,,,,,,,,,,
,,,,,,,,,R_3halPq6pgfCYq9T,2022-06-25_24h14.58.482,jpn_C01,2022.1.2,Win32,60.01680471,,,,,,,,,,,,,,,,,,,,,,,,,,,,,,,,,,,,,,,,,,,,,,,,,ムク　ムク　ドキ,right,20.3019,0,0,0,0,1,,,,,,,,,,,,,,,,,,,,,,,,,,,,,,,,
,,,,,,,,,R_3halPq6pgfCYq9T,2022-06-25_24h14.58.482,jpn_C01,2022.1.2,Win32,60.01680471,,,,,,,,,,,,,CartoonStims/doctor_punch_boxer_r.jpg,audio/pumipipodoki.mp3,,,,,,,,,,,,,,,,,,,,,,,,,,,,,,,,,,,,,,,,,,,0,2,2,10,1,プミ　ピポ　ドキ,,,,,,,,,,,,,,,,,,,,,,,,,,
,,,,,,,,,R_3halPq6pgfCYq9T,2022-06-25_24h14.58.482,jpn_C01,2022.1.2,Win32,60.01680471,,,,,,,,,,,,,,,,,,,,,,,,,,,,,,,,,,,,,,,,,,,,,,,,,トマ　シド　ドキ,right,7.8636,0,0,0,0,1,,,,,,,,,,,,,,,,,,,,,,,,,,,,,,,,
,,,,,,,,,R_3halPq6pgfCYq9T,2022-06-25_24h14.58.482,jpn_C01,2022.1.2,Win32,60.01680471,,,,,,,,,,,,,CartoonStims/artist_point_boxer_r.jpg,audio/tomasidodoki.mp3,,,,,,,,,,,,,,,,,,,,,,,,,,,,,,,,,,,,,,,,,,,0,3,3,3,1,トマ　シド　ドキ,,,,,,,,,,,,,,,,,,,,,,,,,,
,,,,,,,,,R_3halPq6pgfCYq9T,2022-06-25_24h14.58.482,jpn_C01,2022.1.2,Win32,60.01680471,,,,,,,,,,,,,,,,,,,,,,,,,,,,,,,,,,,,,,,,,,,,,,,,,セル　シド　ポピ,right,13.9326,0,0,0,0,1,,,,,,,,,,,,,,,,,,,,,,,,,,,,,,,,
,,,,,,,,,R_3halPq6pgfCYq9T,2022-06-25_24h14.58.482,jpn_C01,2022.1.2,Win32,60.01680471,,,,,,,,,,,,,CartoonStims/doctor_kick_chef_r.jpg,audio/serupipohoreto.mp3,,,,,,,,,,,,,,,,,,,,,,,,,,,,,,,,,,,,,,,,,,,0,4,4,1,1,セル　ピポ　ホレト,,,,,,,,,,,,,,,,,,,,,,,,,,
,,,,,,,,,R_3halPq6pgfCYq9T,2022-06-25_24h14.58.482,jpn_C01,2022.1.2,Win32,60.01680471,,,,,,,,,,,,,,,,,,,,,,,,,,,,,,,,,,,,,,,,,,,,,,,,,ムク　シド　ルピン,right,9.4068,0,0,0,0,1,,,,,,,,,,,,,,,,,,,,,,,,,,,,,,,,
,,,,,,,,,R_3halPq6pgfCYq9T,2022-06-25_24h14.58.482,jpn_C01,2022.1.2,Win32,60.01680471,,,,,,,,,,,,,CartoonStims/artist_punch_burglar_r.jpg,audio/pumisidolupin.mp3,,,,,,,,,,,,,,,,,,,,,,,,,,,,,,,,,,,,,,,,,,,0,5,5,9,1,プミ　シド　ルピン,,,,,,,,,,,,,,,,,,,,,,,,,,
,,,,,,,,,R_3halPq6pgfCYq9T,2022-06-25_24h14.58.482,jpn_C01,2022.1.2,Win32,60.01680471,,,,,,,,,,,,,,,,,,,,,,,,,,,,,,,,,,,,,,,,,,,,,,,,,シド　ルピン,right,11.8536,0,0,0,0,1,,,,,,,,,,,,,,,,,,,,,,,,,,,,,,,,
,,,,,,,,,R_3halPq6pgfCYq9T,2022-06-25_24h14.58.482,jpn_C01,2022.1.2,Win32,60.01680471,,,,,,,,,,,,,CartoonStims/cowboy_kick_burglar_r.jpg,audio/serumukulupin.mp3,,,,,,,,,,,,,,,,,,,,,,,,,,,,,,,,,,,,,,,,,,,0,6,6,0,1,セル　ムク　ルピン,,,,,,,,,,,,,,,,,,,,,,,,,,
,,,,,,,,,R_3halPq6pgfCYq9T,2022-06-25_24h14.58.482,jpn_C01,2022.1.2,Win32,60.01680471,,,,,,,,,,,,,,,,,,,,,,,,,,,,,,,,,,,,,,,,,,,,,,,,,トマ　シド　ルピン,right,8.7227,0,0,0,0,1,,,,,,,,,,,,,,,,,,,,,,,,,,,,,,,,
,,,,,,,,,R_3halPq6pgfCYq9T,2022-06-25_24h14.58.482,jpn_C01,2022.1.2,Win32,60.01680471,,,,,,,,,,,,,CartoonStims/chef_point_burglar_r.jpg,audio/tomahoretolupin.mp3,,,,,,,,,,,,,,,,,,,,,,,,,,,,,,,,,,,,,,,,,,,0,7,7,5,1,トマ　ホレト　ルピン,,,,,,,,,,,,,,,,,,,,,,,,,,
,,,,,,,,,R_3halPq6pgfCYq9T,2022-06-25_24h14.58.482,jpn_C01,2022.1.2,Win32,60.01680471,,,,,,,,,,,,,,,,,,,,,,,,,,,,,,,,,,,,,,,,,,,,,,,,,ムク　ドキ　シド,right,11.3046,0,0,0,0,1,,,,,,,,,,,,,,,,,,,,,,,,,,,,,,,,
,,,,,,,,,R_3halPq6pgfCYq9T,2022-06-25_24h14.58.482,jpn_C01,2022.1.2,Win32,60.01680471,,,,,,,,,,,,,CartoonStims/boxer_punch_artist_r.jpg,audio/pumidokisido.mp3,,,,,,,,,,,,,,,,,,,,,,,,,,,,,,,,,,,,,,,,,,,0,8,8,11,1,プミ　ドキ　シド,,,,,,,,,,,,,,,,,,,,,,,,,,
,,,,,,,,,R_3halPq6pgfCYq9T,2022-06-25_24h14.58.482,jpn_C01,2022.1.2,Win32,60.01680471,,,,,,,,,,,,,,,,,,,,,,,,,,,,,,,,,,,,,,,,,,,,,,,,,トマ　ルピン　ホレト,right,9.985,0,0,0,0,1,,,,,,,,,,,,,,,,,,,,,,,,,,,,,,,,
,,,,,,,,,R_3halPq6pgfCYq9T,2022-06-25_24h14.58.482,jpn_C01,2022.1.2,Win32,60.01680471,,,,,,,,,,,,,CartoonStims/burglar_point_artist_r.jpg,audio/tomalupinsido.mp3,,,,,,,,,,,,,,,,,,,,,,,,,,,,,,,,,,,,,,,,,,,0,9,9,4,1,トマ　ルピン　シド,,,,,,,,,,,,,,,,,,,,,,,,,,
,,,,,,,,,R_3halPq6pgfCYq9T,2022-06-25_24h14.58.482,jpn_C01,2022.1.2,Win32,60.01680471,,,,,,,,,,,,,,,,,,,,,,,,,,,,,,,,,,,,,,,,,,,,,,,,,ドキ　ホレト,right,10.7461,0,0,0,0,1,,,,,,,,,,,,,,,,,,,,,,,,,,,,,,,,
,,,,,,,,,R_3halPq6pgfCYq9T,2022-06-25_24h14.58.482,jpn_C01,2022.1.2,Win32,60.01680471,,,,,,,,,,,,,CartoonStims/boxer_kick_cowboy_r.jpg,audio/serudokimuku.mp3,,,,,,,,,,,,,,,,,,,,,,,,,,,,,,,,,,,,,,,,,,,0,10,10,2,1,セル　ドキ　ムク,,,,,,,,,,,,,,,,,,,,,,,,,,
,,,,,,,,,R_3halPq6pgfCYq9T,2022-06-25_24h14.58.482,jpn_C01,2022.1.2,Win32,60.01680471,,,,,,,,,,,,,,,,,,,,,,,,,,,,,,,,,,,,,,,,,,,,,,,,,パツ　ホレト　シド,right,5.0566,0,0,0,0,1,,,,,,,,,,,,,,,,,,,,,,,,,,,,,,,,
,,,,,,,,,R_3halPq6pgfCYq9T,2022-06-25_24h14.58.482,jpn_C01,2022.1.2,Win32,60.01680471,,,,,,,,,,,,,CartoonStims/chef_shoot_cowboy_r.jpg,audio/patsuhoretomuku.mp3,,,,,,,,,,,,,,,,,,,,,,,,,,,,,,,,,,,,,,,,,,,0,11,11,7,1,パツ　ホレト　ムク,,,,,,,,,,,,,,,,,,,,,,,,,,
,,,,,,,,,R_3halPq6pgfCYq9T,2022-06-25_24h14.58.482,jpn_C01,2022.1.2,Win32,60.01680471,,,,,,,,,,,,,,,,,,,,,,,,,,,,,,,,,,,,,,,,,,,,,,,,,,,,,,,,,,,,,,,,space,0.5548,0,1,1,1,1,AffExposure.xlsx,"第二のトライアルの学習では、この言語で書かれた文を見ていただきます。引き続き注意して、 聞こえた音を復唱してください。


スペースキーを押してください。",1,AffFCT.xlsx,ここからクイズが始まります。 スクリーンに表示されるテキストに合う画像を選んでください。,AffTest.xlsx,1,次にここまで学んだことをアウトプットしていただきます。 表示される画像を描写していると思う単語を、テキストボックスにタイプしてください。 答えを提出したあとに正しい正解が少しの間画面に写ります。,1,"これで第二のトライアルが終了しました。 ここで休憩をとっていただいても構いません。

休憩が終わりましたら、 スペースキーを押して続きの学習を行いましょう。",,,,,,,,
,,,,,,,,,R_3halPq6pgfCYq9T,2022-06-25_24h14.58.482,jpn_C01,2022.1.2,Win32,60.01680471,space,2.3521,space,6.1965,0,0,0,46,1,ピク　プミ　ドキ　ムク,,,CartoonStims/boxer_punch_cowboy_r_no.jpg,audio/pikupumidokimuku.mp3,,,,,,,,,,,,,,,,,,,,,,,,,,,,,,,,,,,,,,,,,,,,,,,,,,,,,,,,,,,,,,,,,,,,,,,,,,
,,,,,,,,,R_3halPq6pgfCYq9T,2022-06-25_24h14.58.482,jpn_C01,2022.1.2,Win32,60.01680471,,,space,3.0639,0,1,1,3,1,セル　ピク　ルピン　ムク,,,CartoonStims/burglar_kick_cowboy_r_no.jpg,audio/serupikulupinmuku.mp3,,,,,,,,,,,,,,,,,,,,,,,,,,,,,,,,,,,,,,,,,,,,,,,,,,,,,,,,,,,,,,,,,,,,,,,,,,
,,,,,,,,,R_3halPq6pgfCYq9T,2022-06-25_24h14.58.482,jpn_C01,2022.1.2,Win32,60.01680471,,,space,2.6643,0,2,2,17,1,ピク　トマ　ホレト　ドキ,,,CartoonStims/chef_point_boxer_r_no.jpg,audio/pikutomahoretodoki.mp3,,,,,,,,,,,,,,,,,,,,,,,,,,,,,,,,,,,,,,,,,,,,,,,,,,,,,,,,,,,,,,,,,,,,,,,,,,
,,,,,,,,,R_3halPq6pgfCYq9T,2022-06-25_24h14.58.482,jpn_C01,2022.1.2,Win32,60.01680471,,,space,3.5531,0,3,3,42,1,ピク　プミ　ムク　ルピン,,,CartoonStims/cowboy_punch_burglar_r_no.jpg,audio/pikupumimukulupin.mp3,,,,,,,,,,,,,,,,,,,,,,,,,,,,,,,,,,,,,,,,,,,,,,,,,,,,,,,,,,,,,,,,,,,,,,,,,,
,,,,,,,,,R_3halPq6pgfCYq9T,2022-06-25_24h14.58.482,jpn_C01,2022.1.2,Win32,60.01680471,,,space,4.1739,0,4,4,47,1,プミ　ピク　ドキ　ピポ,,,CartoonStims/boxer_punch_doctor_r_no.jpg,audio/pumipikudokipipo.mp3,,,,,,,,,,,,,,,,,,,,,,,,,,,,,,,,,,,,,,,,,,,,,,,,,,,,,,,,,,,,,,,,,,,,,,,,,,
,,,,,,,,,R_3halPq6pgfCYq9T,2022-06-25_24h14.58.482,jpn_C01,2022.1.2,Win32,60.01680471,,,space,2.0726,0,5,5,10,1,ピク　セル　ドキ　シド,,,CartoonStims/boxer_kick_artist_r_no.jpg,audio/pikuserudokisido.mp3,,,,,,,,,,,,,,,,,,,,,,,,,,,,,,,,,,,,,,,,,,,,,,,,,,,,,,,,,,,,,,,,,,,,,,,,,,
,,,,,,,,,R_3halPq6pgfCYq9T,2022-06-25_24h14.58.482,jpn_C01,2022.1.2,Win32,60.01680471,,,space,2.5456,0,6,6,33,1,ピク　パツ　ピポ　ホレト,,,CartoonStims/doctor_shoot_chef_r_no.jpg,audio/pikupatsupipohoreto.mp3,,,,,,,,,,,,,,,,,,,,,,,,,,,,,,,,,,,,,,,,,,,,,,,,,,,,,,,,,,,,,,,,,,,,,,,,,,
,,,,,,,,,R_3halPq6pgfCYq9T,2022-06-25_24h14.58.482,jpn_C01,2022.1.2,Win32,60.01680471,,,space,4.175,0,7,7,5,1,セル　ピク　ホレト　ピポ,,,CartoonStims/chef_kick_doctor_r_no.jpg,audio/serupikuhoretopipo.mp3,,,,,,,,,,,,,,,,,,,,,,,,,,,,,,,,,,,,,,,,,,,,,,,,,,,,,,,,,,,,,,,,,,,,,,,,,,
,,,,,,,,,R_3halPq6pgfCYq9T,2022-06-25_24h14.58.482,jpn_C01,2022.1.2,Win32,60.01680471,,,space,3.7867,0,8,8,15,1,ピク　トマ　ルピン　ピポ,,,CartoonStims/burglar_point_doctor_r_no.jpg,audio/pikutomalupinpipo.mp3,,,,,,,,,,,,,,,,,,,,,,,,,,,,,,,,,,,,,,,,,,,,,,,,,,,,,,,,,,,,,,,,,,,,,,,,,,
,,,,,,,,,R_3halPq6pgfCYq9T,2022-06-25_24h14.58.482,jpn_C01,2022.1.2,Win32,60.01680471,,,space,2.438,0,9,9,9,1,セル　ピク　ピポ　シド,,,CartoonStims/doctor_kick_artist_r_no.jpg,audio/serupikupiposido.mp3,,,,,,,,,,,,,,,,,,,,,,,,,,,,,,,,,,,,,,,,,,,,,,,,,,,,,,,,,,,,,,,,,,,,,,,,,,
,,,,,,,,,R_3halPq6pgfCYq9T,2022-06-25_24h14.58.482,jpn_C01,2022.1.2,Win32,60.01680471,,,space,5.5518,0,10,10,39,1,プミ　ピク　ルピン　シド,,,CartoonStims/burglar_punch_artist_r_no.jpg,audio/pumipikulupinsido.mp3,,,,,,,,,,,,,,,,,,,,,,,,,,,,,,,,,,,,,,,,,,,,,,,,,,,,,,,,,,,,,,,,,,,,,,,,,,
,,,,,,,,,R_3halPq6pgfCYq9T,2022-06-25_24h14.58.482,jpn_C01,2022.1.2,Win32,60.01680471,,,space,2.8035,0,11,11,28,1,パツ　ピク　ホレト　ドキ,,,CartoonStims/chef_shoot_boxer_r_no.jpg,audio/patsupikuhoretodoki.mp3,,,,,,,,,,,,,,,,,,,,,,,,,,,,,,,,,,,,,,,,,,,,,,,,,,,,,,,,,,,,,,,,,,,,,,,,,,
,,,,,,,,,R_3halPq6pgfCYq9T,2022-06-25_24h14.58.482,jpn_C01,2022.1.2,Win32,60.01680471,,,space,4.5668,0,12,12,20,1,トマ　ピク　ピポ　シド,,,CartoonStims/doctor_point_artist_r_no.jpg,audio/tomapikupiposido.mp3,,,,,,,,,,,,,,,,,,,,,,,,,,,,,,,,,,,,,,,,,,,,,,,,,,,,,,,,,,,,,,,,,,,,,,,,,,
,,,,,,,,,R_3halPq6pgfCYq9T,2022-06-25_24h14.58.482,jpn_C01,2022.1.2,Win32,60.01680471,,,space,2.6511,0,13,13,25,1,ピク　パツ　シド　ピポ,,,CartoonStims/artist_shoot_doctor_r_no.jpg,audio/pikupatsusidopipo.mp3,,,,,,,,,,,,,,,,,,,,,,,,,,,,,,,,,,,,,,,,,,,,,,,,,,,,,,,,,,,,,,,,,,,,,,,,,,
,,,,,,,,,R_3halPq6pgfCYq9T,2022-06-25_24h14.58.482,jpn_C01,2022.1.2,Win32,60.01680471,,,space,1.9713,0,14,14,29,1,ピク　パツ　ホレト　シド,,,CartoonStims/chef_shoot_artist_r_no.jpg,audio/pikupatsuhoretosido.mp3,,,,,,,,,,,,,,,,,,,,,,,,,,,,,,,,,,,,,,,,,,,,,,,,,,,,,,,,,,,,,,,,,,,,,,,,,,
,,,,,,,,,R_3halPq6pgfCYq9T,2022-06-25_24h14.58.482,jpn_C01,2022.1.2,Win32,60.01680471,,,space,1.3838,0,15,15,34,1,パツ　ピク　ドキ　ホレト,,,CartoonStims/boxer_shoot_chef_r_no.jpg,audio/patsupikudokihoreto.mp3,,,,,,,,,,,,,,,,,,,,,,,,,,,,,,,,,,,,,,,,,,,,,,,,,,,,,,,,,,,,,,,,,,,,,,,,,,
,,,,,,,,,R_3halPq6pgfCYq9T,2022-06-25_24h14.58.482,jpn_C01,2022.1.2,Win32,60.01680471,,,space,2.2582,0,16,16,26,1,パツ　ピク　ルピン　ピポ,,,CartoonStims/burglar_shoot_doctor_r_no.jpg,audio/patsupikulupinpipo.mp3,,,,,,,,,,,,,,,,,,,,,,,,,,,,,,,,,,,,,,,,,,,,,,,,,,,,,,,,,,,,,,,,,,,,,,,,,,
,,,,,,,,,R_3halPq6pgfCYq9T,2022-06-25_24h14.58.482,jpn_C01,2022.1.2,Win32,60.01680471,,,space,2.1313,0,17,17,16,1,トマ　ピク　ホレト　ピポ,,,CartoonStims/chef_point_doctor_r_no.jpg,audio/tomapikuhoretopipo.mp3,,,,,,,,,,,,,,,,,,,,,,,,,,,,,,,,,,,,,,,,,,,,,,,,,,,,,,,,,,,,,,,,,,,,,,,,,,
,,,,,,,,,R_3halPq6pgfCYq9T,2022-06-25_24h14.58.482,jpn_C01,2022.1.2,Win32,60.01680471,,,space,1.353,0,18,18,0,1,ピク　セル　シド　ルピン,,,CartoonStims/artist_kick_burglar_r_no.jpg,audio/pikuserusidolupin.mp3,,,,,,,,,,,,,,,,,,,,,,,,,,,,,,,,,,,,,,,,,,,,,,,,,,,,,,,,,,,,,,,,,,,,,,,,,,
,,,,,,,,,R_3halPq6pgfCYq9T,2022-06-25_24h14.58.482,jpn_C01,2022.1.2,Win32,60.01680471,,,space,1.998,0,19,19,14,1,トマ　ピク　ルピン　ムク,,,CartoonStims/burglar_point_cowboy_r_no.jpg,audio/tomapikulupinmuku.mp3,,,,,,,,,,,,,,,,,,,,,,,,,,,,,,,,,,,,,,,,,,,,,,,,,,,,,,,,,,,,,,,,,,,,,,,,,,
,,,,,,,,,R_3halPq6pgfCYq9T,2022-06-25_24h14.58.482,jpn_C01,2022.1.2,Win32,60.01680471,,,space,2.0503,0,20,20,4,1,ピク　セル　ホレト　ムク,,,CartoonStims/chef_kick_cowboy_r_no.jpg,audio/pikuseruhoretomuku.mp3,,,,,,,,,,,,,,,,,,,,,,,,,,,,,,,,,,,,,,,,,,,,,,,,,,,,,,,,,,,,,,,,,,,,,,,,,,
,,,,,,,,,R_3halPq6pgfCYq9T,2022-06-25_24h14.58.482,jpn_C01,2022.1.2,Win32,60.01680471,,,space,2.3619,0,21,21,12,1,トマ　ピク　シド　ホレト,,,CartoonStims/artist_point_chef_r_no.jpg,audio/tomapikusidohoreto.mp3,,,,,,,,,,,,,,,,,,,,,,,,,,,,,,,,,,,,,,,,,,,,,,,,,,,,,,,,,,,,,,,,,,,,,,,,,,
,,,,,,,,,R_3halPq6pgfCYq9T,2022-06-25_24h14.58.482,jpn_C01,2022.1.2,Win32,60.01680471,,,space,1.9832,0,22,22,19,1,ピク　トマ　ムク　シド,,,CartoonStims/cowboy_point_artist_r_no.jpg,audio/pikutomamukusido.mp3,,,,,,,,,,,,,,,,,,,,,,,,,,,,,,,,,,,,,,,,,,,,,,,,,,,,,,,,,,,,,,,,,,,,,,,,,,
,,,,,,,,,R_3halPq6pgfCYq9T,2022-06-25_24h14.58.482,jpn_C01,2022.1.2,Win32,60.01680471,,,space,2.0021,0,23,23,36,1,ピク　プミ　シド　ピポ,,,CartoonStims/artist_punch_doctor_r_no.jpg,audio/pikupumisidopipo.mp3,,,,,,,,,,,,,,,,,,,,,,,,,,,,,,,,,,,,,,,,,,,,,,,,,,,,,,,,,,,,,,,,,,,,,,,,,,
,,,,,,,,,R_3halPq6pgfCYq9T,2022-06-25_24h14.58.482,jpn_C01,2022.1.2,Win32,60.01680471,,,space,4.1565,0,24,24,32,1,パツ　ピク　ピポ　ルピン,,,CartoonStims/doctor_shoot_burglar_r_no.jpg,audio/patsupikupipolupin.mp3,,,,,,,,,,,,,,,,,,,,,,,,,,,,,,,,,,,,,,,,,,,,,,,,,,,,,,,,,,,,,,,,,,,,,,,,,,
,,,,,,,,,R_3halPq6pgfCYq9T,2022-06-25_24h14.58.482,jpn_C01,2022.1.2,Win32,60.01680471,,,space,2.4732,0,25,25,18,1,トマ　ピク　ムク　ドキ,,,CartoonStims/cowboy_point_boxer_r_no.jpg,audio/tomapikumukudoki.mp3,,,,,,,,,,,,,,,,,,,,,,,,,,,,,,,,,,,,,,,,,,,,,,,,,,,,,,,,,,,,,,,,,,,,,,,,,,
,,,,,,,,,R_3halPq6pgfCYq9T,2022-06-25_24h14.58.482,jpn_C01,2022.1.2,Win32,60.01680471,,,space,1.7929,0,26,26,30,1,パツ　ピク　ムク　シド,,,CartoonStims/cowboy_shoot_artist_r_no.jpg,audio/patsupikumukusido.mp3,,,,,,,,,,,,,,,,,,,,,,,,,,,,,,,,,,,,,,,,,,,,,,,,,,,,,,,,,,,,,,,,,,,,,,,,,,
,,,,,,,,,R_3halPq6pgfCYq9T,2022-06-25_24h14.58.482,jpn_C01,2022.1.2,Win32,60.01680471,,,space,1.9086,0,27,27,37,1,プミ　ピク　シド　ドキ,,,CartoonStims/artist_punch_boxer_r_no.jpg,audio/pumipikusidodoki.mp3,,,,,,,,,,,,,,,,,,,,,,,,,,,,,,,,,,,,,,,,,,,,,,,,,,,,,,,,,,,,,,,,,,,,,,,,,,
,,,,,,,,,R_3halPq6pgfCYq9T,2022-06-25_24h14.58.482,jpn_C01,2022.1.2,Win32,60.01680471,,,space,2.0272,0,28,28,22,1,トマ　ピク　ドキ　ルピン,,,CartoonStims/boxer_point_burglar_r_no.jpg,audio/tomapikudokilupin.mp3,,,,,,,,,,,,,,,,,,,,,,,,,,,,,,,,,,,,,,,,,,,,,,,,,,,,,,,,,,,,,,,,,,,,,,,,,,
,,,,,,,,,R_3halPq6pgfCYq9T,2022-06-25_24h14.58.482,jpn_C01,2022.1.2,Win32,60.01680471,,,space,2.0212,0,29,29,24,1,パツ　ピク　シド　ムク,,,CartoonStims/artist_shoot_cowboy_r_no.jpg,audio/patsupikusidomuku.mp3,,,,,,,,,,,,,,,,,,,,,,,,,,,,,,,,,,,,,,,,,,,,,,,,,,,,,,,,,,,,,,,,,,,,,,,,,,
,,,,,,,,,R_3halPq6pgfCYq9T,2022-06-25_24h14.58.482,jpn_C01,2022.1.2,Win32,60.01680471,,,space,2.5837,0,30,30,21,1,ピク　トマ　ピポ　ルピン,,,CartoonStims/doctor_point_burglar_r_no.jpg,audio/pikutomapipolupin.mp3,,,,,,,,,,,,,,,,,,,,,,,,,,,,,,,,,,,,,,,,,,,,,,,,,,,,,,,,,,,,,,,,,,,,,,,,,,
,,,,,,,,,R_3halPq6pgfCYq9T,2022-06-25_24h14.58.482,jpn_C01,2022.1.2,Win32,60.01680471,,,space,2.6743,0,31,31,2,1,ピク　セル　ルピン　ホレト,,,CartoonStims/burglar_kick_chef_r_no.jpg,audio/pikuserulupinhoreto.mp3,,,,,,,,,,,,,,,,,,,,,,,,,,,,,,,,,,,,,,,,,,,,,,,,,,,,,,,,,,,,,,,,,,,,,,,,,,
,,,,,,,,,R_3halPq6pgfCYq9T,2022-06-25_24h14.58.482,jpn_C01,2022.1.2,Win32,60.01680471,,,space,2.0982,0,32,32,40,1,ピク　プミ　ホレト　シド,,,CartoonStims/chef_punch_artist_r_no.jpg,audio/pikupumihoretosido.mp3,,,,,,,,,,,,,,,,,,,,,,,,,,,,,,,,,,,,,,,,,,,,,,,,,,,,,,,,,,,,,,,,,,,,,,,,,,
,,,,,,,,,R_3halPq6pgfCYq9T,2022-06-25_24h14.58.482,jpn_C01,2022.1.2,Win32,60.01680471,,,space,2.0019,0,33,33,23,1,ピク　トマ　ドキ　ホレト,,,CartoonStims/boxer_point_chef_r_no.jpg,audio/pikutomadokihoreto.mp3,,,,,,,,,,,,,,,,,,,,,,,,,,,,,,,,,,,,,,,,,,,,,,,,,,,,,,,,,,,,,,,,,,,,,,,,,,
,,,,,,,,,R_3halPq6pgfCYq9T,2022-06-25_24h14.58.482,jpn_C01,2022.1.2,Win32,60.01680471,,,space,2.5168,0,34,34,45,1,プミ　ピク　ピポ　ムク,,,CartoonStims/doctor_punch_cowboy_r_no.jpg,audio/pumipikupipomuku.mp3,,,,,,,,,,,,,,,,,,,,,,,,,,,,,,,,,,,,,,,,,,,,,,,,,,,,,,,,,,,,,,,,,,,,,,,,,,
,,,,,,,,,R_3halPq6pgfCYq9T,2022-06-25_24h14.58.482,jpn_C01,2022.1.2,Win32,60.01680471,,,space,2.7381,0,35,35,8,1,ピク　セル　ピポ　ドキ,,,CartoonStims/doctor_kick_boxer_r_no.jpg,audio/pikuserupipodoki.mp3,,,,,,,,,,,,,,,,,,,,,,,,,,,,,,,,,,,,,,,,,,,,,,,,,,,,,,,,,,,,,,,,,,,,,,,,,,
,,,,,,,,,R_3halPq6pgfCYq9T,2022-06-25_24h14.58.482,jpn_C01,2022.1.2,Win32,60.01680471,,,space,1.8069,0,36,36,11,1,セル　ピク　ドキ　ルピン,,,CartoonStims/boxer_kick_burglar_r_no.jpg,audio/serupikudokilupin.mp3,,,,,,,,,,,,,,,,,,,,,,,,,,,,,,,,,,,,,,,,,,,,,,,,,,,,,,,,,,,,,,,,,,,,,,,,,,
,,,,,,,,,R_3halPq6pgfCYq9T,2022-06-25_24h14.58.482,jpn_C01,2022.1.2,Win32,60.01680471,,,space,2.0745,0,37,37,6,1,ピク　セル　ムク　ピポ,,,CartoonStims/cowboy_kick_doctor_r_no.jpg,audio/pikuserumukupipo.mp3,,,,,,,,,,,,,,,,,,,,,,,,,,,,,,,,,,,,,,,,,,,,,,,,,,,,,,,,,,,,,,,,,,,,,,,,,,
,,,,,,,,,R_3halPq6pgfCYq9T,2022-06-25_24h14.58.482,jpn_C01,2022.1.2,Win32,60.01680471,,,space,3.1224,0,38,38,43,1,プミ　ピク　ムク　ホレト,,,CartoonStims/cowboy_punch_chef_r_no.jpg,audio/pumipikumukuhoreto.mp3,,,,,,,,,,,,,,,,,,,,,,,,,,,,,,,,,,,,,,,,,,,,,,,,,,,,,,,,,,,,,,,,,,,,,,,,,,
,,,,,,,,,R_3halPq6pgfCYq9T,2022-06-25_24h14.58.482,jpn_C01,2022.1.2,Win32,60.01680471,,,space,2.4172,0,39,39,35,1,ピク　パツ　ドキ　ムク,,,CartoonStims/boxer_shoot_cowboy_r_no.jpg,audio/pikupatsudokimuku.mp3,,,,,,,,,,,,,,,,,,,,,,,,,,,,,,,,,,,,,,,,,,,,,,,,,,,,,,,,,,,,,,,,,,,,,,,,,,
,,,,,,,,,R_3halPq6pgfCYq9T,2022-06-25_24h14.58.482,jpn_C01,2022.1.2,Win32,60.01680471,,,space,3.0982,0,40,40,7,1,セル　ピク　ムク　ドキ,,,CartoonStims/cowboy_kick_boxer_r_no.jpg,audio/serupikumukudoki.mp3,,,,,,,,,,,,,,,,,,,,,,,,,,,,,,,,,,,,,,,,,,,,,,,,,,,,,,,,,,,,,,,,,,,,,,,,,,
,,,,,,,,,R_3halPq6pgfCYq9T,2022-06-25_24h14.58.482,jpn_C01,2022.1.2,Win32,60.01680471,,,space,2.97,0,41,41,1,1,セル　ピク　シド　ホレト,,,CartoonStims/artist_kick_chef_r_no.jpg,audio/serupikusidohoreto.mp3,,,,,,,,,,,,,,,,,,,,,,,,,,,,,,,,,,,,,,,,,,,,,,,,,,,,,,,,,,,,,,,,,,,,,,,,,,
,,,,,,,,,R_3halPq6pgfCYq9T,2022-06-25_24h14.58.482,jpn_C01,2022.1.2,Win32,60.01680471,,,space,2.9977,0,42,42,41,1,プミ　ピク　ホレト　ルピン,,,CartoonStims/chef_punch_burglar_r_no.jpg,audio/pumipikuhoretolupin.mp3,,,,,,,,,,,,,,,,,,,,,,,,,,,,,,,,,,,,,,,,,,,,,,,,,,,,,,,,,,,,,,,,,,,,,,,,,,
,,,,,,,,,R_3halPq6pgfCYq9T,2022-06-25_24h14.58.482,jpn_C01,2022.1.2,Win32,60.01680471,,,space,1.9522,0,43,43,27,1,ピク　パツ　ルピン　ドキ,,,CartoonStims/burglar_shoot_boxer_r_no.jpg,audio/pikupatsulupindoki.mp3,,,,,,,,,,,,,,,,,,,,,,,,,,,,,,,,,,,,,,,,,,,,,,,,,,,,,,,,,,,,,,,,,,,,,,,,,,
,,,,,,,,,R_3halPq6pgfCYq9T,2022-06-25_24h14.58.482,jpn_C01,2022.1.2,Win32,60.01680471,,,space,2.6776,0,44,44,44,1,ピク　プミ　ピポ　ホレト,,,CartoonStims/doctor_punch_chef_r_no.jpg,audio/pikupumipipohoreto.mp3,,,,,,,,,,,,,,,,,,,,,,,,,,,,,,,,,,,,,,,,,,,,,,,,,,,,,,,,,,,,,,,,,,,,,,,,,,
,,,,,,,,,R_3halPq6pgfCYq9T,2022-06-25_24h14.58.482,jpn_C01,2022.1.2,Win32,60.01680471,,,space,3.3899,0,45,45,38,1,ピク　プミ　ルピン　ドキ,,,CartoonStims/burglar_punch_boxer_r_no.jpg,audio/pikupumilupindoki.mp3,,,,,,,,,,,,,,,,,,,,,,,,,,,,,,,,,,,,,,,,,,,,,,,,,,,,,,,,,,,,,,,,,,,,,,,,,,
,,,,,,,,,R_3halPq6pgfCYq9T,2022-06-25_24h14.58.482,jpn_C01,2022.1.2,Win32,60.01680471,,,space,1.6567,0,46,46,13,1,ピク　トマ　シド　ムク,,,CartoonStims/artist_point_cowboy_r_no.jpg,audio/pikutomasidomuku.mp3,,,,,,,,,,,,,,,,,,,,,,,,,,,,,,,,,,,,,,,,,,,,,,,,,,,,,,,,,,,,,,,,,,,,,,,,,,
,,,,,,,,,R_3halPq6pgfCYq9T,2022-06-25_24h14.58.482,jpn_C01,2022.1.2,Win32,60.01680471,,,space,2.8254,0,47,47,31,1,ピク　パツ　ムク　ルピン,,,CartoonStims/cowboy_shoot_burglar_r_no.jpg,audio/pikupatsumukulupin.mp3,,,,,,,,,,,,,,,,,,,,,,,,,,,,,,,,,,,,,,,,,,,,,,,,,,,,,,,,,,,,,,,,,,,,,,,,,,
,,,,,,,,,R_3halPq6pgfCYq9T,2022-06-25_24h14.58.482,jpn_C01,2022.1.2,Win32,60.01680471,,,,,,,,,,,,,,,space,0.015,right,0,4.93,,,,,,,,,,,,,,,,,,,,,,,0,0,0,0,1,,,,,,,,,,,,,,,,,,,,,,,,,,,,,,,,,,,,,,,,,,
,,,,,,,,,R_3halPq6pgfCYq9T,2022-06-25_24h14.58.482,jpn_C01,2022.1.2,Win32,60.01680471,,,,,,,,,,,,,,,,,,,,,,,,,0,0,0,2,1,CartoonStims/doctor_point_boxer_r.jpg,ピク　プミ　ピポ　ドキ,CartoonStims/doctor_punch_boxer_r.jpg,left,CartoonStims/doctor_point_boxer_r.jpg,audio/pikupumipipodoki.mp3,"残念！ こちらが正しい画像です。

否定文は起きていないことを示しているのを思い出してください。",,,,,,,,,,,,,,,,,,,,,,,,,,,,,,,,,,,,,,,,,,,,,,,,,,,,
,,,,,,,,,R_3halPq6pgfCYq9T,2022-06-25_24h14.58.482,jpn_C01,2022.1.2,Win32,60.01680471,,,,,,,,,,,,,,,,,right,1,8.4324,,,,,,,,,,,,,,,,,,0,0,0,0,1,,,,,,,,,,,,,,,,,,,,,,,,,,,,,,,,,,,,,,,,,,,,,,,
,,,,,,,,,R_3halPq6pgfCYq9T,2022-06-25_24h14.58.482,jpn_C01,2022.1.2,Win32,60.01680471,,,,,,,,,,,,,,,,,,,,,,,,,0,1,1,5,1,CartoonStims/boxer_kick_cowboy_r.jpg,ピク　セル　ドキ　ムク,CartoonStims/boxer_punch_cowboy_r.jpg,right,CartoonStims/boxer_punch_cowboy_r.jpg,audio/pikuserudokimuku.mp3,"残念！ こちらが正しい画像です。

否定文は起きていないことを示しているのを思い出してください。",,,,,,,,,,,,,,,,,,,,,,,,,,,,,,,,,,,,,,,,,,,,,,,,,,,,
,,,,,,,,,R_3halPq6pgfCYq9T,2022-06-25_24h14.58.482,jpn_C01,2022.1.2,Win32,60.01680471,,,,,,,,,,,,,,,,,right,1,1.3771,,,,,,,,,,,,,,,,,,0,0,0,0,1,,,,,,,,,,,,,,,,,,,,,,,,,,,,,,,,,,,,,,,,,,,,,,,
,,,,,,,,,R_3halPq6pgfCYq9T,2022-06-25_24h14.58.482,jpn_C01,2022.1.2,Win32,60.01680471,,,,,,,,,,,,,,,,,,,,,,,,,0,2,2,3,1,CartoonStims/chef_kick_artist_r.jpg,ピク　セル　ホレト　シド,CartoonStims/chef_point_artist_r.jpg,right,CartoonStims/chef_point_artist_r.jpg,audio/pikuseruhoretosido.mp3,"残念！ こちらが正しい画像です。

否定文は起きていないことを示しているのを思い出してください。",,,,,,,,,,,,,,,,,,,,,,,,,,,,,,,,,,,,,,,,,,,,,,,,,,,,
,,,,,,,,,R_3halPq6pgfCYq9T,2022-06-25_24h14.58.482,jpn_C01,2022.1.2,Win32,60.01680471,,,,,,,,,,,,,,,,,left,1,1.0858,0,0,0,0,1,,,,,,,,,,,,,,,,,,,,,,,,,,,,,,,,,,,,,,,,,,,,,,,,,,,,,,,,,,,,,,,,
,,,,,,,,,R_3halPq6pgfCYq9T,2022-06-25_24h14.58.482,jpn_C01,2022.1.2,Win32,60.01680471,,,,,,,,,,,,,,,,,,,,,,,,,0,3,3,10,1,CartoonStims/doctor_punch_cowboy_r.jpg,ピク　パツ　ピポ　ムク,CartoonStims/doctor_shoot_cowboy_r.jpg,left,CartoonStims/doctor_punch_cowboy_r.jpg,audio/pikupatsupipomuku.mp3,"残念！ こちらが正しい画像です。

否定文は起きていないことを示しているのを思い出してください。",,,,,,,,,,,,,,,,,,,,,,,,,,,,,,,,,,,,,,,,,,,,,,,,,,,,
,,,,,,,,,R_3halPq6pgfCYq9T,2022-06-25_24h14.58.482,jpn_C01,2022.1.2,Win32,60.01680471,,,,,,,,,,,,,,,,,right,1,6.1097,,,,,,,,,,,,,,,,,,0,0,0,0,1,,,,,,,,,,,,,,,,,,,,,,,,,,,,,,,,,,,,,,,,,,,,,,,
,,,,,,,,,R_3halPq6pgfCYq9T,2022-06-25_24h14.58.482,jpn_C01,2022.1.2,Win32,60.01680471,,,,,,,,,,,,,,,,,,,,,,,,,0,4,4,7,1,CartoonStims/cowboy_point_chef_r.jpg,ピク　トマ　ムク　ホレト,CartoonStims/cowboy_kick_chef_r.jpg,right,CartoonStims/cowboy_kick_chef_r.jpg,audio/pikutomamukuhoreto.mp3,"残念！ こちらが正しい画像です。

否定文は起きていないことを示しているのを思い出してください。",,,,,,,,,,,,,,,,,,,,,,,,,,,,,,,,,,,,,,,,,,,,,,,,,,,,
,,,,,,,,,R_3halPq6pgfCYq9T,2022-06-25_24h14.58.482,jpn_C01,2022.1.2,Win32,60.01680471,,,,,,,,,,,,,,,,,left,0,3.756,,,,,,,,,,,,,,,,,,,,,,,,,,,,,,,,,,,,,,,,,,,,,,,,,,,,,,,,,,,,,,0,0,0,0,1,,,
,,,,,,,,,R_3halPq6pgfCYq9T,2022-06-25_24h14.58.482,jpn_C01,2022.1.2,Win32,60.01680471,,,,,,,,,,,,,,,,,,,,,,,,,0,5,5,11,1,CartoonStims/chef_shoot_burglar_r.jpg,パツ　ピク　ホレト　ルピン,CartoonStims/chef_kick_burglar_r.jpg,right,CartoonStims/chef_kick_burglar_r.jpg,audio/patsupikuhoretolupin.mp3,"残念！ こちらが正しい画像です。

否定文は起きていないことを示しているのを思い出してください。",,,,,,,,,,,,,,,,,,,,,,,,,,,,,,,,,,,,,,,,,,,,,,,,,,,,
,,,,,,,,,R_3halPq6pgfCYq9T,2022-06-25_24h14.58.482,jpn_C01,2022.1.2,Win32,60.01680471,,,,,,,,,,,,,,,,,left,1,8.4084,0,0,0,0,1,,,,,,,,,,,,,,,,,,,,,,,,,,,,,,,,,,,,,,,,,,,,,,,,,,,,,,,,,,,,,,,,
,,,,,,,,,R_3halPq6pgfCYq9T,2022-06-25_24h14.58.482,jpn_C01,2022.1.2,Win32,60.01680471,,,,,,,,,,,,,,,,,,,,,,,,,0,6,6,0,1,CartoonStims/artist_shoot_burglar_r.jpg,ピク　プミ　シド　ルピン,CartoonStims/artist_punch_burglar_r.jpg,left,CartoonStims/artist_shoot_burglar_r.jpg,audio/pikupumisidolupin.mp3,"残念！ こちらが正しい画像です。

否定文は起きていないことを示しているのを思い出してください。",,,,,,,,,,,,,,,,,,,,,,,,,,,,,,,,,,,,,,,,,,,,,,,,,,,,
,,,,,,,,,R_3halPq6pgfCYq9T,2022-06-25_24h14.58.482,jpn_C01,2022.1.2,Win32,60.01680471,,,,,,,,,,,,,,,,,left,1,4.8833,0,0,0,0,1,,,,,,,,,,,,,,,,,,,,,,,,,,,,,,,,,,,,,,,,,,,,,,,,,,,,,,,,,,,,,,,,
,,,,,,,,,R_3halPq6pgfCYq9T,2022-06-25_24h14.58.482,jpn_C01,2022.1.2,Win32,60.01680471,,,,,,,,,,,,,,,,,,,,,,,,,0,7,7,8,1,CartoonStims/burglar_punch_artist_r.jpg,トマ　ピク　ルピン　シド,CartoonStims/burglar_point_artist_r.jpg,left,CartoonStims/burglar_punch_artist_r.jpg,audio/tomapikulupinsido.mp3,"残念！ こちらが正しい画像です。

否定文は起きていないことを示しているのを思い出してください。",,,,,,,,,,,,,,,,,,,,,,,,,,,,,,,,,,,,,,,,,,,,,,,,,,,,
,,,,,,,,,R_3halPq6pgfCYq9T,2022-06-25_24h14.58.482,jpn_C01,2022.1.2,Win32,60.01680471,,,,,,,,,,,,,,,,,right,1,3.2424,,,,,,,,,,,,,,,,,,0,0,0,0,1,,,,,,,,,,,,,,,,,,,,,,,,,,,,,,,,,,,,,,,,,,,,,,,
,,,,,,,,,R_3halPq6pgfCYq9T,2022-06-25_24h14.58.482,jpn_C01,2022.1.2,Win32,60.01680471,,,,,,,,,,,,,,,,,,,,,,,,,0,8,8,9,1,CartoonStims/boxer_shoot_doctor_r.jpg,パツ　ピク　ドキ　ピポ,CartoonStims/boxer_point_doctor_r.jpg,right,CartoonStims/boxer_point_doctor_r.jpg,audio/patsupikudokipipo.mp3,"残念！ こちらが正しい画像です。

否定文は起きていないことを示しているのを思い出してください。",,,,,,,,,,,,,,,,,,,,,,,,,,,,,,,,,,,,,,,,,,,,,,,,,,,,
,,,,,,,,,R_3halPq6pgfCYq9T,2022-06-25_24h14.58.482,jpn_C01,2022.1.2,Win32,60.01680471,,,,,,,,,,,,,,,,,right,1,4.0277,,,,,,,,,,,,,,,,,,0,0,0,0,1,,,,,,,,,,,,,,,,,,,,,,,,,,,,,,,,,,,,,,,,,,,,,,,
,,,,,,,,,R_3halPq6pgfCYq9T,2022-06-25_24h14.58.482,jpn_C01,2022.1.2,Win32,60.01680471,,,,,,,,,,,,,,,,,,,,,,,,,0,9,9,1,1,CartoonStims/chef_punch_cowboy_r.jpg,プミ　ピク　ホレト　ムク,CartoonStims/chef_kick_cowboy_r.jpg,right,CartoonStims/chef_kick_cowboy_r.jpg,audio/pumipikuhoretomuku.mp3,"残念！ こちらが正しい画像です。

否定文は起きていないことを示しているのを思い出してください。",,,,,,,,,,,,,,,,,,,,,,,,,,,,,,,,,,,,,,,,,,,,,,,,,,,,
,,,,,,,,,R_3halPq6pgfCYq9T,2022-06-25_24h14.58.482,jpn_C01,2022.1.2,Win32,60.01680471,,,,,,,,,,,,,,,,,left,1,4.4938,0,0,0,0,1,,,,,,,,,,,,,,,,,,,,,,,,,,,,,,,,,,,,,,,,,,,,,,,,,,,,,,,,,,,,,,,,
,,,,,,,,,R_3halPq6pgfCYq9T,2022-06-25_24h14.58.482,jpn_C01,2022.1.2,Win32,60.01680471,,,,,,,,,,,,,,,,,,,,,,,,,0,10,10,4,1,CartoonStims/burglar_shoot_doctor_r.jpg,セル　ピク　ルピン　ピポ,CartoonStims/burglar_kick_doctor_r.jpg,left,CartoonStims/burglar_shoot_doctor_r.jpg,audio/serupikulupinpipo.mp3,"残念！ こちらが正しい画像です。

否定文は起きていないことを示しているのを思い出してください。",,,,,,,,,,,,,,,,,,,,,,,,,,,,,,,,,,,,,,,,,,,,,,,,,,,,
,,,,,,,,,R_3halPq6pgfCYq9T,2022-06-25_24h14.58.482,jpn_C01,2022.1.2,Win32,60.01680471,,,,,,,,,,,,,,,,,left,1,3.269,0,0,0,0,1,,,,,,,,,,,,,,,,,,,,,,,,,,,,,,,,,,,,,,,,,,,,,,,,,,,,,,,,,,,,,,,,
,,,,,,,,,R_3halPq6pgfCYq9T,2022-06-25_24h14.58.482,jpn_C01,2022.1.2,Win32,60.01680471,,,,,,,,,,,,,,,,,,,,,,,,,0,11,11,6,1,CartoonStims/artist_shoot_boxer_r.jpg,トマ　ピク　シド　ドキ,CartoonStims/artist_point_boxer_r.jpg,left,CartoonStims/artist_shoot_boxer_r.jpg,audio/tomapikusidodoki.mp3,"残念！ こちらが正しい画像です。

否定文は起きていないことを示しているのを思い出してください。",,,,,,,,,,,,,,,,,,,,,,,,,,,,,,,,,,,,,,,,,,,,,,,,,,,,
,,,,,,,,,R_3halPq6pgfCYq9T,2022-06-25_24h14.58.482,jpn_C01,2022.1.2,Win32,60.01680471,,,,,,,,,,,,,CartoonStims/cowboy_kick_chef_r_no.jpg,,,,,,,,,,,,,,,,,,,,,,,,,,,,,,,,,,space,3.0724,ピポ　セル　シド　ホレト,right,15.9982,,,,,,0,0,0,3,1,,,,,,,,,,,,,,,,,,,,,,,,,ピク　セル　ムク　ホレト,セル　ピク　ムク　ホレト,1
,,,,,,,,,R_3halPq6pgfCYq9T,2022-06-25_24h14.58.482,jpn_C01,2022.1.2,Win32,60.01680471,,,,,,,,,,,,,CartoonStims/doctor_kick_cowboy_r_no.jpg,,,,,,,,,,,,,,,,,,,,,,,,,,,,,,,,,,,,ピク　セル　シド　ホレト,right,26.2246,,,,,,0,1,1,4,1,,,,,,,,,,,,,,,,,,,,,,,,,ピク　セル　ピポ　ムク,セル　ピク　ピポ　ムク,1
,,,,,,,,,R_3halPq6pgfCYq9T,2022-06-25_24h14.58.482,jpn_C01,2022.1.2,Win32,60.01680471,,,,,,,,,,,,,CartoonStims/burglar_shoot_cowboy_r_no.jpg,,,,,,,,,,,,,,,,,,,,,,,,,,,,,,,,,,,,ピク　パツ　ルピン　シド,right,11.2382,,,,,,0,2,2,13,1,,,,,,,,,,,,,,,,,,,,,,,,,ピク　パツ　ルピン　ムク,パツ　ピク　ルピン　ムク,1
,,,,,,,,,R_3halPq6pgfCYq9T,2022-06-25_24h14.58.482,jpn_C01,2022.1.2,Win32,60.01680471,,,,,,,,,,,,,CartoonStims/chef_shoot_cowboy_r.jpg,,,,,,,,,,,,,,,,,,,,,,,,,,,,,,,,,,,,ピク　ホレト　シド,right,11.2067,,,,,,0,3,3,31,1,,,,,,,,,,,,,,,,,,,,,,,,,パツ　ホレト　ムク,パツ　ホレト　ムク,0
,,,,,,,,,R_3halPq6pgfCYq9T,2022-06-25_24h14.58.482,jpn_C01,2022.1.2,Win32,60.01680471,,,,,,,,,,,,,CartoonStims/artist_point_boxer_r.jpg,,,,,,,,,,,,,,,,,,,,,,,,,,,,,,,,,,,,トマ　ムク　ドキ,right,7.8049,,,,,,0,4,4,27,1,,,,,,,,,,,,,,,,,,,,,,,,,トマ　シド　ドキ,トマ　シド　ドキ,0
,,,,,,,,,R_3halPq6pgfCYq9T,2022-06-25_24h14.58.482,jpn_C01,2022.1.2,Win32,60.01680471,,,,,,,,,,,,,CartoonStims/artist_point_burglar_r_no.jpg,,,,,,,,,,,,,,,,,,,,,,,,,,,,,,,,,,,,トマ　ピク　ホレト　ルピン,right,13.2665,,,,,,0,5,5,6,1,,,,,,,,,,,,,,,,,,,,,,,,,ピク　トマ　シド　ルピン,トマ　ピク　シド　ルピン,1
,,,,,,,,,R_3halPq6pgfCYq9T,2022-06-25_24h14.58.482,jpn_C01,2022.1.2,Win32,60.01680471,,,,,,,,,,,,,CartoonStims/boxer_punch_artist_r.jpg,,,,,,,,,,,,,,,,,,,,,,,,,,,,,,,,,,,,ポニ　ドキ　ホレト,right,28.672,,,,,,0,6,6,35,1,,,,,,,,,,,,,,,,,,,,,,,,,プミ　ドキ　シド,プミ　ドキ　シド,0
,,,,,,,,,R_3halPq6pgfCYq9T,2022-06-25_24h14.58.482,jpn_C01,2022.1.2,Win32,60.01680471,,,,,,,,,,,,,CartoonStims/cowboy_punch_artist_r_no.jpg,,,,,,,,,,,,,,,,,,,,,,,,,,,,,,,,,,,,ポニ　ピク　ホレト　シド,right,16.1549,,,,,,0,7,7,21,1,,,,,,,,,,,,,,,,,,,,,,,,,ピク　プミ　ムク　シド,プミ　ピク　ムク　シド,1
,,,,,,,,,R_3halPq6pgfCYq9T,2022-06-25_24h14.58.482,jpn_C01,2022.1.2,Win32,60.01680471,,,,,,,,,,,,,CartoonStims/cowboy_kick_burglar_r.jpg,,,,,,,,,,,,,,,,,,,,,,,,,,,,,,,,,,,,セル　シド　ルピン,right,6.8271,,,,,,0,8,8,24,1,,,,,,,,,,,,,,,,,,,,,,,,,セル　ムク　ルピン,セル　ムク　ルピン,0
,,,,,,,,,R_3halPq6pgfCYq9T,2022-06-25_24h14.58.482,jpn_C01,2022.1.2,Win32,60.01680471,,,,,,,,,,,,,CartoonStims/boxer_kick_doctor_r_no.jpg,,,,,,,,,,,,,,,,,,,,,,,,,,,,,,,,,,,,ピク　セル　ドキ　シド,right,7.9217,,,,,,0,9,9,5,1,,,,,,,,,,,,,,,,,,,,,,,,,ピク　セル　ドキ　ピポ,セル　ピク　ドキ　ピポ,1
,,,,,,,,,R_3halPq6pgfCYq9T,2022-06-25_24h14.58.482,jpn_C01,2022.1.2,Win32,60.01680471,,,,,,,,,,,,,CartoonStims/artist_punch_cowboy_r_no.jpg,,,,,,,,,,,,,,,,,,,,,,,,,,,,,,,,,,,,ピク　ポニ　シド　ホレト,right,27.033,,,,,,0,10,10,18,1,,,,,,,,,,,,,,,,,,,,,,,,,ピク　プミ　シド　ムク,プミ　ピク　シド　ムク,1
,,,,,,,,,R_3halPq6pgfCYq9T,2022-06-25_24h14.58.482,jpn_C01,2022.1.2,Win32,60.01680471,,,,,,,,,,,,,CartoonStims/cowboy_shoot_doctor_r.jpg,,,,,,,,,,,,,,,,,,,,,,,,,,,,,,,,,,,,パツ　ホレト　シド,right,7.4747,,,,,,0,11,11,32,1,,,,,,,,,,,,,,,,,,,,,,,,,パツ　ムク　ピポ,パツ　ムク　ピポ,0
,,,,,,,,,R_3halPq6pgfCYq9T,2022-06-25_24h14.58.482,jpn_C01,2022.1.2,Win32,60.01680471,,,,,,,,,,,,,CartoonStims/chef_point_cowboy_r_no.jpg,,,,,,,,,,,,,,,,,,,,,,,,,,,,,,,,,,,,トマ　ピク　シド　ホレト,right,13.0938,,,,,,0,12,12,8,1,,,,,,,,,,,,,,,,,,,,,,,,,ピク　トマ　ホレト　ムク,トマ　ピク　ホレト　ムク,1
,,,,,,,,,R_3halPq6pgfCYq9T,2022-06-25_24h14.58.482,jpn_C01,2022.1.2,Win32,60.01680471,,,,,,,,,,,,,CartoonStims/artist_kick_boxer_r_no.jpg,,,,,,,,,,,,,,,,,,,,,,,,,,,,,,,,,,,,ピク　セル　シド　ドキ,right,8.5603,,,,,,0,13,13,0,1,,,,,,,,,,,,,,,,,,,,,,,,,ピク　セル　シド　ドキ,セル　ピク　シド　ドキ,1
,,,,,,,,,R_3halPq6pgfCYq9T,2022-06-25_24h14.58.482,jpn_C01,2022.1.2,Win32,60.01680471,,,,,,,,,,,,,CartoonStims/chef_shoot_doctor_r_no.jpg,,,,,,,,,,,,,,,,,,,,,,,,,,,,,,,,,,,,ピク　パツ　シド　ホレト,right,16.089,,,,,,0,14,14,14,1,,,,,,,,,,,,,,,,,,,,,,,,,ピク　パツ　ホレト　ピポ,パツ　ピク　ホレト　ピポ,1
,,,,,,,,,R_3halPq6pgfCYq9T,2022-06-25_24h14.58.482,jpn_C01,2022.1.2,Win32,60.01680471,,,,,,,,,,,,,CartoonStims/boxer_kick_cowboy_r.jpg,,,,,,,,,,,,,,,,,,,,,,,,,,,,,,,,,,,,セル　ドキ　シド,right,7.4705,,,,,,0,15,15,26,1,,,,,,,,,,,,,,,,,,,,,,,,,セル　ドキ　ムク,セル　ドキ　ムク,0
,,,,,,,,,R_3halPq6pgfCYq9T,2022-06-25_24h14.58.482,jpn_C01,2022.1.2,Win32,60.01680471,,,,,,,,,,,,,CartoonStims/chef_kick_burglar_r_no.jpg,,,,,,,,,,,,,,,,,,,,,,,,,,,,,,,,,,,,ピク　セル　ホレト　ルピン,right,9.7229,,,,,,0,16,16,2,1,,,,,,,,,,,,,,,,,,,,,,,,,ピク　セル　ホレト　ルピン,セル　ピク　ホレト　ルピン,1
,,,,,,,,,R_3halPq6pgfCYq9T,2022-06-25_24h14.58.482,jpn_C01,2022.1.2,Win32,60.01680471,,,,,,,,,,,,,CartoonStims/artist_shoot_chef_r_no.jpg,,,,,,,,,,,,,,,,,,,,,,,,,,,,,,,,,,,,ピク　パツ　ホレト　シド,right,14.0992,,,,,,0,17,17,12,1,,,,,,,,,,,,,,,,,,,,,,,,,ピク　パツ　シド　ホレト,パツ　ピク　シド　ホレト,1
,,,,,,,,,R_3halPq6pgfCYq9T,2022-06-25_24h14.58.482,jpn_C01,2022.1.2,Win32,60.01680471,,,,,,,,,,,,,CartoonStims/burglar_kick_artist_r_no.jpg,,,,,,,,,,,,,,,,,,,,,,,,,,,,,,,,,,,,ピク　セル　ルピン　シド,right,6.1185,,,,,,0,18,18,1,1,,,,,,,,,,,,,,,,,,,,,,,,,ピク　セル　ルピン　シド,セル　ピク　ルピン　シド,1
,,,,,,,,,R_3halPq6pgfCYq9T,2022-06-25_24h14.58.482,jpn_C01,2022.1.2,Win32,60.01680471,,,,,,,,,,,,,CartoonStims/doctor_punch_boxer_r.jpg,,,,,,,,,,,,,,,,,,,,,,,,,,,,,,,,,,,,ポに　しれ度　ドキ,right,8.4587,,,,,,0,19,19,34,1,,,,,,,,,,,,,,,,,,,,,,,,,プミ　ピポ　ドキ,プミ　ピポ　ドキ,0
,,,,,,,,,R_3halPq6pgfCYq9T,2022-06-25_24h14.58.482,jpn_C01,2022.1.2,Win32,60.01680471,,,,,,,,,,,,,CartoonStims/cowboy_shoot_boxer_r_no.jpg,,,,,,,,,,,,,,,,,,,,,,,,,,,,,,,,,,,,ピク　パツ　ホレト　ドキ,right,11.3815,,,,,,0,20,20,15,1,,,,,,,,,,,,,,,,,,,,,,,,,ピク　パツ　ムク　ドキ,パツ　ピク　ムク　ドキ,1
,,,,,,,,,R_3halPq6pgfCYq9T,2022-06-25_24h14.58.482,jpn_C01,2022.1.2,Win32,60.01680471,,,,,,,,,,,,,CartoonStims/doctor_kick_chef_r.jpg,,,,,,,,,,,,,,,,,,,,,,,,,,,,,,,,,,,,セル　シレド　シド,right,21.4869,,,,,,0,21,21,25,1,,,,,,,,,,,,,,,,,,,,,,,,,セル　ピポ　ホレト,セル　ピポ　ホレト,0
,,,,,,,,,R_3halPq6pgfCYq9T,2022-06-25_24h14.58.482,jpn_C01,2022.1.2,Win32,60.01680471,,,,,,,,,,,,,CartoonStims/chef_punch_boxer_r_no.jpg,,,,,,,,,,,,,,,,,,,,,,,,,,,,,,,,,,,,ピク　ポニ　ムク　ドキ,right,17.8173,,,,,,0,22,22,20,1,,,,,,,,,,,,,,,,,,,,,,,,,ピク　プミ　ホレト　ドキ,プミ　ピク　ホレト　ドキ,1
,,,,,,,,,R_3halPq6pgfCYq9T,2022-06-25_24h14.58.482,jpn_C01,2022.1.2,Win32,60.01680471,,,,,,,,,,,,,CartoonStims/cowboy_point_doctor_r_no.jpg,,,,,,,,,,,,,,,,,,,,,,,,,,,,,,,,,,,,ピク　トマ　シド　ホレト,right,14.9043,,,,,,0,23,23,9,1,,,,,,,,,,,,,,,,,,,,,,,,,ピク　トマ　ムク　ピポ,トマ　ピク　ムク　ピポ,1
,,,,,,,,,R_3halPq6pgfCYq9T,2022-06-25_24h14.58.482,jpn_C01,2022.1.2,Win32,60.01680471,,,,,,,,,,,,,CartoonStims/boxer_punch_chef_r_no.jpg,,,,,,,,,,,,,,,,,,,,,,,,,,,,,,,,,,,,ピク　ポニ　ドキ　ホレト,right,12.1071,,,,,,0,24,24,23,1,,,,,,,,,,,,,,,,,,,,,,,,,ピク　プミ　ドキ　ホレト,プミ　ピク　ドキ　ホレト,1
,,,,,,,,,R_3halPq6pgfCYq9T,2022-06-25_24h14.58.482,jpn_C01,2022.1.2,Win32,60.01680471,,,,,,,,,,,,,CartoonStims/burglar_point_chef_r_no.jpg,,,,,,,,,,,,,,,,,,,,,,,,,,,,,,,,,,,,ピク　トマ　ルピン　ホレト,right,7.7659,,,,,,0,25,25,7,1,,,,,,,,,,,,,,,,,,,,,,,,,ピク　トマ　ルピン　ホレト,トマ　ピク　ルピン　ホレト,1
,,,,,,,,,R_3halPq6pgfCYq9T,2022-06-25_24h14.58.482,jpn_C01,2022.1.2,Win32,60.01680471,,,,,,,,,,,,,CartoonStims/burglar_point_artist_r.jpg,,,,,,,,,,,,,,,,,,,,,,,,,,,,,,,,,,,,トマ　ルピン　ホレト,right,8.4247,,,,,,0,26,26,28,1,,,,,,,,,,,,,,,,,,,,,,,,,トマ　ルピン　シド,トマ　ルピン　シド,0
,,,,,,,,,R_3halPq6pgfCYq9T,2022-06-25_24h14.58.482,jpn_C01,2022.1.2,Win32,60.01680471,,,,,,,,,,,,,CartoonStims/burglar_shoot_chef_r.jpg,,,,,,,,,,,,,,,,,,,,,,,,,,,,,,,,,,,,パツ　ルピン　シド,right,5.9181,,,,,,0,27,27,30,1,,,,,,,,,,,,,,,,,,,,,,,,,パツ　ルピン　ホレト,パツ　ルピン　ホレト,0
,,,,,,,,,R_3halPq6pgfCYq9T,2022-06-25_24h14.58.482,jpn_C01,2022.1.2,Win32,60.01680471,,,,,,,,,,,,,CartoonStims/doctor_point_boxer_r_no.jpg,,,,,,,,,,,,,,,,,,,,,,,,,,,,,,,,,,,,トマ　ピク　シド　ドキ,right,8.16,,,,,,0,28,28,10,1,,,,,,,,,,,,,,,,,,,,,,,,,ピク　トマ　ピポ　ドキ,トマ　ピク　ピポ　ドキ,1
,,,,,,,,,R_3halPq6pgfCYq9T,2022-06-25_24h14.58.482,jpn_C01,2022.1.2,Win32,60.01680471,,,,,,,,,,,,,CartoonStims/artist_punch_burglar_r.jpg,,,,,,,,,,,,,,,,,,,,,,,,,,,,,,,,,,,,ポニ　ムク　ルピン,right,19.4247,,,,,,0,29,29,33,1,,,,,,,,,,,,,,,,,,,,,,,,,プミ　シド　ルピン,プミ　シド　ルピン,0
,,,,,,,,,R_3halPq6pgfCYq9T,2022-06-25_24h14.58.482,jpn_C01,2022.1.2,Win32,60.01680471,,,,,,,,,,,,,CartoonStims/burglar_punch_doctor_r_no.jpg,,,,,,,,,,,,,,,,,,,,,,,,,,,,,,,,,,,,ピク　ポニ　ルピン　シド,right,14.4038,,,,,,0,30,30,19,1,,,,,,,,,,,,,,,,,,,,,,,,,ピク　プミ　ルピン　ピポ,プミ　ピク　ルピン　ピポ,1
,,,,,,,,,R_3halPq6pgfCYq9T,2022-06-25_24h14.58.482,jpn_C01,2022.1.2,Win32,60.01680471,,,,,,,,,,,,,CartoonStims/doctor_shoot_artist_r_no.jpg,,,,,,,,,,,,,,,,,,,,,,,,,,,,,,,,,,,,ピク　パツ　シド　ホレト,right,10.164,,,,,,0,31,31,16,1,,,,,,,,,,,,,,,,,,,,,,,,,ピク　パツ　ピポ　シド,パツ　ピク　ピポ　シド,1
,,,,,,,,,R_3halPq6pgfCYq9T,2022-06-25_24h14.58.482,jpn_C01,2022.1.2,Win32,60.01680471,,,,,,,,,,,,,CartoonStims/boxer_point_artist_r_no.jpg,,,,,,,,,,,,,,,,,,,,,,,,,,,,,,,,,,,,ピク　トマ　ドキ　ホレト,right,9.1724,,,,,,0,32,32,11,1,,,,,,,,,,,,,,,,,,,,,,,,,ピク　トマ　ドキ　シド,トマ　ピク　ドキ　シド,1
,,,,,,,,,R_3halPq6pgfCYq9T,2022-06-25_24h14.58.482,jpn_C01,2022.1.2,Win32,60.01680471,,,,,,,,,,,,,CartoonStims/boxer_shoot_burglar_r_no.jpg,,,,,,,,,,,,,,,,,,,,,,,,,,,,,,,,,,,,ピク　パツ　ドキ　ルピン,right,9.2766,,,,,,0,33,33,17,1,,,,,,,,,,,,,,,,,,,,,,,,,ピク　パツ　ドキ　ルピン,パツ　ピク　ドキ　ルピン,1
,,,,,,,,,R_3halPq6pgfCYq9T,2022-06-25_24h14.58.482,jpn_C01,2022.1.2,Win32,60.01680471,,,,,,,,,,,,,CartoonStims/chef_point_burglar_r.jpg,,,,,,,,,,,,,,,,,,,,,,,,,,,,,,,,,,,,トマ　ホレト　ルピン,right,7.3861,,,,,,0,34,34,29,1,,,,,,,,,,,,,,,,,,,,,,,,,トマ　ホレト　ルピン,トマ　ホレト　ルピン,0
,,,,,,,,,R_3halPq6pgfCYq9T,2022-06-25_24h14.58.482,jpn_C01,2022.1.2,Win32,60.01680471,,,,,,,,,,,,,CartoonStims/doctor_punch_burglar_r_no.jpg,,,,,,,,,,,,,,,,,,,,,,,,,,,,,,,,,,,,ピク　ポニ　シド　ルピン,right,10.2404,,,,,,0,35,35,22,1,,,,,,,,,,,,,,,,,,,,,,,,,ピク　プミ　ピポ　ルピン,プミ　ピク　ピポ　ルピン,1
,,,,,,,,,R_3halPq6pgfCYq9T,2022-06-25_24h14.58.482,jpn_C01,2022.1.2,Win32,60.01680471,,,,,,,,,,,,,,,,,,,,,,,,,,,,,,,,,,,,,,,,,,,,,,,,,,,,,,,,,,,,,,,,space,0.048,0,2,2,2,1,EquiprobableCondition.xlsx,"ここではこの言語における否定の文を学習していただきます。引き続き注意して、 聞こえた音を復唱してください。

スペースキーを押してください。",1,EquiFCT.xlsx,ここからクイズが始まります。 スクリーンに表示されるテキストに合うイメージを選んでください。,NegTest.xlsx,1,最後にここまで学んだことをアウトプットしていただきます。 テキストボックスにあるイメージを描写するテキストを入力してください。 このタスクでは、 答え合わせは行いません。,0,これですべての実験が終わりました。 お疲れさまです。 この後はアンケートに答えていただきます。,,,,,,,,