key_resp_instr_a.keys,key_resp_instr_a.rt,key_resp_instr_b.keys,key_resp_instr_b.rt,dummy.thisRepN,dummy.thisTrialN,dummy.thisN,dummy.thisIndex,dummy.ran,participant,date,expName,psychopyVersion,OS,frameRate,key_resp_instr1.keys,key_resp_instr1.rt,key_resp.keys,key_resp.rt,exp_loop.thisRepN,exp_loop.thisTrialN,exp_loop.thisN,exp_loop.thisIndex,exp_loop.ran,Word,English,Flip,Path,Audio,key_resp_instr2.keys,key_resp_instr2.rt,key_resp_fct.keys,key_resp_fct.corr,key_resp_fct.rt,trials_4.thisRepN,trials_4.thisTrialN,trials_4.thisN,trials_4.thisIndex,trials_4.ran,fct_loop.thisRepN,fct_loop.thisTrialN,fct_loop.thisN,fct_loop.thisIndex,fct_loop.ran,left_img,word,right_img,correctans,correct_img,audio,incorrect_feedback,trials_2.thisRepN,trials_2.thisTrialN,trials_2.thisN,trials_2.thisIndex,trials_2.ran,trials.thisRepN,trials.thisTrialN,trials.thisN,trials.thisIndex,trials.ran,key_resp_instr3.keys,key_resp_instr3.rt,textbox.text,key_resp_2.keys,key_resp_2.rt,fb_yn.thisRepN,fb_yn.thisTrialN,fb_yn.thisN,fb_yn.thisIndex,fb_yn.ran,gather_loop.thisRepN,gather_loop.thisTrialN,gather_loop.thisN,gather_loop.thisIndex,gather_loop.ran,Text,Wordbank,key_resp_instr4.keys,key_resp_instr4.rt,master_loop.thisRepN,master_loop.thisTrialN,master_loop.thisN,master_loop.thisIndex,master_loop.ran,exposure_file,instr_1,exp_reps,fct_file,instr_2,gather_file,gather_reps,instr_3,fReps,instr_4,trials_3.thisRepN,trials_3.thisTrialN,trials_3.thisN,trials_3.thisIndex,trials_3.ran,NegVSentence,VNegSentence,NegTF
space,17.1043,space,5.921,0,0,0,0,1,R_vwMAKJs09SZIREd,2022-06-29_14h44.02.679,jpn_C01,2022.1.2,Win32,47.5737393,,,,,,,,,,,,,,,,,,,,,,,,,,,,,,,,,,,,,,,,,,,,,,,,,,,,,,,,,,,,,,,,,,,,,,,,,,,,,,,,,,,,,,,,
,,,,,,,,,R_vwMAKJs09SZIREd,2022-06-29_14h44.02.679,jpn_C01,2022.1.2,Win32,47.5737393,space,1.3746,space,2.2373,0,0,0,1,1,ルピン,burglar,,CartoonStims/burglar_r.jpg,audio/lupin.mp3,,,,,,,,,,,,,,,,,,,,,,,,,,,,,,,,,,,,,,,,,,,,,,,,,,,,,,,,,,,,,,,,,,,,,,,,,,
,,,,,,,,,R_vwMAKJs09SZIREd,2022-06-29_14h44.02.679,jpn_C01,2022.1.2,Win32,47.5737393,,,space,1.9002,0,1,1,4,1,ピポ,doctor,,CartoonStims/doctor_r.jpg,audio/pipo.mp3,,,,,,,,,,,,,,,,,,,,,,,,,,,,,,,,,,,,,,,,,,,,,,,,,,,,,,,,,,,,,,,,,,,,,,,,,,
,,,,,,,,,R_vwMAKJs09SZIREd,2022-06-29_14h44.02.679,jpn_C01,2022.1.2,Win32,47.5737393,,,space,1.1316,0,2,2,5,1,ドキ,boxer,,CartoonStims/boxer_r.jpg,audio/doki.mp3,,,,,,,,,,,,,,,,,,,,,,,,,,,,,,,,,,,,,,,,,,,,,,,,,,,,,,,,,,,,,,,,,,,,,,,,,,
,,,,,,,,,R_vwMAKJs09SZIREd,2022-06-29_14h44.02.679,jpn_C01,2022.1.2,Win32,47.5737393,,,space,1.9958,0,3,3,2,1,ホレト,chef,,CartoonStims/chef_r.jpg,audio/horeto.mp3,,,,,,,,,,,,,,,,,,,,,,,,,,,,,,,,,,,,,,,,,,,,,,,,,,,,,,,,,,,,,,,,,,,,,,,,,,
,,,,,,,,,R_vwMAKJs09SZIREd,2022-06-29_14h44.02.679,jpn_C01,2022.1.2,Win32,47.5737393,,,space,0.6041,0,4,4,3,1,ムク,cowboy,,CartoonStims/cowboy_r.jpg,audio/muku.mp3,,,,,,,,,,,,,,,,,,,,,,,,,,,,,,,,,,,,,,,,,,,,,,,,,,,,,,,,,,,,,,,,,,,,,,,,,,
,,,,,,,,,R_vwMAKJs09SZIREd,2022-06-29_14h44.02.679,jpn_C01,2022.1.2,Win32,47.5737393,,,space,0.4241,0,5,5,0,1,シド,artist,,CartoonStims/artist_r.jpg,audio/sido.mp3,,,,,,,,,,,,,,,,,,,,,,,,,,,,,,,,,,,,,,,,,,,,,,,,,,,,,,,,,,,,,,,,,,,,,,,,,,
,,,,,,,,,R_vwMAKJs09SZIREd,2022-06-29_14h44.02.679,jpn_C01,2022.1.2,Win32,47.5737393,,,space,0.6763,1,0,6,0,1,シド,artist,,CartoonStims/artist_r.jpg,audio/sido.mp3,,,,,,,,,,,,,,,,,,,,,,,,,,,,,,,,,,,,,,,,,,,,,,,,,,,,,,,,,,,,,,,,,,,,,,,,,,
,,,,,,,,,R_vwMAKJs09SZIREd,2022-06-29_14h44.02.679,jpn_C01,2022.1.2,Win32,47.5737393,,,space,0.7475,1,1,7,3,1,ムク,cowboy,,CartoonStims/cowboy_r.jpg,audio/muku.mp3,,,,,,,,,,,,,,,,,,,,,,,,,,,,,,,,,,,,,,,,,,,,,,,,,,,,,,,,,,,,,,,,,,,,,,,,,,
,,,,,,,,,R_vwMAKJs09SZIREd,2022-06-29_14h44.02.679,jpn_C01,2022.1.2,Win32,47.5737393,,,space,0.6277,1,2,8,5,1,ドキ,boxer,,CartoonStims/boxer_r.jpg,audio/doki.mp3,,,,,,,,,,,,,,,,,,,,,,,,,,,,,,,,,,,,,,,,,,,,,,,,,,,,,,,,,,,,,,,,,,,,,,,,,,
,,,,,,,,,R_vwMAKJs09SZIREd,2022-06-29_14h44.02.679,jpn_C01,2022.1.2,Win32,47.5737393,,,space,0.8589,1,3,9,2,1,ホレト,chef,,CartoonStims/chef_r.jpg,audio/horeto.mp3,,,,,,,,,,,,,,,,,,,,,,,,,,,,,,,,,,,,,,,,,,,,,,,,,,,,,,,,,,,,,,,,,,,,,,,,,,
,,,,,,,,,R_vwMAKJs09SZIREd,2022-06-29_14h44.02.679,jpn_C01,2022.1.2,Win32,47.5737393,,,space,0.4621,1,4,10,4,1,ピポ,doctor,,CartoonStims/doctor_r.jpg,audio/pipo.mp3,,,,,,,,,,,,,,,,,,,,,,,,,,,,,,,,,,,,,,,,,,,,,,,,,,,,,,,,,,,,,,,,,,,,,,,,,,
,,,,,,,,,R_vwMAKJs09SZIREd,2022-06-29_14h44.02.679,jpn_C01,2022.1.2,Win32,47.5737393,,,space,0.2983,1,5,11,1,1,ルピン,burglar,,CartoonStims/burglar_r.jpg,audio/lupin.mp3,,,,,,,,,,,,,,,,,,,,,,,,,,,,,,,,,,,,,,,,,,,,,,,,,,,,,,,,,,,,,,,,,,,,,,,,,,
,,,,,,,,,R_vwMAKJs09SZIREd,2022-06-29_14h44.02.679,jpn_C01,2022.1.2,Win32,47.5737393,,,space,0.2708,2,0,12,0,1,シド,artist,,CartoonStims/artist_r.jpg,audio/sido.mp3,,,,,,,,,,,,,,,,,,,,,,,,,,,,,,,,,,,,,,,,,,,,,,,,,,,,,,,,,,,,,,,,,,,,,,,,,,
,,,,,,,,,R_vwMAKJs09SZIREd,2022-06-29_14h44.02.679,jpn_C01,2022.1.2,Win32,47.5737393,,,space,0.3201,2,1,13,1,1,ルピン,burglar,,CartoonStims/burglar_r.jpg,audio/lupin.mp3,,,,,,,,,,,,,,,,,,,,,,,,,,,,,,,,,,,,,,,,,,,,,,,,,,,,,,,,,,,,,,,,,,,,,,,,,,
,,,,,,,,,R_vwMAKJs09SZIREd,2022-06-29_14h44.02.679,jpn_C01,2022.1.2,Win32,47.5737393,,,space,0.2139,2,2,14,5,1,ドキ,boxer,,CartoonStims/boxer_r.jpg,audio/doki.mp3,,,,,,,,,,,,,,,,,,,,,,,,,,,,,,,,,,,,,,,,,,,,,,,,,,,,,,,,,,,,,,,,,,,,,,,,,,
,,,,,,,,,R_vwMAKJs09SZIREd,2022-06-29_14h44.02.679,jpn_C01,2022.1.2,Win32,47.5737393,,,space,0.4182,2,3,15,2,1,ホレト,chef,,CartoonStims/chef_r.jpg,audio/horeto.mp3,,,,,,,,,,,,,,,,,,,,,,,,,,,,,,,,,,,,,,,,,,,,,,,,,,,,,,,,,,,,,,,,,,,,,,,,,,
,,,,,,,,,R_vwMAKJs09SZIREd,2022-06-29_14h44.02.679,jpn_C01,2022.1.2,Win32,47.5737393,,,space,3.0145,2,4,16,3,1,ムク,cowboy,,CartoonStims/cowboy_r.jpg,audio/muku.mp3,,,,,,,,,,,,,,,,,,,,,,,,,,,,,,,,,,,,,,,,,,,,,,,,,,,,,,,,,,,,,,,,,,,,,,,,,,
,,,,,,,,,R_vwMAKJs09SZIREd,2022-06-29_14h44.02.679,jpn_C01,2022.1.2,Win32,47.5737393,,,space,0.4654,2,5,17,4,1,ピポ,doctor,,CartoonStims/doctor_r.jpg,audio/pipo.mp3,,,,,,,,,,,,,,,,,,,,,,,,,,,,,,,,,,,,,,,,,,,,,,,,,,,,,,,,,,,,,,,,,,,,,,,,,,
,,,,,,,,,R_vwMAKJs09SZIREd,2022-06-29_14h44.02.679,jpn_C01,2022.1.2,Win32,47.5737393,,,,,,,,,,,,,,,space,1.908,left,0,6.5643,0,0,0,0,1,,,,,,,,,,,,,,,,,,,,,,,,,,,,,,,,,,,,,,,,,,,,,,,,,,,,,,,,,,,,,,,,
,,,,,,,,,R_vwMAKJs09SZIREd,2022-06-29_14h44.02.679,jpn_C01,2022.1.2,Win32,47.5737393,,,,,,,,,,,,,,,,,,,,,,,,,0,0,0,9,1,CartoonStims/boxer_r.jpg,ムク,CartoonStims/cowboy_r.jpg,right,CartoonStims/cowboy_r.jpg,audio/muku.mp3,残念！ こちらが正しい画像です。,,,,,,,,,,,,,,,,,,,,,,,,,,,,,,,,,,,,,,,,,,,,,,,,,,,,
,,,,,,,,,R_vwMAKJs09SZIREd,2022-06-29_14h44.02.679,jpn_C01,2022.1.2,Win32,47.5737393,,,,,,,,,,,,,,,,,right,1,23.1711,,,,,,,,,,,,,,,,,,0,0,0,0,1,,,,,,,,,,,,,,,,,,,,,,,,,,,,,,,,,,,,,,,,,,,,,,,
,,,,,,,,,R_vwMAKJs09SZIREd,2022-06-29_14h44.02.679,jpn_C01,2022.1.2,Win32,47.5737393,,,,,,,,,,,,,,,,,,,,,,,,,0,1,1,8,1,CartoonStims/doctor_r.jpg,ホレト,CartoonStims/chef_r.jpg,right,CartoonStims/chef_r.jpg,audio/horeto.mp3,残念！ こちらが正しい画像です。,,,,,,,,,,,,,,,,,,,,,,,,,,,,,,,,,,,,,,,,,,,,,,,,,,,,
,,,,,,,,,R_vwMAKJs09SZIREd,2022-06-29_14h44.02.679,jpn_C01,2022.1.2,Win32,47.5737393,,,,,,,,,,,,,,,,,left,0,2.2342,0,0,0,0,1,,,,,,,,,,,,,,,,,,,,,,,,,,,,,,,,,,,,,,,,,,,,,,,,,,,,,,,,,,,,,,,,
,,,,,,,,,R_vwMAKJs09SZIREd,2022-06-29_14h44.02.679,jpn_C01,2022.1.2,Win32,47.5737393,,,,,,,,,,,,,,,,,,,,,,,,,0,2,2,6,1,CartoonStims/chef_r.jpg,シド,CartoonStims/artist_r.jpg,right,CartoonStims/artist_r.jpg,audio/sido.mp3,残念！ こちらが正しい画像です。,,,,,,,,,,,,,,,,,,,,,,,,,,,,,,,,,,,,,,,,,,,,,,,,,,,,
,,,,,,,,,R_vwMAKJs09SZIREd,2022-06-29_14h44.02.679,jpn_C01,2022.1.2,Win32,47.5737393,,,,,,,,,,,,,,,,,left,0,3.7529,0,0,0,0,1,,,,,,,,,,,,,,,,,,,,,,,,,,,,,,,,,,,,,,,,,,,,,,,,,,,,,,,,,,,,,,,,
,,,,,,,,,R_vwMAKJs09SZIREd,2022-06-29_14h44.02.679,jpn_C01,2022.1.2,Win32,47.5737393,,,,,,,,,,,,,,,,,,,,,,,,,0,3,3,10,1,CartoonStims/artist_r.jpg,ピポ,CartoonStims/doctor_r.jpg,right,CartoonStims/doctor_r.jpg,audio/pipo.mp3,残念！ こちらが正しい画像です。,,,,,,,,,,,,,,,,,,,,,,,,,,,,,,,,,,,,,,,,,,,,,,,,,,,,
,,,,,,,,,R_vwMAKJs09SZIREd,2022-06-29_14h44.02.679,jpn_C01,2022.1.2,Win32,47.5737393,,,,,,,,,,,,,,,,,left,1,3.8043,,,,,,,,,,,,,,,,,,,,,,,0,0,0,0,1,,,,,,,,,,,,,,,,,,,,,,,,,,,,,,,,,,,,,,,,,,
,,,,,,,,,R_vwMAKJs09SZIREd,2022-06-29_14h44.02.679,jpn_C01,2022.1.2,Win32,47.5737393,,,,,,,,,,,,,,,,,,,,,,,,,0,4,4,2,1,CartoonStims/chef_r.jpg,ホレト,CartoonStims/cowboy_r.jpg,left,CartoonStims/chef_r.jpg,audio/horeto.mp3,残念！ こちらが正しい画像です。,,,,,,,,,,,,,,,,,,,,,,,,,,,,,,,,,,,,,,,,,,,,,,,,,,,,
,,,,,,,,,R_vwMAKJs09SZIREd,2022-06-29_14h44.02.679,jpn_C01,2022.1.2,Win32,47.5737393,,,,,,,,,,,,,,,,,left,1,1.5196,,,,,,,,,,,,,,,,,,,,,,,0,0,0,0,1,,,,,,,,,,,,,,,,,,,,,,,,,,,,,,,,,,,,,,,,,,
,,,,,,,,,R_vwMAKJs09SZIREd,2022-06-29_14h44.02.679,jpn_C01,2022.1.2,Win32,47.5737393,,,,,,,,,,,,,,,,,,,,,,,,,0,5,5,0,1,CartoonStims/artist_r.jpg,シド,CartoonStims/burglar_r.jpg,left,CartoonStims/artist_r.jpg,audio/sido.mp3,残念！ こちらが正しい画像です。,,,,,,,,,,,,,,,,,,,,,,,,,,,,,,,,,,,,,,,,,,,,,,,,,,,,
,,,,,,,,,R_vwMAKJs09SZIREd,2022-06-29_14h44.02.679,jpn_C01,2022.1.2,Win32,47.5737393,,,,,,,,,,,,,,,,,left,1,0.894,,,,,,,,,,,,,,,,,,,,,,,0,0,0,0,1,,,,,,,,,,,,,,,,,,,,,,,,,,,,,,,,,,,,,,,,,,
,,,,,,,,,R_vwMAKJs09SZIREd,2022-06-29_14h44.02.679,jpn_C01,2022.1.2,Win32,47.5737393,,,,,,,,,,,,,,,,,,,,,,,,,0,6,6,4,1,CartoonStims/doctor_r.jpg,ピポ,CartoonStims/boxer_r.jpg,left,CartoonStims/doctor_r.jpg,audio/pipo.mp3,残念！ こちらが正しい画像です。,,,,,,,,,,,,,,,,,,,,,,,,,,,,,,,,,,,,,,,,,,,,,,,,,,,,
,,,,,,,,,R_vwMAKJs09SZIREd,2022-06-29_14h44.02.679,jpn_C01,2022.1.2,Win32,47.5737393,,,,,,,,,,,,,,,,,left,1,5.3194,,,,,,,,,,,,,,,,,,,,,,,0,0,0,0,1,,,,,,,,,,,,,,,,,,,,,,,,,,,,,,,,,,,,,,,,,,
,,,,,,,,,R_vwMAKJs09SZIREd,2022-06-29_14h44.02.679,jpn_C01,2022.1.2,Win32,47.5737393,,,,,,,,,,,,,,,,,,,,,,,,,0,7,7,3,1,CartoonStims/cowboy_r.jpg,ムク,CartoonStims/doctor_r.jpg,left,CartoonStims/cowboy_r.jpg,audio/muku.mp3,残念！ こちらが正しい画像です。,,,,,,,,,,,,,,,,,,,,,,,,,,,,,,,,,,,,,,,,,,,,,,,,,,,,
,,,,,,,,,R_vwMAKJs09SZIREd,2022-06-29_14h44.02.679,jpn_C01,2022.1.2,Win32,47.5737393,,,,,,,,,,,,,,,,,right,1,1.1413,,,,,,,,,,,,,,,,,,0,0,0,0,1,,,,,,,,,,,,,,,,,,,,,,,,,,,,,,,,,,,,,,,,,,,,,,,
,,,,,,,,,R_vwMAKJs09SZIREd,2022-06-29_14h44.02.679,jpn_C01,2022.1.2,Win32,47.5737393,,,,,,,,,,,,,,,,,,,,,,,,,0,8,8,11,1,CartoonStims/burglar_r.jpg,ドキ,CartoonStims/boxer_r.jpg,right,CartoonStims/boxer_r.jpg,audio/doki.mp3,残念！ こちらが正しい画像です。,,,,,,,,,,,,,,,,,,,,,,,,,,,,,,,,,,,,,,,,,,,,,,,,,,,,
,,,,,,,,,R_vwMAKJs09SZIREd,2022-06-29_14h44.02.679,jpn_C01,2022.1.2,Win32,47.5737393,,,,,,,,,,,,,,,,,right,1,0.871,,,,,,,,,,,,,,,,,,0,0,0,0,1,,,,,,,,,,,,,,,,,,,,,,,,,,,,,,,,,,,,,,,,,,,,,,,
,,,,,,,,,R_vwMAKJs09SZIREd,2022-06-29_14h44.02.679,jpn_C01,2022.1.2,Win32,47.5737393,,,,,,,,,,,,,,,,,,,,,,,,,0,9,9,7,1,CartoonStims/cowboy_r.jpg,ルピン,CartoonStims/burglar_r.jpg,right,CartoonStims/burglar_r.jpg,audio/lupin.mp3,残念！ こちらが正しい画像です。,,,,,,,,,,,,,,,,,,,,,,,,,,,,,,,,,,,,,,,,,,,,,,,,,,,,
,,,,,,,,,R_vwMAKJs09SZIREd,2022-06-29_14h44.02.679,jpn_C01,2022.1.2,Win32,47.5737393,,,,,,,,,,,,,,,,,left,1,0.6883,,,,,,,,,,,,,,,,,,,,,,,0,0,0,0,1,,,,,,,,,,,,,,,,,,,,,,,,,,,,,,,,,,,,,,,,,,
,,,,,,,,,R_vwMAKJs09SZIREd,2022-06-29_14h44.02.679,jpn_C01,2022.1.2,Win32,47.5737393,,,,,,,,,,,,,,,,,,,,,,,,,0,10,10,1,1,CartoonStims/burglar_r.jpg,ルピン,CartoonStims/chef_r.jpg,left,CartoonStims/burglar_r.jpg,audio/lupin.mp3,残念！ こちらが正しい画像です。,,,,,,,,,,,,,,,,,,,,,,,,,,,,,,,,,,,,,,,,,,,,,,,,,,,,
,,,,,,,,,R_vwMAKJs09SZIREd,2022-06-29_14h44.02.679,jpn_C01,2022.1.2,Win32,47.5737393,,,,,,,,,,,,,,,,,left,1,1.7865,,,,,,,,,,,,,,,,,,,,,,,0,0,0,0,1,,,,,,,,,,,,,,,,,,,,,,,,,,,,,,,,,,,,,,,,,,
,,,,,,,,,R_vwMAKJs09SZIREd,2022-06-29_14h44.02.679,jpn_C01,2022.1.2,Win32,47.5737393,,,,,,,,,,,,,,,,,,,,,,,,,0,11,11,5,1,CartoonStims/boxer_r.jpg,ドキ,CartoonStims/artist_r.jpg,left,CartoonStims/boxer_r.jpg,audio/doki.mp3,残念！ こちらが正しい画像です。,,,,,,,,,,,,,,,,,,,,,,,,,,,,,,,,,,,,,,,,,,,,,,,,,,,,
,,,,,,,,,R_vwMAKJs09SZIREd,2022-06-29_14h44.02.679,jpn_C01,2022.1.2,Win32,47.5737393,,,,,,,,,,,,,,,,,,,,,,,,,,,,,,,,,,,,,,,,,,,,,,,space,3.912,ホレト,right,12.1062,0,0,0,0,1,,,,,,,,,,,,,,,,,,,,,,,,,,,,,,,,
,,,,,,,,,R_vwMAKJs09SZIREd,2022-06-29_14h44.02.679,jpn_C01,2022.1.2,Win32,47.5737393,,,,,,,,,,,,,CartoonStims/chef_r.jpg,audio/horeto.mp3,,,,,,,,,,,,,,,,,,,,,,,,,,,,,,,,,,,,,,,,,,,0,0,0,2,1,ホレト,,,,,,,,,,,,,,,,,,,,,,,,,,
,,,,,,,,,R_vwMAKJs09SZIREd,2022-06-29_14h44.02.679,jpn_C01,2022.1.2,Win32,47.5737393,,,,,,,,,,,,,,,,,,,,,,,,,,,,,,,,,,,,,,,,,,,,,,,,,ドキ,right,8.1576,0,0,0,0,1,,,,,,,,,,,,,,,,,,,,,,,,,,,,,,,,
,,,,,,,,,R_vwMAKJs09SZIREd,2022-06-29_14h44.02.679,jpn_C01,2022.1.2,Win32,47.5737393,,,,,,,,,,,,,CartoonStims/boxer_r.jpg,audio/doki.mp3,,,,,,,,,,,,,,,,,,,,,,,,,,,,,,,,,,,,,,,,,,,0,1,1,5,1,ドキ,,,,,,,,,,,,,,,,,,,,,,,,,,
,,,,,,,,,R_vwMAKJs09SZIREd,2022-06-29_14h44.02.679,jpn_C01,2022.1.2,Win32,47.5737393,,,,,,,,,,,,,,,,,,,,,,,,,,,,,,,,,,,,,,,,,,,,,,,,,"ショー
",right,6.6327,0,0,0,0,1,,,,,,,,,,,,,,,,,,,,,,,,,,,,,,,,
,,,,,,,,,R_vwMAKJs09SZIREd,2022-06-29_14h44.02.679,jpn_C01,2022.1.2,Win32,47.5737393,,,,,,,,,,,,,CartoonStims/doctor_r.jpg,audio/pipo.mp3,,,,,,,,,,,,,,,,,,,,,,,,,,,,,,,,,,,,,,,,,,,0,2,2,4,1,ピポ,,,,,,,,,,,,,,,,,,,,,,,,,,
,,,,,,,,,R_vwMAKJs09SZIREd,2022-06-29_14h44.02.679,jpn_C01,2022.1.2,Win32,47.5737393,,,,,,,,,,,,,,,,,,,,,,,,,,,,,,,,,,,,,,,,,,,,,,,,,ルピン,right,6.7583,0,0,0,0,1,,,,,,,,,,,,,,,,,,,,,,,,,,,,,,,,
,,,,,,,,,R_vwMAKJs09SZIREd,2022-06-29_14h44.02.679,jpn_C01,2022.1.2,Win32,47.5737393,,,,,,,,,,,,,CartoonStims/burglar_r.jpg,audio/lupin.mp3,,,,,,,,,,,,,,,,,,,,,,,,,,,,,,,,,,,,,,,,,,,0,3,3,1,1,ルピン,,,,,,,,,,,,,,,,,,,,,,,,,,
,,,,,,,,,R_vwMAKJs09SZIREd,2022-06-29_14h44.02.679,jpn_C01,2022.1.2,Win32,47.5737393,,,,,,,,,,,,,,,,,,,,,,,,,,,,,,,,,,,,,,,,,,,,,,,,,ホレト,right,7.8595,0,0,0,0,1,,,,,,,,,,,,,,,,,,,,,,,,,,,,,,,,
,,,,,,,,,R_vwMAKJs09SZIREd,2022-06-29_14h44.02.679,jpn_C01,2022.1.2,Win32,47.5737393,,,,,,,,,,,,,CartoonStims/cowboy_r.jpg,audio/muku.mp3,,,,,,,,,,,,,,,,,,,,,,,,,,,,,,,,,,,,,,,,,,,0,4,4,3,1,ムク,,,,,,,,,,,,,,,,,,,,,,,,,,
,,,,,,,,,R_vwMAKJs09SZIREd,2022-06-29_14h44.02.679,jpn_C01,2022.1.2,Win32,47.5737393,,,,,,,,,,,,,,,,,,,,,,,,,,,,,,,,,,,,,,,,,,,,,,,,,,right,0.1505,0,0,0,0,1,,,,,,,,,,,,,,,,,,,,,,,,,,,,,,,,
,,,,,,,,,R_vwMAKJs09SZIREd,2022-06-29_14h44.02.679,jpn_C01,2022.1.2,Win32,47.5737393,,,,,,,,,,,,,CartoonStims/artist_r.jpg,audio/sido.mp3,,,,,,,,,,,,,,,,,,,,,,,,,,,,,,,,,,,,,,,,,,,0,5,5,0,1,シド,,,,,,,,,,,,,,,,,,,,,,,,,,
,,,,,,,,,R_vwMAKJs09SZIREd,2022-06-29_14h44.02.679,jpn_C01,2022.1.2,Win32,47.5737393,,,,,,,,,,,,,,,,,,,,,,,,,,,,,,,,,,,,,,,,,,,,,,,,,ホレト,right,5.9713,0,0,0,0,1,,,,,,,,,,,,,,,,,,,,,,,,,,,,,,,,
,,,,,,,,,R_vwMAKJs09SZIREd,2022-06-29_14h44.02.679,jpn_C01,2022.1.2,Win32,47.5737393,,,,,,,,,,,,,CartoonStims/doctor_r.jpg,audio/pipo.mp3,,,,,,,,,,,,,,,,,,,,,,,,,,,,,,,,,,,,,,,,,,,1,0,6,4,1,ピポ,,,,,,,,,,,,,,,,,,,,,,,,,,
,,,,,,,,,R_vwMAKJs09SZIREd,2022-06-29_14h44.02.679,jpn_C01,2022.1.2,Win32,47.5737393,,,,,,,,,,,,,,,,,,,,,,,,,,,,,,,,,,,,,,,,,,,,,,,,,ルピン,right,5.8038,0,0,0,0,1,,,,,,,,,,,,,,,,,,,,,,,,,,,,,,,,
,,,,,,,,,R_vwMAKJs09SZIREd,2022-06-29_14h44.02.679,jpn_C01,2022.1.2,Win32,47.5737393,,,,,,,,,,,,,CartoonStims/burglar_r.jpg,audio/lupin.mp3,,,,,,,,,,,,,,,,,,,,,,,,,,,,,,,,,,,,,,,,,,,1,1,7,1,1,ルピン,,,,,,,,,,,,,,,,,,,,,,,,,,
,,,,,,,,,R_vwMAKJs09SZIREd,2022-06-29_14h44.02.679,jpn_C01,2022.1.2,Win32,47.5737393,,,,,,,,,,,,,,,,,,,,,,,,,,,,,,,,,,,,,,,,,,,,,,,,,ピポ,right,9.8104,0,0,0,0,1,,,,,,,,,,,,,,,,,,,,,,,,,,,,,,,,
,,,,,,,,,R_vwMAKJs09SZIREd,2022-06-29_14h44.02.679,jpn_C01,2022.1.2,Win32,47.5737393,,,,,,,,,,,,,CartoonStims/cowboy_r.jpg,audio/muku.mp3,,,,,,,,,,,,,,,,,,,,,,,,,,,,,,,,,,,,,,,,,,,1,2,8,3,1,ムク,,,,,,,,,,,,,,,,,,,,,,,,,,
,,,,,,,,,R_vwMAKJs09SZIREd,2022-06-29_14h44.02.679,jpn_C01,2022.1.2,Win32,47.5737393,,,,,,,,,,,,,,,,,,,,,,,,,,,,,,,,,,,,,,,,,,,,,,,,,ドキ,right,6.0664,0,0,0,0,1,,,,,,,,,,,,,,,,,,,,,,,,,,,,,,,,
,,,,,,,,,R_vwMAKJs09SZIREd,2022-06-29_14h44.02.679,jpn_C01,2022.1.2,Win32,47.5737393,,,,,,,,,,,,,CartoonStims/boxer_r.jpg,audio/doki.mp3,,,,,,,,,,,,,,,,,,,,,,,,,,,,,,,,,,,,,,,,,,,1,3,9,5,1,ドキ,,,,,,,,,,,,,,,,,,,,,,,,,,
,,,,,,,,,R_vwMAKJs09SZIREd,2022-06-29_14h44.02.679,jpn_C01,2022.1.2,Win32,47.5737393,,,,,,,,,,,,,,,,,,,,,,,,,,,,,,,,,,,,,,,,,,,,,,,,,ピポ,right,6.2066,0,0,0,0,1,,,,,,,,,,,,,,,,,,,,,,,,,,,,,,,,
,,,,,,,,,R_vwMAKJs09SZIREd,2022-06-29_14h44.02.679,jpn_C01,2022.1.2,Win32,47.5737393,,,,,,,,,,,,,CartoonStims/chef_r.jpg,audio/horeto.mp3,,,,,,,,,,,,,,,,,,,,,,,,,,,,,,,,,,,,,,,,,,,1,4,10,2,1,ホレト,,,,,,,,,,,,,,,,,,,,,,,,,,
,,,,,,,,,R_vwMAKJs09SZIREd,2022-06-29_14h44.02.679,jpn_C01,2022.1.2,Win32,47.5737393,,,,,,,,,,,,,,,,,,,,,,,,,,,,,,,,,,,,,,,,,,,,,,,,,,right,0.2638,0,0,0,0,1,,,,,,,,,,,,,,,,,,,,,,,,,,,,,,,,
,,,,,,,,,R_vwMAKJs09SZIREd,2022-06-29_14h44.02.679,jpn_C01,2022.1.2,Win32,47.5737393,,,,,,,,,,,,,CartoonStims/artist_r.jpg,audio/sido.mp3,,,,,,,,,,,,,,,,,,,,,,,,,,,,,,,,,,,,,,,,,,,1,5,11,0,1,シド,,,,,,,,,,,,,,,,,,,,,,,,,,
,,,,,,,,,R_vwMAKJs09SZIREd,2022-06-29_14h44.02.679,jpn_C01,2022.1.2,Win32,47.5737393,,,,,,,,,,,,,,,,,,,,,,,,,,,,,,,,,,,,,,,,,,,,,,,,,,,,,,,,,,,,,,,,space,18.5646,0,0,0,0,1,NounExposure.xlsx,"最初のトライアルでは、 画像が表示され、 その画像の下に単語が出てきます。 またこの単語の音も聞くことができます。 この音を大きな声で復唱してください。 そしてこの画像がどのような単語を示しているのか, 考えてみてください。 その後、 続きのボタンを押すと次の単語の学習が始まります。

スペースキーを押して、学習を始めましょう。",3,NounFCT.xlsx,ここから語彙のクイズが始まります。スクリーンに表示される単語に合う画像をキーボードの右と左の矢印キーを使って選択してください。,NounTest.xlsx,2,次に、これまで学習してきたことをアウトプットしていただきます。 表示される画像を描写していると思う単語を、テキストボックスにタイプしてください。,1,"ここまでが最初のトライアルです。ここで休憩をとっても構いません。

休憩が済みましたら、スペースキーを押して続きを始めましょう。",,,,,,,,
,,,,,,,,,R_vwMAKJs09SZIREd,2022-06-29_14h44.02.679,jpn_C01,2022.1.2,Win32,47.5737393,space,2.8103,space,19.215,0,0,0,34,1,パツ　ドキ　ホレト,,,CartoonStims/boxer_shoot_chef_r.jpg,audio/patsudokihoreto.mp3,,,,,,,,,,,,,,,,,,,,,,,,,,,,,,,,,,,,,,,,,,,,,,,,,,,,,,,,,,,,,,,,,,,,,,,,,,
,,,,,,,,,R_vwMAKJs09SZIREd,2022-06-29_14h44.02.679,jpn_C01,2022.1.2,Win32,47.5737393,,,space,6.4662,0,1,1,22,1,トマ　ドキ　ルピン,,,CartoonStims/boxer_point_burglar_r.jpg,audio/tomadokilupin.mp3,,,,,,,,,,,,,,,,,,,,,,,,,,,,,,,,,,,,,,,,,,,,,,,,,,,,,,,,,,,,,,,,,,,,,,,,,,
,,,,,,,,,R_vwMAKJs09SZIREd,2022-06-29_14h44.02.679,jpn_C01,2022.1.2,Win32,47.5737393,,,space,5.2868,0,2,2,37,1,プミ　シド　ドキ,,,CartoonStims/artist_punch_boxer_r.jpg,audio/pumisidodoki.mp3,,,,,,,,,,,,,,,,,,,,,,,,,,,,,,,,,,,,,,,,,,,,,,,,,,,,,,,,,,,,,,,,,,,,,,,,,,
,,,,,,,,,R_vwMAKJs09SZIREd,2022-06-29_14h44.02.679,jpn_C01,2022.1.2,Win32,47.5737393,,,space,7.6149,0,3,3,8,1,セル　ピポ　ドキ,,,CartoonStims/doctor_kick_boxer_r.jpg,audio/serupipodoki.mp3,,,,,,,,,,,,,,,,,,,,,,,,,,,,,,,,,,,,,,,,,,,,,,,,,,,,,,,,,,,,,,,,,,,,,,,,,,
,,,,,,,,,R_vwMAKJs09SZIREd,2022-06-29_14h44.02.679,jpn_C01,2022.1.2,Win32,47.5737393,,,space,7.1361,0,4,4,14,1,トマ　ルピン　ムク,,,CartoonStims/burglar_point_cowboy_r.jpg,audio/tomalupinmuku.mp3,,,,,,,,,,,,,,,,,,,,,,,,,,,,,,,,,,,,,,,,,,,,,,,,,,,,,,,,,,,,,,,,,,,,,,,,,,
,,,,,,,,,R_vwMAKJs09SZIREd,2022-06-29_14h44.02.679,jpn_C01,2022.1.2,Win32,47.5737393,,,space,3.6318,0,5,5,10,1,セル　ドキ　シド,,,CartoonStims/boxer_kick_artist_r.jpg,audio/serudokisido.mp3,,,,,,,,,,,,,,,,,,,,,,,,,,,,,,,,,,,,,,,,,,,,,,,,,,,,,,,,,,,,,,,,,,,,,,,,,,
,,,,,,,,,R_vwMAKJs09SZIREd,2022-06-29_14h44.02.679,jpn_C01,2022.1.2,Win32,47.5737393,,,space,6.486,0,6,6,36,1,プミ　シド　ピポ,,,CartoonStims/artist_punch_doctor_r.jpg,audio/pumisidopipo.mp3,,,,,,,,,,,,,,,,,,,,,,,,,,,,,,,,,,,,,,,,,,,,,,,,,,,,,,,,,,,,,,,,,,,,,,,,,,
,,,,,,,,,R_vwMAKJs09SZIREd,2022-06-29_14h44.02.679,jpn_C01,2022.1.2,Win32,47.5737393,,,space,3.8288,0,7,7,7,1,セル　ムク　ドキ,,,CartoonStims/cowboy_kick_boxer_r.jpg,audio/serumukudoki.mp3,,,,,,,,,,,,,,,,,,,,,,,,,,,,,,,,,,,,,,,,,,,,,,,,,,,,,,,,,,,,,,,,,,,,,,,,,,
,,,,,,,,,R_vwMAKJs09SZIREd,2022-06-29_14h44.02.679,jpn_C01,2022.1.2,Win32,47.5737393,,,space,4.3779,0,8,8,12,1,トマ　シド　ホレト,,,CartoonStims/artist_point_chef_r.jpg,audio/tomasidohoreto.mp3,,,,,,,,,,,,,,,,,,,,,,,,,,,,,,,,,,,,,,,,,,,,,,,,,,,,,,,,,,,,,,,,,,,,,,,,,,
,,,,,,,,,R_vwMAKJs09SZIREd,2022-06-29_14h44.02.679,jpn_C01,2022.1.2,Win32,47.5737393,,,space,6.0936,0,9,9,0,1,セル　シド　ルピン,,,CartoonStims/artist_kick_burglar_r.jpg,audio/serusidolupin.mp3,,,,,,,,,,,,,,,,,,,,,,,,,,,,,,,,,,,,,,,,,,,,,,,,,,,,,,,,,,,,,,,,,,,,,,,,,,
,,,,,,,,,R_vwMAKJs09SZIREd,2022-06-29_14h44.02.679,jpn_C01,2022.1.2,Win32,47.5737393,,,space,17.557,0,10,10,9,1,セル　ピポ　シド,,,CartoonStims/doctor_kick_artist_r.jpg,audio/serupiposido.mp3,,,,,,,,,,,,,,,,,,,,,,,,,,,,,,,,,,,,,,,,,,,,,,,,,,,,,,,,,,,,,,,,,,,,,,,,,,
,,,,,,,,,R_vwMAKJs09SZIREd,2022-06-29_14h44.02.679,jpn_C01,2022.1.2,Win32,47.5737393,,,space,5.4206,0,11,11,39,1,プミ　ルピン　シド,,,CartoonStims/burglar_punch_artist_r.jpg,audio/pumilupinsido.mp3,,,,,,,,,,,,,,,,,,,,,,,,,,,,,,,,,,,,,,,,,,,,,,,,,,,,,,,,,,,,,,,,,,,,,,,,,,
,,,,,,,,,R_vwMAKJs09SZIREd,2022-06-29_14h44.02.679,jpn_C01,2022.1.2,Win32,47.5737393,,,space,6.6128,0,12,12,42,1,プミ　ムク　ルピン,,,CartoonStims/cowboy_punch_burglar_r.jpg,audio/pumimukulupin.mp3,,,,,,,,,,,,,,,,,,,,,,,,,,,,,,,,,,,,,,,,,,,,,,,,,,,,,,,,,,,,,,,,,,,,,,,,,,
,,,,,,,,,R_vwMAKJs09SZIREd,2022-06-29_14h44.02.679,jpn_C01,2022.1.2,Win32,47.5737393,,,space,3.4597,0,13,13,3,1,セル　ルピン　ムク,,,CartoonStims/burglar_kick_cowboy_r.jpg,audio/serulupinmuku.mp3,,,,,,,,,,,,,,,,,,,,,,,,,,,,,,,,,,,,,,,,,,,,,,,,,,,,,,,,,,,,,,,,,,,,,,,,,,
,,,,,,,,,R_vwMAKJs09SZIREd,2022-06-29_14h44.02.679,jpn_C01,2022.1.2,Win32,47.5737393,,,space,2.9857,0,14,14,20,1,トマ　ピポ　シド,,,CartoonStims/doctor_point_artist_r.jpg,audio/tomapiposido.mp3,,,,,,,,,,,,,,,,,,,,,,,,,,,,,,,,,,,,,,,,,,,,,,,,,,,,,,,,,,,,,,,,,,,,,,,,,,
,,,,,,,,,R_vwMAKJs09SZIREd,2022-06-29_14h44.02.679,jpn_C01,2022.1.2,Win32,47.5737393,,,space,3.7746,0,15,15,6,1,セル　ムク　ピポ,,,CartoonStims/cowboy_kick_doctor_r.jpg,audio/serumukupipo.mp3,,,,,,,,,,,,,,,,,,,,,,,,,,,,,,,,,,,,,,,,,,,,,,,,,,,,,,,,,,,,,,,,,,,,,,,,,,
,,,,,,,,,R_vwMAKJs09SZIREd,2022-06-29_14h44.02.679,jpn_C01,2022.1.2,Win32,47.5737393,,,space,6.6693,0,16,16,16,1,トマ　ホレト　ピポ,,,CartoonStims/chef_point_doctor_r.jpg,audio/tomahoretopipo.mp3,,,,,,,,,,,,,,,,,,,,,,,,,,,,,,,,,,,,,,,,,,,,,,,,,,,,,,,,,,,,,,,,,,,,,,,,,,
,,,,,,,,,R_vwMAKJs09SZIREd,2022-06-29_14h44.02.679,jpn_C01,2022.1.2,Win32,47.5737393,,,space,2.2589,0,17,17,13,1,トマ　シド　ムク,,,CartoonStims/artist_point_cowboy_r.jpg,audio/tomasidomuku.mp3,,,,,,,,,,,,,,,,,,,,,,,,,,,,,,,,,,,,,,,,,,,,,,,,,,,,,,,,,,,,,,,,,,,,,,,,,,
,,,,,,,,,R_vwMAKJs09SZIREd,2022-06-29_14h44.02.679,jpn_C01,2022.1.2,Win32,47.5737393,,,space,1.5546,0,18,18,38,1,プミ　ルピン　ドキ,,,CartoonStims/burglar_punch_boxer_r.jpg,audio/pumilupindoki.mp3,,,,,,,,,,,,,,,,,,,,,,,,,,,,,,,,,,,,,,,,,,,,,,,,,,,,,,,,,,,,,,,,,,,,,,,,,,
,,,,,,,,,R_vwMAKJs09SZIREd,2022-06-29_14h44.02.679,jpn_C01,2022.1.2,Win32,47.5737393,,,space,1.0179,0,19,19,5,1,セル　ホレト　ピポ,,,CartoonStims/chef_kick_doctor_r.jpg,audio/seruhoretopipo.mp3,,,,,,,,,,,,,,,,,,,,,,,,,,,,,,,,,,,,,,,,,,,,,,,,,,,,,,,,,,,,,,,,,,,,,,,,,,
,,,,,,,,,R_vwMAKJs09SZIREd,2022-06-29_14h44.02.679,jpn_C01,2022.1.2,Win32,47.5737393,,,space,1.0495,0,20,20,19,1,トマ　ムク　シド,,,CartoonStims/cowboy_point_artist_r.jpg,audio/tomamukusido.mp3,,,,,,,,,,,,,,,,,,,,,,,,,,,,,,,,,,,,,,,,,,,,,,,,,,,,,,,,,,,,,,,,,,,,,,,,,,
,,,,,,,,,R_vwMAKJs09SZIREd,2022-06-29_14h44.02.679,jpn_C01,2022.1.2,Win32,47.5737393,,,space,1.862,0,21,21,45,1,プミ　ピポ　ムク,,,CartoonStims/doctor_punch_cowboy_r.jpg,audio/pumipipomuku.mp3,,,,,,,,,,,,,,,,,,,,,,,,,,,,,,,,,,,,,,,,,,,,,,,,,,,,,,,,,,,,,,,,,,,,,,,,,,
,,,,,,,,,R_vwMAKJs09SZIREd,2022-06-29_14h44.02.679,jpn_C01,2022.1.2,Win32,47.5737393,,,space,1.1302,0,22,22,43,1,プミ　ムク　ホレト,,,CartoonStims/cowboy_punch_chef_r.jpg,audio/pumimukuhoreto.mp3,,,,,,,,,,,,,,,,,,,,,,,,,,,,,,,,,,,,,,,,,,,,,,,,,,,,,,,,,,,,,,,,,,,,,,,,,,
,,,,,,,,,R_vwMAKJs09SZIREd,2022-06-29_14h44.02.679,jpn_C01,2022.1.2,Win32,47.5737393,,,space,1.841,0,23,23,31,1,パツ　ムク　ルピン,,,CartoonStims/cowboy_shoot_burglar_r.jpg,audio/patsumukulupin.mp3,,,,,,,,,,,,,,,,,,,,,,,,,,,,,,,,,,,,,,,,,,,,,,,,,,,,,,,,,,,,,,,,,,,,,,,,,,
,,,,,,,,,R_vwMAKJs09SZIREd,2022-06-29_14h44.02.679,jpn_C01,2022.1.2,Win32,47.5737393,,,space,0.8639,0,24,24,27,1,パツ　ルピン　ドキ,,,CartoonStims/burglar_shoot_boxer_r.jpg,audio/patsulupindoki.mp3,,,,,,,,,,,,,,,,,,,,,,,,,,,,,,,,,,,,,,,,,,,,,,,,,,,,,,,,,,,,,,,,,,,,,,,,,,
,,,,,,,,,R_vwMAKJs09SZIREd,2022-06-29_14h44.02.679,jpn_C01,2022.1.2,Win32,47.5737393,,,space,1.173,0,25,25,23,1,トマ　ドキ　ホレト,,,CartoonStims/boxer_point_chef_r.jpg,audio/tomadokihoreto.mp3,,,,,,,,,,,,,,,,,,,,,,,,,,,,,,,,,,,,,,,,,,,,,,,,,,,,,,,,,,,,,,,,,,,,,,,,,,
,,,,,,,,,R_vwMAKJs09SZIREd,2022-06-29_14h44.02.679,jpn_C01,2022.1.2,Win32,47.5737393,,,space,8.2293,0,26,26,17,1,トマ　ホレト　ドキ,,,CartoonStims/chef_point_boxer_r.jpg,audio/tomahoretodoki.mp3,,,,,,,,,,,,,,,,,,,,,,,,,,,,,,,,,,,,,,,,,,,,,,,,,,,,,,,,,,,,,,,,,,,,,,,,,,
,,,,,,,,,R_vwMAKJs09SZIREd,2022-06-29_14h44.02.679,jpn_C01,2022.1.2,Win32,47.5737393,,,space,2.1222,0,27,27,1,1,セル 　シド 　ホレト,,,CartoonStims/artist_kick_chef_r.jpg,audio/serusidohoreto.mp3,,,,,,,,,,,,,,,,,,,,,,,,,,,,,,,,,,,,,,,,,,,,,,,,,,,,,,,,,,,,,,,,,,,,,,,,,,
,,,,,,,,,R_vwMAKJs09SZIREd,2022-06-29_14h44.02.679,jpn_C01,2022.1.2,Win32,47.5737393,,,space,2.1314,0,28,28,2,1,セル 　ルピン 　ホレト,,,CartoonStims/burglar_kick_chef_r.jpg,audio/serulupinhoreto.mp3,,,,,,,,,,,,,,,,,,,,,,,,,,,,,,,,,,,,,,,,,,,,,,,,,,,,,,,,,,,,,,,,,,,,,,,,,,
,,,,,,,,,R_vwMAKJs09SZIREd,2022-06-29_14h44.02.679,jpn_C01,2022.1.2,Win32,47.5737393,,,space,1.6088,0,29,29,44,1,プミ　ピポ　ホレト,,,CartoonStims/doctor_punch_chef_r.jpg,audio/pumipipohoreto.mp3,,,,,,,,,,,,,,,,,,,,,,,,,,,,,,,,,,,,,,,,,,,,,,,,,,,,,,,,,,,,,,,,,,,,,,,,,,
,,,,,,,,,R_vwMAKJs09SZIREd,2022-06-29_14h44.02.679,jpn_C01,2022.1.2,Win32,47.5737393,,,space,1.2033,0,30,30,41,1,プミ　ホレト　ルピン,,,CartoonStims/chef_punch_burglar_r.jpg,audio/pumihoretolupin.mp3,,,,,,,,,,,,,,,,,,,,,,,,,,,,,,,,,,,,,,,,,,,,,,,,,,,,,,,,,,,,,,,,,,,,,,,,,,
,,,,,,,,,R_vwMAKJs09SZIREd,2022-06-29_14h44.02.679,jpn_C01,2022.1.2,Win32,47.5737393,,,space,3.5015,0,31,31,29,1,パツ　ホレト　シド,,,CartoonStims/chef_shoot_artist_r.jpg,audio/patsuhoretosido.mp3,,,,,,,,,,,,,,,,,,,,,,,,,,,,,,,,,,,,,,,,,,,,,,,,,,,,,,,,,,,,,,,,,,,,,,,,,,
,,,,,,,,,R_vwMAKJs09SZIREd,2022-06-29_14h44.02.679,jpn_C01,2022.1.2,Win32,47.5737393,,,space,5.4366,0,32,32,18,1,トマ　ムク　ドキ,,,CartoonStims/cowboy_point_boxer_r.jpg,audio/tomamukudoki.mp3,,,,,,,,,,,,,,,,,,,,,,,,,,,,,,,,,,,,,,,,,,,,,,,,,,,,,,,,,,,,,,,,,,,,,,,,,,
,,,,,,,,,R_vwMAKJs09SZIREd,2022-06-29_14h44.02.679,jpn_C01,2022.1.2,Win32,47.5737393,,,space,1.0267,0,33,33,40,1,プミ　ホレト　シド,,,CartoonStims/chef_punch_artist_r.jpg,audio/pumihoretosido.mp3,,,,,,,,,,,,,,,,,,,,,,,,,,,,,,,,,,,,,,,,,,,,,,,,,,,,,,,,,,,,,,,,,,,,,,,,,,
,,,,,,,,,R_vwMAKJs09SZIREd,2022-06-29_14h44.02.679,jpn_C01,2022.1.2,Win32,47.5737393,,,space,0.7873,0,34,34,26,1,パツ　ルピン　ピポ,,,CartoonStims/burglar_shoot_doctor_r.jpg,audio/patsulupinpipo.mp3,,,,,,,,,,,,,,,,,,,,,,,,,,,,,,,,,,,,,,,,,,,,,,,,,,,,,,,,,,,,,,,,,,,,,,,,,,
,,,,,,,,,R_vwMAKJs09SZIREd,2022-06-29_14h44.02.679,jpn_C01,2022.1.2,Win32,47.5737393,,,space,1.4074,0,35,35,11,1,セル　ドキ　ルピン,,,CartoonStims/boxer_kick_burglar_r.jpg,audio/serudokilupin.mp3,,,,,,,,,,,,,,,,,,,,,,,,,,,,,,,,,,,,,,,,,,,,,,,,,,,,,,,,,,,,,,,,,,,,,,,,,,
,,,,,,,,,R_vwMAKJs09SZIREd,2022-06-29_14h44.02.679,jpn_C01,2022.1.2,Win32,47.5737393,,,space,0.7114,0,36,36,30,1,パツ　ムク　シド,,,CartoonStims/cowboy_shoot_artist_r.jpg,audio/patsumukusido.mp3,,,,,,,,,,,,,,,,,,,,,,,,,,,,,,,,,,,,,,,,,,,,,,,,,,,,,,,,,,,,,,,,,,,,,,,,,,
,,,,,,,,,R_vwMAKJs09SZIREd,2022-06-29_14h44.02.679,jpn_C01,2022.1.2,Win32,47.5737393,,,space,0.9202,0,37,37,24,1,パツ　シド　ムク,,,CartoonStims/artist_shoot_cowboy_r.jpg,audio/patsusidomuku.mp3,,,,,,,,,,,,,,,,,,,,,,,,,,,,,,,,,,,,,,,,,,,,,,,,,,,,,,,,,,,,,,,,,,,,,,,,,,
,,,,,,,,,R_vwMAKJs09SZIREd,2022-06-29_14h44.02.679,jpn_C01,2022.1.2,Win32,47.5737393,,,space,2.1995,0,38,38,33,1,パツ　ピポ　ホレト,,,CartoonStims/doctor_shoot_chef_r.jpg,audio/patsupipohoreto.mp3,,,,,,,,,,,,,,,,,,,,,,,,,,,,,,,,,,,,,,,,,,,,,,,,,,,,,,,,,,,,,,,,,,,,,,,,,,
,,,,,,,,,R_vwMAKJs09SZIREd,2022-06-29_14h44.02.679,jpn_C01,2022.1.2,Win32,47.5737393,,,space,1.4879,0,39,39,28,1,パツ　ホレト　ドキ,,,CartoonStims/chef_shoot_boxer_r.jpg,audio/patsuhoretodoki.mp3,,,,,,,,,,,,,,,,,,,,,,,,,,,,,,,,,,,,,,,,,,,,,,,,,,,,,,,,,,,,,,,,,,,,,,,,,,
,,,,,,,,,R_vwMAKJs09SZIREd,2022-06-29_14h44.02.679,jpn_C01,2022.1.2,Win32,47.5737393,,,space,0.9552,0,40,40,32,1,パツ　ピポ　ルピン,,,CartoonStims/doctor_shoot_burglar_r.jpg,audio/patsupipolupin.mp3,,,,,,,,,,,,,,,,,,,,,,,,,,,,,,,,,,,,,,,,,,,,,,,,,,,,,,,,,,,,,,,,,,,,,,,,,,
,,,,,,,,,R_vwMAKJs09SZIREd,2022-06-29_14h44.02.679,jpn_C01,2022.1.2,Win32,47.5737393,,,space,0.6931,0,41,41,35,1,パツ　ドキ　ムク,,,CartoonStims/boxer_shoot_cowboy_r.jpg,audio/patsudokimuku.mp3,,,,,,,,,,,,,,,,,,,,,,,,,,,,,,,,,,,,,,,,,,,,,,,,,,,,,,,,,,,,,,,,,,,,,,,,,,
,,,,,,,,,R_vwMAKJs09SZIREd,2022-06-29_14h44.02.679,jpn_C01,2022.1.2,Win32,47.5737393,,,space,0.8475,0,42,42,25,1,パツ　シド　ピポ,,,CartoonStims/artist_shoot_doctor_r.jpg,audio/patsusidopipo.mp3,,,,,,,,,,,,,,,,,,,,,,,,,,,,,,,,,,,,,,,,,,,,,,,,,,,,,,,,,,,,,,,,,,,,,,,,,,
,,,,,,,,,R_vwMAKJs09SZIREd,2022-06-29_14h44.02.679,jpn_C01,2022.1.2,Win32,47.5737393,,,space,0.9971,0,43,43,4,1,セル　ホレト　ムク,,,CartoonStims/chef_kick_cowboy_r.jpg,audio/seruhoretomuku.mp3,,,,,,,,,,,,,,,,,,,,,,,,,,,,,,,,,,,,,,,,,,,,,,,,,,,,,,,,,,,,,,,,,,,,,,,,,,
,,,,,,,,,R_vwMAKJs09SZIREd,2022-06-29_14h44.02.679,jpn_C01,2022.1.2,Win32,47.5737393,,,space,1.5883,0,44,44,46,1,プミ　ドキ　ムク,,,CartoonStims/boxer_punch_cowboy_r.jpg,audio/pumidokimuku.mp3,,,,,,,,,,,,,,,,,,,,,,,,,,,,,,,,,,,,,,,,,,,,,,,,,,,,,,,,,,,,,,,,,,,,,,,,,,
,,,,,,,,,R_vwMAKJs09SZIREd,2022-06-29_14h44.02.679,jpn_C01,2022.1.2,Win32,47.5737393,,,space,1.7709,0,45,45,47,1,プミ　ドキ　ピポ,,,CartoonStims/boxer_punch_doctor_r.jpg,audio/pumidokipipo.mp3,,,,,,,,,,,,,,,,,,,,,,,,,,,,,,,,,,,,,,,,,,,,,,,,,,,,,,,,,,,,,,,,,,,,,,,,,,
,,,,,,,,,R_vwMAKJs09SZIREd,2022-06-29_14h44.02.679,jpn_C01,2022.1.2,Win32,47.5737393,,,space,2.4654,0,46,46,15,1,トマ　ルピン　ピポ,,,CartoonStims/burglar_point_doctor_r.jpg,audio/tomalupinpipo.mp3,,,,,,,,,,,,,,,,,,,,,,,,,,,,,,,,,,,,,,,,,,,,,,,,,,,,,,,,,,,,,,,,,,,,,,,,,,
,,,,,,,,,R_vwMAKJs09SZIREd,2022-06-29_14h44.02.679,jpn_C01,2022.1.2,Win32,47.5737393,,,space,1.5028,0,47,47,21,1,トマ　ピポ　ルピン,,,CartoonStims/doctor_point_burglar_r.jpg,audio/tomapipolupin.mp3,,,,,,,,,,,,,,,,,,,,,,,,,,,,,,,,,,,,,,,,,,,,,,,,,,,,,,,,,,,,,,,,,,,,,,,,,,
,,,,,,,,,R_vwMAKJs09SZIREd,2022-06-29_14h44.02.679,jpn_C01,2022.1.2,Win32,47.5737393,,,,,,,,,,,,,,,space,0.1906,right,1,7.6166,,,,,,,,,,,,,,,,,,0,0,0,0,1,,,,,,,,,,,,,,,,,,,,,,,,,,,,,,,,,,,,,,,,,,,,,,,
,,,,,,,,,R_vwMAKJs09SZIREd,2022-06-29_14h44.02.679,jpn_C01,2022.1.2,Win32,47.5737393,,,,,,,,,,,,,,,,,,,,,,,,,0,0,0,9,1,CartoonStims/chef_kick_artist_r.jpg,セル　ムク　シド,CartoonStims/cowboy_kick_artist_r.jpg,right,CartoonStims/cowboy_kick_artist_r.jpg,audio/serumukusido.mp3,残念！ こちらが正しい画像です。,,,,,,,,,,,,,,,,,,,,,,,,,,,,,,,,,,,,,,,,,,,,,,,,,,,,
,,,,,,,,,R_vwMAKJs09SZIREd,2022-06-29_14h44.02.679,jpn_C01,2022.1.2,Win32,47.5737393,,,,,,,,,,,,,,,,,right,1,4.8851,,,,,,,,,,,,,,,,,,0,0,0,0,1,,,,,,,,,,,,,,,,,,,,,,,,,,,,,,,,,,,,,,,,,,,,,,,
,,,,,,,,,R_vwMAKJs09SZIREd,2022-06-29_14h44.02.679,jpn_C01,2022.1.2,Win32,47.5737393,,,,,,,,,,,,,,,,,,,,,,,,,0,1,1,7,1,CartoonStims/artist_punch_cowboy_r.jpg,セル　シド　ムク,CartoonStims/artist_kick_cowboy_r.jpg,right,CartoonStims/artist_kick_cowboy_r.jpg,audio/serusidomuku.mp3,残念！ こちらが正しい画像です。,,,,,,,,,,,,,,,,,,,,,,,,,,,,,,,,,,,,,,,,,,,,,,,,,,,,
,,,,,,,,,R_vwMAKJs09SZIREd,2022-06-29_14h44.02.679,jpn_C01,2022.1.2,Win32,47.5737393,,,,,,,,,,,,,,,,,right,1,4.8798,,,,,,,,,,,,,,,,,,0,0,0,0,1,,,,,,,,,,,,,,,,,,,,,,,,,,,,,,,,,,,,,,,,,,,,,,,
,,,,,,,,,R_vwMAKJs09SZIREd,2022-06-29_14h44.02.679,jpn_C01,2022.1.2,Win32,47.5737393,,,,,,,,,,,,,,,,,,,,,,,,,0,2,2,11,1,CartoonStims/burglar_punch_cowboy_r.jpg,プミ　ホレト　ムク,CartoonStims/chef_punch_cowboy_r.jpg,right,CartoonStims/chef_punch_cowboy_r.jpg,audio/pumihoretomuku.mp3,残念！ こちらが正しい画像です。,,,,,,,,,,,,,,,,,,,,,,,,,,,,,,,,,,,,,,,,,,,,,,,,,,,,
,,,,,,,,,R_vwMAKJs09SZIREd,2022-06-29_14h44.02.679,jpn_C01,2022.1.2,Win32,47.5737393,,,,,,,,,,,,,,,,,left,1,4.1278,,,,,,,,,,,,,,,,,,,,,,,0,0,0,0,1,,,,,,,,,,,,,,,,,,,,,,,,,,,,,,,,,,,,,,,,,,
,,,,,,,,,R_vwMAKJs09SZIREd,2022-06-29_14h44.02.679,jpn_C01,2022.1.2,Win32,47.5737393,,,,,,,,,,,,,,,,,,,,,,,,,0,3,3,4,1,CartoonStims/burglar_point_boxer_r.jpg,トマ　ルピン　ドキ,CartoonStims/burglar_kick_boxer_r.jpg,left,CartoonStims/burglar_point_boxer_r.jpg,audio/tomalupindoki.mp3,残念！ こちらが正しい画像です。,,,,,,,,,,,,,,,,,,,,,,,,,,,,,,,,,,,,,,,,,,,,,,,,,,,,
,,,,,,,,,R_vwMAKJs09SZIREd,2022-06-29_14h44.02.679,jpn_C01,2022.1.2,Win32,47.5737393,,,,,,,,,,,,,,,,,right,1,3.592,,,,,,,,,,,,,,,,,,0,0,0,0,1,,,,,,,,,,,,,,,,,,,,,,,,,,,,,,,,,,,,,,,,,,,,,,,
,,,,,,,,,R_vwMAKJs09SZIREd,2022-06-29_14h44.02.679,jpn_C01,2022.1.2,Win32,47.5737393,,,,,,,,,,,,,,,,,,,,,,,,,0,4,4,5,1,CartoonStims/cowboy_point_chef_r.jpg,パツ　ムク　ホレト,CartoonStims/cowboy_shoot_chef_r.jpg,right,CartoonStims/cowboy_shoot_chef_r.jpg,audio/patsumukuhoreto.mp3,残念！ こちらが正しい画像です。,,,,,,,,,,,,,,,,,,,,,,,,,,,,,,,,,,,,,,,,,,,,,,,,,,,,
,,,,,,,,,R_vwMAKJs09SZIREd,2022-06-29_14h44.02.679,jpn_C01,2022.1.2,Win32,47.5737393,,,,,,,,,,,,,,,,,left,1,5.8323,,,,,,,,,,,,,,,,,,,,,,,0,0,0,0,1,,,,,,,,,,,,,,,,,,,,,,,,,,,,,,,,,,,,,,,,,,
,,,,,,,,,R_vwMAKJs09SZIREd,2022-06-29_14h44.02.679,jpn_C01,2022.1.2,Win32,47.5737393,,,,,,,,,,,,,,,,,,,,,,,,,0,5,5,10,1,CartoonStims/artist_shoot_burglar_r.jpg,パツ　シド　ルピン,CartoonStims/chef_shoot_burglar_r.jpg,left,CartoonStims/artist_shoot_burglar_r.jpg,audio/patsusidolupin.mp3,残念！ こちらが正しい画像です。,,,,,,,,,,,,,,,,,,,,,,,,,,,,,,,,,,,,,,,,,,,,,,,,,,,,
,,,,,,,,,R_vwMAKJs09SZIREd,2022-06-29_14h44.02.679,jpn_C01,2022.1.2,Win32,47.5737393,,,,,,,,,,,,,,,,,left,1,2.9568,,,,,,,,,,,,,,,,,,,,,,,0,0,0,0,1,,,,,,,,,,,,,,,,,,,,,,,,,,,,,,,,,,,,,,,,,,
,,,,,,,,,R_vwMAKJs09SZIREd,2022-06-29_14h44.02.679,jpn_C01,2022.1.2,Win32,47.5737393,,,,,,,,,,,,,,,,,,,,,,,,,0,6,6,8,1,CartoonStims/doctor_point_cowboy_r.jpg,トマ　ピポ　ムク,CartoonStims/boxer_point_cowboy_r.jpg,left,CartoonStims/doctor_point_cowboy_r.jpg,audio/tomapipomuku.mp3,残念！ こちらが正しい画像です。,,,,,,,,,,,,,,,,,,,,,,,,,,,,,,,,,,,,,,,,,,,,,,,,,,,,
,,,,,,,,,R_vwMAKJs09SZIREd,2022-06-29_14h44.02.679,jpn_C01,2022.1.2,Win32,47.5737393,,,,,,,,,,,,,,,,,left,1,5.0044,,,,,,,,,,,,,,,,,,,,,,,0,0,0,0,1,,,,,,,,,,,,,,,,,,,,,,,,,,,,,,,,,,,,,,,,,,
,,,,,,,,,R_vwMAKJs09SZIREd,2022-06-29_14h44.02.679,jpn_C01,2022.1.2,Win32,47.5737393,,,,,,,,,,,,,,,,,,,,,,,,,0,7,7,6,1,CartoonStims/doctor_punch_boxer_r.jpg,プミ　ピポ　ドキ,CartoonStims/doctor_shoot_boxer_r.jpg,left,CartoonStims/doctor_punch_boxer_r.jpg,audio/pumipipodoki.mp3,残念！ こちらが正しい画像です。,,,,,,,,,,,,,,,,,,,,,,,,,,,,,,,,,,,,,,,,,,,,,,,,,,,,
,,,,,,,,,R_vwMAKJs09SZIREd,2022-06-29_14h44.02.679,jpn_C01,2022.1.2,Win32,47.5737393,,,,,,,,,,,,,,,,,left,1,10.9974,,,,,,,,,,,,,,,,,,,,,,,0,0,0,0,1,,,,,,,,,,,,,,,,,,,,,,,,,,,,,,,,,,,,,,,,,,
,,,,,,,,,R_vwMAKJs09SZIREd,2022-06-29_14h44.02.679,jpn_C01,2022.1.2,Win32,47.5737393,,,,,,,,,,,,,,,,,,,,,,,,,0,8,8,0,1,CartoonStims/doctor_kick_burglar_r.jpg,セル　ピポ　ルピン,CartoonStims/doctor_kick_chef_r.jpg,left,CartoonStims/doctor_kick_burglar_r.jpg,audio/serupipolupin.mp3,残念！ こちらが正しい画像です。,,,,,,,,,,,,,,,,,,,,,,,,,,,,,,,,,,,,,,,,,,,,,,,,,,,,
,,,,,,,,,R_vwMAKJs09SZIREd,2022-06-29_14h44.02.679,jpn_C01,2022.1.2,Win32,47.5737393,,,,,,,,,,,,,,,,,right,1,4.0297,,,,,,,,,,,,,,,,,,0,0,0,0,1,,,,,,,,,,,,,,,,,,,,,,,,,,,,,,,,,,,,,,,,,,,,,,,
,,,,,,,,,R_vwMAKJs09SZIREd,2022-06-29_14h44.02.679,jpn_C01,2022.1.2,Win32,47.5737393,,,,,,,,,,,,,,,,,,,,,,,,,0,9,9,3,1,CartoonStims/cowboy_punch_doctor_r.jpg,プミ　ムク　ドキ,CartoonStims/cowboy_punch_boxer_r.jpg,right,CartoonStims/cowboy_punch_boxer_r.jpg,audio/pumimukudoki.mp3,残念！ こちらが正しい画像です。,,,,,,,,,,,,,,,,,,,,,,,,,,,,,,,,,,,,,,,,,,,,,,,,,,,,
,,,,,,,,,R_vwMAKJs09SZIREd,2022-06-29_14h44.02.679,jpn_C01,2022.1.2,Win32,47.5737393,,,,,,,,,,,,,,,,,right,0,8.3802,,,,,,,,,,,,,,,,,,,,,,,,,,,,,,,,,,,,,,,,,,,,,,,,,,,,,,,,,,,,,,0,0,0,0,1,,,
,,,,,,,,,R_vwMAKJs09SZIREd,2022-06-29_14h44.02.679,jpn_C01,2022.1.2,Win32,47.5737393,,,,,,,,,,,,,,,,,,,,,,,,,0,10,10,2,1,CartoonStims/boxer_shoot_doctor_r.jpg,パツ　ドキ　ピポ,CartoonStims/boxer_shoot_artist_r.jpg,left,CartoonStims/boxer_shoot_doctor_r.jpg,audio/patsudokipipo.mp3,残念！ こちらが正しい画像です。,,,,,,,,,,,,,,,,,,,,,,,,,,,,,,,,,,,,,,,,,,,,,,,,,,,,
,,,,,,,,,R_vwMAKJs09SZIREd,2022-06-29_14h44.02.679,jpn_C01,2022.1.2,Win32,47.5737393,,,,,,,,,,,,,,,,,right,1,9.0895,,,,,,,,,,,,,,,,,,0,0,0,0,1,,,,,,,,,,,,,,,,,,,,,,,,,,,,,,,,,,,,,,,,,,,,,,,
,,,,,,,,,R_vwMAKJs09SZIREd,2022-06-29_14h44.02.679,jpn_C01,2022.1.2,Win32,47.5737393,,,,,,,,,,,,,,,,,,,,,,,,,0,11,11,1,1,CartoonStims/chef_point_burglar_r.jpg,トマ　ホレト　シド,CartoonStims/chef_point_artist_r.jpg,right,CartoonStims/chef_point_artist_r.jpg,audio/tomahoretosido.mp3,残念！ こちらが正しい画像です。,,,,,,,,,,,,,,,,,,,,,,,,,,,,,,,,,,,,,,,,,,,,,,,,,,,,
,,,,,,,,,R_vwMAKJs09SZIREd,2022-06-29_14h44.02.679,jpn_C01,2022.1.2,Win32,47.5737393,,,,,,,,,,,,,,,,,,,,,,,,,,,,,,,,,,,,,,,,,,,,,,,space,3.5208,トマ　シド　ドキ　,right,19.1304,0,0,0,0,1,,,,,,,,,,,,,,,,,,,,,,,,,,,,,,,,
,,,,,,,,,R_vwMAKJs09SZIREd,2022-06-29_14h44.02.679,jpn_C01,2022.1.2,Win32,47.5737393,,,,,,,,,,,,,CartoonStims/artist_point_boxer_r.jpg,audio/tomasidodoki.mp3,,,,,,,,,,,,,,,,,,,,,,,,,,,,,,,,,,,,,,,,,,,0,0,0,3,1,トマ　シド　ドキ,,,,,,,,,,,,,,,,,,,,,,,,,,
,,,,,,,,,R_vwMAKJs09SZIREd,2022-06-29_14h44.02.679,jpn_C01,2022.1.2,Win32,47.5737393,,,,,,,,,,,,,,,,,,,,,,,,,,,,,,,,,,,,,,,,,,,,,,,,,セル　ピポ　,right,20.1691,0,0,0,0,1,,,,,,,,,,,,,,,,,,,,,,,,,,,,,,,,
,,,,,,,,,R_vwMAKJs09SZIREd,2022-06-29_14h44.02.679,jpn_C01,2022.1.2,Win32,47.5737393,,,,,,,,,,,,,CartoonStims/doctor_kick_chef_r.jpg,audio/serupipohoreto.mp3,,,,,,,,,,,,,,,,,,,,,,,,,,,,,,,,,,,,,,,,,,,0,1,1,1,1,セル　ピポ　ホレト,,,,,,,,,,,,,,,,,,,,,,,,,,
,,,,,,,,,R_vwMAKJs09SZIREd,2022-06-29_14h44.02.679,jpn_C01,2022.1.2,Win32,47.5737393,,,,,,,,,,,,,,,,,,,,,,,,,,,,,,,,,,,,,,,,,,,,,,,,,セル　ルピン　トマ,right,36.6531,0,0,0,0,1,,,,,,,,,,,,,,,,,,,,,,,,,,,,,,,,
,,,,,,,,,R_vwMAKJs09SZIREd,2022-06-29_14h44.02.679,jpn_C01,2022.1.2,Win32,47.5737393,,,,,,,,,,,,,CartoonStims/burglar_point_artist_r.jpg,audio/tomalupinsido.mp3,,,,,,,,,,,,,,,,,,,,,,,,,,,,,,,,,,,,,,,,,,,0,2,2,4,1,トマ　ルピン　シド,,,,,,,,,,,,,,,,,,,,,,,,,,
,,,,,,,,,R_vwMAKJs09SZIREd,2022-06-29_14h44.02.679,jpn_C01,2022.1.2,Win32,47.5737393,,,,,,,,,,,,,,,,,,,,,,,,,,,,,,,,,,,,,,,,,,,,,,,,,セル　トマ　ルピン,right,20.0226,0,0,0,0,1,,,,,,,,,,,,,,,,,,,,,,,,,,,,,,,,
,,,,,,,,,R_vwMAKJs09SZIREd,2022-06-29_14h44.02.679,jpn_C01,2022.1.2,Win32,47.5737393,,,,,,,,,,,,,CartoonStims/cowboy_kick_burglar_r.jpg,audio/serumukulupin.mp3,,,,,,,,,,,,,,,,,,,,,,,,,,,,,,,,,,,,,,,,,,,0,3,3,0,1,セル　ムク　ルピン,,,,,,,,,,,,,,,,,,,,,,,,,,
,,,,,,,,,R_vwMAKJs09SZIREd,2022-06-29_14h44.02.679,jpn_C01,2022.1.2,Win32,47.5737393,,,,,,,,,,,,,,,,,,,,,,,,,,,,,,,,,,,,,,,,,,,,,,,,,パツ　ムク　ピ歩,right,17.1776,0,0,0,0,1,,,,,,,,,,,,,,,,,,,,,,,,,,,,,,,,
,,,,,,,,,R_vwMAKJs09SZIREd,2022-06-29_14h44.02.679,jpn_C01,2022.1.2,Win32,47.5737393,,,,,,,,,,,,,CartoonStims/cowboy_shoot_doctor_r.jpg,audio/patsumukupipo.mp3,,,,,,,,,,,,,,,,,,,,,,,,,,,,,,,,,,,,,,,,,,,0,4,4,8,1,パツ　ムク　ピポ,,,,,,,,,,,,,,,,,,,,,,,,,,
,,,,,,,,,R_vwMAKJs09SZIREd,2022-06-29_14h44.02.679,jpn_C01,2022.1.2,Win32,47.5737393,,,,,,,,,,,,,,,,,,,,,,,,,,,,,,,,,,,,,,,,,,,,,,,,,セル　トマ　ルピン,right,26.8049,0,0,0,0,1,,,,,,,,,,,,,,,,,,,,,,,,,,,,,,,,
,,,,,,,,,R_vwMAKJs09SZIREd,2022-06-29_14h44.02.679,jpn_C01,2022.1.2,Win32,47.5737393,,,,,,,,,,,,,CartoonStims/chef_point_burglar_r.jpg,audio/tomahoretolupin.mp3,,,,,,,,,,,,,,,,,,,,,,,,,,,,,,,,,,,,,,,,,,,0,5,5,5,1,トマ　ホレト　ルピン,,,,,,,,,,,,,,,,,,,,,,,,,,
,,,,,,,,,R_vwMAKJs09SZIREd,2022-06-29_14h44.02.679,jpn_C01,2022.1.2,Win32,47.5737393,,,,,,,,,,,,,,,,,,,,,,,,,,,,,,,,,,,,,,,,,,,,,,,,,セル　ドキ　ホレト,right,16.7664,0,0,0,0,1,,,,,,,,,,,,,,,,,,,,,,,,,,,,,,,,
,,,,,,,,,R_vwMAKJs09SZIREd,2022-06-29_14h44.02.679,jpn_C01,2022.1.2,Win32,47.5737393,,,,,,,,,,,,,CartoonStims/boxer_kick_cowboy_r.jpg,audio/serudokimuku.mp3,,,,,,,,,,,,,,,,,,,,,,,,,,,,,,,,,,,,,,,,,,,0,6,6,2,1,セル　ドキ　ムク,,,,,,,,,,,,,,,,,,,,,,,,,,
,,,,,,,,,R_vwMAKJs09SZIREd,2022-06-29_14h44.02.679,jpn_C01,2022.1.2,Win32,47.5737393,,,,,,,,,,,,,,,,,,,,,,,,,,,,,,,,,,,,,,,,,,,,,,,,,,right,0.1592,0,0,0,0,1,,,,,,,,,,,,,,,,,,,,,,,,,,,,,,,,
,,,,,,,,,R_vwMAKJs09SZIREd,2022-06-29_14h44.02.679,jpn_C01,2022.1.2,Win32,47.5737393,,,,,,,,,,,,,CartoonStims/boxer_punch_artist_r.jpg,audio/pumidokisido.mp3,,,,,,,,,,,,,,,,,,,,,,,,,,,,,,,,,,,,,,,,,,,0,7,7,11,1,プミ　ドキ　シド,,,,,,,,,,,,,,,,,,,,,,,,,,
,,,,,,,,,R_vwMAKJs09SZIREd,2022-06-29_14h44.02.679,jpn_C01,2022.1.2,Win32,47.5737393,,,,,,,,,,,,,,,,,,,,,,,,,,,,,,,,,,,,,,,,,,,,,,,,,パツ　ホレト　ピ歩,right,19.8491,0,0,0,0,1,,,,,,,,,,,,,,,,,,,,,,,,,,,,,,,,
,,,,,,,,,R_vwMAKJs09SZIREd,2022-06-29_14h44.02.679,jpn_C01,2022.1.2,Win32,47.5737393,,,,,,,,,,,,,CartoonStims/chef_shoot_cowboy_r.jpg,audio/patsuhoretomuku.mp3,,,,,,,,,,,,,,,,,,,,,,,,,,,,,,,,,,,,,,,,,,,0,8,8,7,1,パツ　ホレト　ムク,,,,,,,,,,,,,,,,,,,,,,,,,,
,,,,,,,,,R_vwMAKJs09SZIREd,2022-06-29_14h44.02.679,jpn_C01,2022.1.2,Win32,47.5737393,,,,,,,,,,,,,,,,,,,,,,,,,,,,,,,,,,,,,,,,,,,,,,,,,パツ　ルピン　ホレト,right,15.7902,0,0,0,0,1,,,,,,,,,,,,,,,,,,,,,,,,,,,,,,,,
,,,,,,,,,R_vwMAKJs09SZIREd,2022-06-29_14h44.02.679,jpn_C01,2022.1.2,Win32,47.5737393,,,,,,,,,,,,,CartoonStims/burglar_shoot_chef_r.jpg,audio/patsulupinhoreto.mp3,,,,,,,,,,,,,,,,,,,,,,,,,,,,,,,,,,,,,,,,,,,0,9,9,6,1,パツ　ルピン　ホレト,,,,,,,,,,,,,,,,,,,,,,,,,,
,,,,,,,,,R_vwMAKJs09SZIREd,2022-06-29_14h44.02.679,jpn_C01,2022.1.2,Win32,47.5737393,,,,,,,,,,,,,,,,,,,,,,,,,,,,,,,,,,,,,,,,,,,,,,,,,トマ　ピポ　ドキ,right,19.723,0,0,0,0,1,,,,,,,,,,,,,,,,,,,,,,,,,,,,,,,,
,,,,,,,,,R_vwMAKJs09SZIREd,2022-06-29_14h44.02.679,jpn_C01,2022.1.2,Win32,47.5737393,,,,,,,,,,,,,CartoonStims/doctor_punch_boxer_r.jpg,audio/pumipipodoki.mp3,,,,,,,,,,,,,,,,,,,,,,,,,,,,,,,,,,,,,,,,,,,0,10,10,10,1,プミ　ピポ　ドキ,,,,,,,,,,,,,,,,,,,,,,,,,,
,,,,,,,,,R_vwMAKJs09SZIREd,2022-06-29_14h44.02.679,jpn_C01,2022.1.2,Win32,47.5737393,,,,,,,,,,,,,,,,,,,,,,,,,,,,,,,,,,,,,,,,,,,,,,,,,プミ　ホレト　ドキ,right,25.1547,0,0,0,0,1,,,,,,,,,,,,,,,,,,,,,,,,,,,,,,,,
,,,,,,,,,R_vwMAKJs09SZIREd,2022-06-29_14h44.02.679,jpn_C01,2022.1.2,Win32,47.5737393,,,,,,,,,,,,,CartoonStims/artist_punch_burglar_r.jpg,audio/pumisidolupin.mp3,,,,,,,,,,,,,,,,,,,,,,,,,,,,,,,,,,,,,,,,,,,0,11,11,9,1,プミ　シド　ルピン,,,,,,,,,,,,,,,,,,,,,,,,,,
,,,,,,,,,R_vwMAKJs09SZIREd,2022-06-29_14h44.02.679,jpn_C01,2022.1.2,Win32,47.5737393,,,,,,,,,,,,,,,,,,,,,,,,,,,,,,,,,,,,,,,,,,,,,,,,,,,,,,,,,,,,,,,,space,2.1327,0,1,1,1,1,AffExposure.xlsx,"第二のトライアルの学習では、この言語で書かれた文を見ていただきます。引き続き注意して、 聞こえた音を復唱してください。


スペースキーを押してください。",1,AffFCT.xlsx,ここからクイズが始まります。 スクリーンに表示されるテキストに合う画像を選んでください。,AffTest.xlsx,1,次にここまで学んだことをアウトプットしていただきます。 表示される画像を描写していると思う単語を、テキストボックスにタイプしてください。 答えを提出したあとに正しい正解が少しの間画面に写ります。,1,"これで第二のトライアルが終了しました。 ここで休憩をとっていただいても構いません。

休憩が終わりましたら、 スペースキーを押して続きの学習を行いましょう。",,,,,,,,
,,,,,,,,,R_vwMAKJs09SZIREd,2022-06-29_14h44.02.679,jpn_C01,2022.1.2,Win32,47.5737393,space,1.5868,space,18.2593,0,0,0,2,1,ピク　セル　ルピン　ホレト,,,CartoonStims/burglar_kick_chef_r_no.jpg,audio/pikuserulupinhoreto.mp3,,,,,,,,,,,,,,,,,,,,,,,,,,,,,,,,,,,,,,,,,,,,,,,,,,,,,,,,,,,,,,,,,,,,,,,,,,
,,,,,,,,,R_vwMAKJs09SZIREd,2022-06-29_14h44.02.679,jpn_C01,2022.1.2,Win32,47.5737393,,,space,11.1333,0,1,1,42,1,ピク　プミ　ムク　ルピン,,,CartoonStims/cowboy_punch_burglar_r_no.jpg,audio/pikupumimukulupin.mp3,,,,,,,,,,,,,,,,,,,,,,,,,,,,,,,,,,,,,,,,,,,,,,,,,,,,,,,,,,,,,,,,,,,,,,,,,,
,,,,,,,,,R_vwMAKJs09SZIREd,2022-06-29_14h44.02.679,jpn_C01,2022.1.2,Win32,47.5737393,,,space,7.3145,0,2,2,21,1,ピク　トマ　ピポ　ルピン,,,CartoonStims/doctor_point_burglar_r_no.jpg,audio/pikutomapipolupin.mp3,,,,,,,,,,,,,,,,,,,,,,,,,,,,,,,,,,,,,,,,,,,,,,,,,,,,,,,,,,,,,,,,,,,,,,,,,,
,,,,,,,,,R_vwMAKJs09SZIREd,2022-06-29_14h44.02.679,jpn_C01,2022.1.2,Win32,47.5737393,,,space,12.5068,0,3,3,25,1,ピク　パツ　シド　ピポ,,,CartoonStims/artist_shoot_doctor_r_no.jpg,audio/pikupatsusidopipo.mp3,,,,,,,,,,,,,,,,,,,,,,,,,,,,,,,,,,,,,,,,,,,,,,,,,,,,,,,,,,,,,,,,,,,,,,,,,,
,,,,,,,,,R_vwMAKJs09SZIREd,2022-06-29_14h44.02.679,jpn_C01,2022.1.2,Win32,47.5737393,,,space,7.4219,0,4,4,8,1,ピク　セル　ピポ　ドキ,,,CartoonStims/doctor_kick_boxer_r_no.jpg,audio/pikuserupipodoki.mp3,,,,,,,,,,,,,,,,,,,,,,,,,,,,,,,,,,,,,,,,,,,,,,,,,,,,,,,,,,,,,,,,,,,,,,,,,,
,,,,,,,,,R_vwMAKJs09SZIREd,2022-06-29_14h44.02.679,jpn_C01,2022.1.2,Win32,47.5737393,,,space,12.5595,0,5,5,20,1,トマ　ピク　ピポ　シド,,,CartoonStims/doctor_point_artist_r_no.jpg,audio/tomapikupiposido.mp3,,,,,,,,,,,,,,,,,,,,,,,,,,,,,,,,,,,,,,,,,,,,,,,,,,,,,,,,,,,,,,,,,,,,,,,,,,
,,,,,,,,,R_vwMAKJs09SZIREd,2022-06-29_14h44.02.679,jpn_C01,2022.1.2,Win32,47.5737393,,,space,11.3403,0,6,6,33,1,ピク　パツ　ピポ　ホレト,,,CartoonStims/doctor_shoot_chef_r_no.jpg,audio/pikupatsupipohoreto.mp3,,,,,,,,,,,,,,,,,,,,,,,,,,,,,,,,,,,,,,,,,,,,,,,,,,,,,,,,,,,,,,,,,,,,,,,,,,
,,,,,,,,,R_vwMAKJs09SZIREd,2022-06-29_14h44.02.679,jpn_C01,2022.1.2,Win32,47.5737393,,,space,7.3469,0,7,7,31,1,ピク　パツ　ムク　ルピン,,,CartoonStims/cowboy_shoot_burglar_r_no.jpg,audio/pikupatsumukulupin.mp3,,,,,,,,,,,,,,,,,,,,,,,,,,,,,,,,,,,,,,,,,,,,,,,,,,,,,,,,,,,,,,,,,,,,,,,,,,
,,,,,,,,,R_vwMAKJs09SZIREd,2022-06-29_14h44.02.679,jpn_C01,2022.1.2,Win32,47.5737393,,,space,10.1091,0,8,8,37,1,プミ　ピク　シド　ドキ,,,CartoonStims/artist_punch_boxer_r_no.jpg,audio/pumipikusidodoki.mp3,,,,,,,,,,,,,,,,,,,,,,,,,,,,,,,,,,,,,,,,,,,,,,,,,,,,,,,,,,,,,,,,,,,,,,,,,,
,,,,,,,,,R_vwMAKJs09SZIREd,2022-06-29_14h44.02.679,jpn_C01,2022.1.2,Win32,47.5737393,,,space,1.819,0,9,9,10,1,ピク　セル　ドキ　シド,,,CartoonStims/boxer_kick_artist_r_no.jpg,audio/pikuserudokisido.mp3,,,,,,,,,,,,,,,,,,,,,,,,,,,,,,,,,,,,,,,,,,,,,,,,,,,,,,,,,,,,,,,,,,,,,,,,,,
,,,,,,,,,R_vwMAKJs09SZIREd,2022-06-29_14h44.02.679,jpn_C01,2022.1.2,Win32,47.5737393,,,space,6.1289,0,10,10,43,1,プミ　ピク　ムク　ホレト,,,CartoonStims/cowboy_punch_chef_r_no.jpg,audio/pumipikumukuhoreto.mp3,,,,,,,,,,,,,,,,,,,,,,,,,,,,,,,,,,,,,,,,,,,,,,,,,,,,,,,,,,,,,,,,,,,,,,,,,,
,,,,,,,,,R_vwMAKJs09SZIREd,2022-06-29_14h44.02.679,jpn_C01,2022.1.2,Win32,47.5737393,,,space,8.5631,0,11,11,45,1,プミ　ピク　ピポ　ムク,,,CartoonStims/doctor_punch_cowboy_r_no.jpg,audio/pumipikupipomuku.mp3,,,,,,,,,,,,,,,,,,,,,,,,,,,,,,,,,,,,,,,,,,,,,,,,,,,,,,,,,,,,,,,,,,,,,,,,,,
,,,,,,,,,R_vwMAKJs09SZIREd,2022-06-29_14h44.02.679,jpn_C01,2022.1.2,Win32,47.5737393,,,space,4.6971,0,12,12,40,1,ピク　プミ　ホレト　シド,,,CartoonStims/chef_punch_artist_r_no.jpg,audio/pikupumihoretosido.mp3,,,,,,,,,,,,,,,,,,,,,,,,,,,,,,,,,,,,,,,,,,,,,,,,,,,,,,,,,,,,,,,,,,,,,,,,,,
,,,,,,,,,R_vwMAKJs09SZIREd,2022-06-29_14h44.02.679,jpn_C01,2022.1.2,Win32,47.5737393,,,space,12.4113,0,13,13,3,1,セル　ピク　ルピン　ムク,,,CartoonStims/burglar_kick_cowboy_r_no.jpg,audio/serupikulupinmuku.mp3,,,,,,,,,,,,,,,,,,,,,,,,,,,,,,,,,,,,,,,,,,,,,,,,,,,,,,,,,,,,,,,,,,,,,,,,,,
,,,,,,,,,R_vwMAKJs09SZIREd,2022-06-29_14h44.02.679,jpn_C01,2022.1.2,Win32,47.5737393,,,space,7.6654,0,14,14,27,1,ピク　パツ　ルピン　ドキ,,,CartoonStims/burglar_shoot_boxer_r_no.jpg,audio/pikupatsulupindoki.mp3,,,,,,,,,,,,,,,,,,,,,,,,,,,,,,,,,,,,,,,,,,,,,,,,,,,,,,,,,,,,,,,,,,,,,,,,,,
,,,,,,,,,R_vwMAKJs09SZIREd,2022-06-29_14h44.02.679,jpn_C01,2022.1.2,Win32,47.5737393,,,space,2.6668,0,15,15,29,1,ピク　パツ　ホレト　シド,,,CartoonStims/chef_shoot_artist_r_no.jpg,audio/pikupatsuhoretosido.mp3,,,,,,,,,,,,,,,,,,,,,,,,,,,,,,,,,,,,,,,,,,,,,,,,,,,,,,,,,,,,,,,,,,,,,,,,,,
,,,,,,,,,R_vwMAKJs09SZIREd,2022-06-29_14h44.02.679,jpn_C01,2022.1.2,Win32,47.5737393,,,space,6.3799,0,16,16,15,1,ピク　トマ　ルピン　ピポ,,,CartoonStims/burglar_point_doctor_r_no.jpg,audio/pikutomalupinpipo.mp3,,,,,,,,,,,,,,,,,,,,,,,,,,,,,,,,,,,,,,,,,,,,,,,,,,,,,,,,,,,,,,,,,,,,,,,,,,
,,,,,,,,,R_vwMAKJs09SZIREd,2022-06-29_14h44.02.679,jpn_C01,2022.1.2,Win32,47.5737393,,,space,15.2528,0,17,17,22,1,トマ　ピク　ドキ　ルピン,,,CartoonStims/boxer_point_burglar_r_no.jpg,audio/tomapikudokilupin.mp3,,,,,,,,,,,,,,,,,,,,,,,,,,,,,,,,,,,,,,,,,,,,,,,,,,,,,,,,,,,,,,,,,,,,,,,,,,
,,,,,,,,,R_vwMAKJs09SZIREd,2022-06-29_14h44.02.679,jpn_C01,2022.1.2,Win32,47.5737393,,,space,8.8708,0,18,18,19,1,ピク　トマ　ムク　シド,,,CartoonStims/cowboy_point_artist_r_no.jpg,audio/pikutomamukusido.mp3,,,,,,,,,,,,,,,,,,,,,,,,,,,,,,,,,,,,,,,,,,,,,,,,,,,,,,,,,,,,,,,,,,,,,,,,,,
,,,,,,,,,R_vwMAKJs09SZIREd,2022-06-29_14h44.02.679,jpn_C01,2022.1.2,Win32,47.5737393,,,space,8.035,0,19,19,24,1,パツ　ピク　シド　ムク,,,CartoonStims/artist_shoot_cowboy_r_no.jpg,audio/patsupikusidomuku.mp3,,,,,,,,,,,,,,,,,,,,,,,,,,,,,,,,,,,,,,,,,,,,,,,,,,,,,,,,,,,,,,,,,,,,,,,,,,
,,,,,,,,,R_vwMAKJs09SZIREd,2022-06-29_14h44.02.679,jpn_C01,2022.1.2,Win32,47.5737393,,,space,7.0264,0,20,20,32,1,パツ　ピク　ピポ　ルピン,,,CartoonStims/doctor_shoot_burglar_r_no.jpg,audio/patsupikupipolupin.mp3,,,,,,,,,,,,,,,,,,,,,,,,,,,,,,,,,,,,,,,,,,,,,,,,,,,,,,,,,,,,,,,,,,,,,,,,,,
,,,,,,,,,R_vwMAKJs09SZIREd,2022-06-29_14h44.02.679,jpn_C01,2022.1.2,Win32,47.5737393,,,space,17.2451,0,21,21,12,1,トマ　ピク　シド　ホレト,,,CartoonStims/artist_point_chef_r_no.jpg,audio/tomapikusidohoreto.mp3,,,,,,,,,,,,,,,,,,,,,,,,,,,,,,,,,,,,,,,,,,,,,,,,,,,,,,,,,,,,,,,,,,,,,,,,,,
,,,,,,,,,R_vwMAKJs09SZIREd,2022-06-29_14h44.02.679,jpn_C01,2022.1.2,Win32,47.5737393,,,space,4.2983,0,22,22,14,1,トマ　ピク　ルピン　ムク,,,CartoonStims/burglar_point_cowboy_r_no.jpg,audio/tomapikulupinmuku.mp3,,,,,,,,,,,,,,,,,,,,,,,,,,,,,,,,,,,,,,,,,,,,,,,,,,,,,,,,,,,,,,,,,,,,,,,,,,
,,,,,,,,,R_vwMAKJs09SZIREd,2022-06-29_14h44.02.679,jpn_C01,2022.1.2,Win32,47.5737393,,,space,6.034,0,23,23,17,1,ピク　トマ　ホレト　ドキ,,,CartoonStims/chef_point_boxer_r_no.jpg,audio/pikutomahoretodoki.mp3,,,,,,,,,,,,,,,,,,,,,,,,,,,,,,,,,,,,,,,,,,,,,,,,,,,,,,,,,,,,,,,,,,,,,,,,,,
,,,,,,,,,R_vwMAKJs09SZIREd,2022-06-29_14h44.02.679,jpn_C01,2022.1.2,Win32,47.5737393,,,space,3.9395,0,24,24,30,1,パツ　ピク　ムク　シド,,,CartoonStims/cowboy_shoot_artist_r_no.jpg,audio/patsupikumukusido.mp3,,,,,,,,,,,,,,,,,,,,,,,,,,,,,,,,,,,,,,,,,,,,,,,,,,,,,,,,,,,,,,,,,,,,,,,,,,
,,,,,,,,,R_vwMAKJs09SZIREd,2022-06-29_14h44.02.679,jpn_C01,2022.1.2,Win32,47.5737393,,,space,5.743,0,25,25,46,1,ピク　プミ　ドキ　ムク,,,CartoonStims/boxer_punch_cowboy_r_no.jpg,audio/pikupumidokimuku.mp3,,,,,,,,,,,,,,,,,,,,,,,,,,,,,,,,,,,,,,,,,,,,,,,,,,,,,,,,,,,,,,,,,,,,,,,,,,
,,,,,,,,,R_vwMAKJs09SZIREd,2022-06-29_14h44.02.679,jpn_C01,2022.1.2,Win32,47.5737393,,,space,4.4006,0,26,26,44,1,ピク　プミ　ピポ　ホレト,,,CartoonStims/doctor_punch_chef_r_no.jpg,audio/pikupumipipohoreto.mp3,,,,,,,,,,,,,,,,,,,,,,,,,,,,,,,,,,,,,,,,,,,,,,,,,,,,,,,,,,,,,,,,,,,,,,,,,,
,,,,,,,,,R_vwMAKJs09SZIREd,2022-06-29_14h44.02.679,jpn_C01,2022.1.2,Win32,47.5737393,,,space,3.7008,0,27,27,16,1,トマ　ピク　ホレト　ピポ,,,CartoonStims/chef_point_doctor_r_no.jpg,audio/tomapikuhoretopipo.mp3,,,,,,,,,,,,,,,,,,,,,,,,,,,,,,,,,,,,,,,,,,,,,,,,,,,,,,,,,,,,,,,,,,,,,,,,,,
,,,,,,,,,R_vwMAKJs09SZIREd,2022-06-29_14h44.02.679,jpn_C01,2022.1.2,Win32,47.5737393,,,space,4.7766,0,28,28,5,1,セル　ピク　ホレト　ピポ,,,CartoonStims/chef_kick_doctor_r_no.jpg,audio/serupikuhoretopipo.mp3,,,,,,,,,,,,,,,,,,,,,,,,,,,,,,,,,,,,,,,,,,,,,,,,,,,,,,,,,,,,,,,,,,,,,,,,,,
,,,,,,,,,R_vwMAKJs09SZIREd,2022-06-29_14h44.02.679,jpn_C01,2022.1.2,Win32,47.5737393,,,space,6.6283,0,29,29,6,1,ピク　セル　ムク　ピポ,,,CartoonStims/cowboy_kick_doctor_r_no.jpg,audio/pikuserumukupipo.mp3,,,,,,,,,,,,,,,,,,,,,,,,,,,,,,,,,,,,,,,,,,,,,,,,,,,,,,,,,,,,,,,,,,,,,,,,,,
,,,,,,,,,R_vwMAKJs09SZIREd,2022-06-29_14h44.02.679,jpn_C01,2022.1.2,Win32,47.5737393,,,space,1.9972,0,30,30,18,1,トマ　ピク　ムク　ドキ,,,CartoonStims/cowboy_point_boxer_r_no.jpg,audio/tomapikumukudoki.mp3,,,,,,,,,,,,,,,,,,,,,,,,,,,,,,,,,,,,,,,,,,,,,,,,,,,,,,,,,,,,,,,,,,,,,,,,,,
,,,,,,,,,R_vwMAKJs09SZIREd,2022-06-29_14h44.02.679,jpn_C01,2022.1.2,Win32,47.5737393,,,space,4.1391,0,31,31,28,1,パツ　ピク　ホレト　ドキ,,,CartoonStims/chef_shoot_boxer_r_no.jpg,audio/patsupikuhoretodoki.mp3,,,,,,,,,,,,,,,,,,,,,,,,,,,,,,,,,,,,,,,,,,,,,,,,,,,,,,,,,,,,,,,,,,,,,,,,,,
,,,,,,,,,R_vwMAKJs09SZIREd,2022-06-29_14h44.02.679,jpn_C01,2022.1.2,Win32,47.5737393,,,space,13.2516,0,32,32,35,1,ピク　パツ　ドキ　ムク,,,CartoonStims/boxer_shoot_cowboy_r_no.jpg,audio/pikupatsudokimuku.mp3,,,,,,,,,,,,,,,,,,,,,,,,,,,,,,,,,,,,,,,,,,,,,,,,,,,,,,,,,,,,,,,,,,,,,,,,,,
,,,,,,,,,R_vwMAKJs09SZIREd,2022-06-29_14h44.02.679,jpn_C01,2022.1.2,Win32,47.5737393,,,space,4.7584,0,33,33,38,1,ピク　プミ　ルピン　ドキ,,,CartoonStims/burglar_punch_boxer_r_no.jpg,audio/pikupumilupindoki.mp3,,,,,,,,,,,,,,,,,,,,,,,,,,,,,,,,,,,,,,,,,,,,,,,,,,,,,,,,,,,,,,,,,,,,,,,,,,
,,,,,,,,,R_vwMAKJs09SZIREd,2022-06-29_14h44.02.679,jpn_C01,2022.1.2,Win32,47.5737393,,,space,23.0936,0,34,34,11,1,セル　ピク　ドキ　ルピン,,,CartoonStims/boxer_kick_burglar_r_no.jpg,audio/serupikudokilupin.mp3,,,,,,,,,,,,,,,,,,,,,,,,,,,,,,,,,,,,,,,,,,,,,,,,,,,,,,,,,,,,,,,,,,,,,,,,,,
,,,,,,,,,R_vwMAKJs09SZIREd,2022-06-29_14h44.02.679,jpn_C01,2022.1.2,Win32,47.5737393,,,space,4.0424,0,35,35,36,1,ピク　プミ　シド　ピポ,,,CartoonStims/artist_punch_doctor_r_no.jpg,audio/pikupumisidopipo.mp3,,,,,,,,,,,,,,,,,,,,,,,,,,,,,,,,,,,,,,,,,,,,,,,,,,,,,,,,,,,,,,,,,,,,,,,,,,
,,,,,,,,,R_vwMAKJs09SZIREd,2022-06-29_14h44.02.679,jpn_C01,2022.1.2,Win32,47.5737393,,,space,3.3563,0,36,36,41,1,プミ　ピク　ホレト　ルピン,,,CartoonStims/chef_punch_burglar_r_no.jpg,audio/pumipikuhoretolupin.mp3,,,,,,,,,,,,,,,,,,,,,,,,,,,,,,,,,,,,,,,,,,,,,,,,,,,,,,,,,,,,,,,,,,,,,,,,,,
,,,,,,,,,R_vwMAKJs09SZIREd,2022-06-29_14h44.02.679,jpn_C01,2022.1.2,Win32,47.5737393,,,space,2.7649,0,37,37,9,1,セル　ピク　ピポ　シド,,,CartoonStims/doctor_kick_artist_r_no.jpg,audio/serupikupiposido.mp3,,,,,,,,,,,,,,,,,,,,,,,,,,,,,,,,,,,,,,,,,,,,,,,,,,,,,,,,,,,,,,,,,,,,,,,,,,
,,,,,,,,,R_vwMAKJs09SZIREd,2022-06-29_14h44.02.679,jpn_C01,2022.1.2,Win32,47.5737393,,,space,3.7746,0,38,38,47,1,プミ　ピク　ドキ　ピポ,,,CartoonStims/boxer_punch_doctor_r_no.jpg,audio/pumipikudokipipo.mp3,,,,,,,,,,,,,,,,,,,,,,,,,,,,,,,,,,,,,,,,,,,,,,,,,,,,,,,,,,,,,,,,,,,,,,,,,,
,,,,,,,,,R_vwMAKJs09SZIREd,2022-06-29_14h44.02.679,jpn_C01,2022.1.2,Win32,47.5737393,,,space,5.8188,0,39,39,39,1,プミ　ピク　ルピン　シド,,,CartoonStims/burglar_punch_artist_r_no.jpg,audio/pumipikulupinsido.mp3,,,,,,,,,,,,,,,,,,,,,,,,,,,,,,,,,,,,,,,,,,,,,,,,,,,,,,,,,,,,,,,,,,,,,,,,,,
,,,,,,,,,R_vwMAKJs09SZIREd,2022-06-29_14h44.02.679,jpn_C01,2022.1.2,Win32,47.5737393,,,space,2.6001,0,40,40,26,1,パツ　ピク　ルピン　ピポ,,,CartoonStims/burglar_shoot_doctor_r_no.jpg,audio/patsupikulupinpipo.mp3,,,,,,,,,,,,,,,,,,,,,,,,,,,,,,,,,,,,,,,,,,,,,,,,,,,,,,,,,,,,,,,,,,,,,,,,,,
,,,,,,,,,R_vwMAKJs09SZIREd,2022-06-29_14h44.02.679,jpn_C01,2022.1.2,Win32,47.5737393,,,space,2.717,0,41,41,34,1,パツ　ピク　ドキ　ホレト,,,CartoonStims/boxer_shoot_chef_r_no.jpg,audio/patsupikudokihoreto.mp3,,,,,,,,,,,,,,,,,,,,,,,,,,,,,,,,,,,,,,,,,,,,,,,,,,,,,,,,,,,,,,,,,,,,,,,,,,
,,,,,,,,,R_vwMAKJs09SZIREd,2022-06-29_14h44.02.679,jpn_C01,2022.1.2,Win32,47.5737393,,,space,4.866,0,42,42,23,1,ピク　トマ　ドキ　ホレト,,,CartoonStims/boxer_point_chef_r_no.jpg,audio/pikutomadokihoreto.mp3,,,,,,,,,,,,,,,,,,,,,,,,,,,,,,,,,,,,,,,,,,,,,,,,,,,,,,,,,,,,,,,,,,,,,,,,,,
,,,,,,,,,R_vwMAKJs09SZIREd,2022-06-29_14h44.02.679,jpn_C01,2022.1.2,Win32,47.5737393,,,space,2.8559,0,43,43,1,1,セル　ピク　シド　ホレト,,,CartoonStims/artist_kick_chef_r_no.jpg,audio/serupikusidohoreto.mp3,,,,,,,,,,,,,,,,,,,,,,,,,,,,,,,,,,,,,,,,,,,,,,,,,,,,,,,,,,,,,,,,,,,,,,,,,,
,,,,,,,,,R_vwMAKJs09SZIREd,2022-06-29_14h44.02.679,jpn_C01,2022.1.2,Win32,47.5737393,,,space,2.8706,0,44,44,13,1,ピク　トマ　シド　ムク,,,CartoonStims/artist_point_cowboy_r_no.jpg,audio/pikutomasidomuku.mp3,,,,,,,,,,,,,,,,,,,,,,,,,,,,,,,,,,,,,,,,,,,,,,,,,,,,,,,,,,,,,,,,,,,,,,,,,,
,,,,,,,,,R_vwMAKJs09SZIREd,2022-06-29_14h44.02.679,jpn_C01,2022.1.2,Win32,47.5737393,,,space,2.5446,0,45,45,0,1,ピク　セル　シド　ルピン,,,CartoonStims/artist_kick_burglar_r_no.jpg,audio/pikuserusidolupin.mp3,,,,,,,,,,,,,,,,,,,,,,,,,,,,,,,,,,,,,,,,,,,,,,,,,,,,,,,,,,,,,,,,,,,,,,,,,,
,,,,,,,,,R_vwMAKJs09SZIREd,2022-06-29_14h44.02.679,jpn_C01,2022.1.2,Win32,47.5737393,,,space,7.0449,0,46,46,4,1,ピク　セル　ホレト　ムク,,,CartoonStims/chef_kick_cowboy_r_no.jpg,audio/pikuseruhoretomuku.mp3,,,,,,,,,,,,,,,,,,,,,,,,,,,,,,,,,,,,,,,,,,,,,,,,,,,,,,,,,,,,,,,,,,,,,,,,,,
,,,,,,,,,R_vwMAKJs09SZIREd,2022-06-29_14h44.02.679,jpn_C01,2022.1.2,Win32,47.5737393,,,space,4.6652,0,47,47,7,1,セル　ピク　ムク　ドキ,,,CartoonStims/cowboy_kick_boxer_r_no.jpg,audio/serupikumukudoki.mp3,,,,,,,,,,,,,,,,,,,,,,,,,,,,,,,,,,,,,,,,,,,,,,,,,,,,,,,,,,,,,,,,,,,,,,,,,,
,,,,,,,,,R_vwMAKJs09SZIREd,2022-06-29_14h44.02.679,jpn_C01,2022.1.2,Win32,47.5737393,,,,,,,,,,,,,,,space,0.0386,right,0,7.0974,,,,,,,,,,,,,,,,,,,,,,,,,,,,,,,,,,,,,,,,,,,,,,,,,,,,,,,,,,,,,,0,0,0,0,1,,,
,,,,,,,,,R_vwMAKJs09SZIREd,2022-06-29_14h44.02.679,jpn_C01,2022.1.2,Win32,47.5737393,,,,,,,,,,,,,,,,,,,,,,,,,0,0,0,4,1,CartoonStims/burglar_shoot_doctor_r.jpg,セル　ピク　ルピン　ピポ,CartoonStims/burglar_kick_doctor_r.jpg,left,CartoonStims/burglar_shoot_doctor_r.jpg,audio/serupikulupinpipo.mp3,"残念！ こちらが正しい画像です。

否定文は起きていないことを示しているのを思い出してください。",,,,,,,,,,,,,,,,,,,,,,,,,,,,,,,,,,,,,,,,,,,,,,,,,,,,
,,,,,,,,,R_vwMAKJs09SZIREd,2022-06-29_14h44.02.679,jpn_C01,2022.1.2,Win32,47.5737393,,,,,,,,,,,,,,,,,right,1,30.182,,,,,,,,,,,,,,,,,,0,0,0,0,1,,,,,,,,,,,,,,,,,,,,,,,,,,,,,,,,,,,,,,,,,,,,,,,
,,,,,,,,,R_vwMAKJs09SZIREd,2022-06-29_14h44.02.679,jpn_C01,2022.1.2,Win32,47.5737393,,,,,,,,,,,,,,,,,,,,,,,,,0,1,1,7,1,CartoonStims/cowboy_point_chef_r.jpg,ピク　トマ　ムク　ホレト,CartoonStims/cowboy_kick_chef_r.jpg,right,CartoonStims/cowboy_kick_chef_r.jpg,audio/pikutomamukuhoreto.mp3,"残念！ こちらが正しい画像です。

否定文は起きていないことを示しているのを思い出してください。",,,,,,,,,,,,,,,,,,,,,,,,,,,,,,,,,,,,,,,,,,,,,,,,,,,,
,,,,,,,,,R_vwMAKJs09SZIREd,2022-06-29_14h44.02.679,jpn_C01,2022.1.2,Win32,47.5737393,,,,,,,,,,,,,,,,,right,0,9.3925,,,,,,,,,,,,,,,,,,,,,,,,,,,,,,,,,,,,,,,,,,,,,,,,,,,,,,,,,,,,,,0,0,0,0,1,,,
,,,,,,,,,R_vwMAKJs09SZIREd,2022-06-29_14h44.02.679,jpn_C01,2022.1.2,Win32,47.5737393,,,,,,,,,,,,,,,,,,,,,,,,,0,2,2,8,1,CartoonStims/burglar_punch_artist_r.jpg,トマ　ピク　ルピン　シド,CartoonStims/burglar_point_artist_r.jpg,left,CartoonStims/burglar_punch_artist_r.jpg,audio/tomapikulupinsido.mp3,"残念！ こちらが正しい画像です。

否定文は起きていないことを示しているのを思い出してください。",,,,,,,,,,,,,,,,,,,,,,,,,,,,,,,,,,,,,,,,,,,,,,,,,,,,
,,,,,,,,,R_vwMAKJs09SZIREd,2022-06-29_14h44.02.679,jpn_C01,2022.1.2,Win32,47.5737393,,,,,,,,,,,,,,,,,left,1,14.892,,,,,,,,,,,,,,,,,,,,,,,0,0,0,0,1,,,,,,,,,,,,,,,,,,,,,,,,,,,,,,,,,,,,,,,,,,
,,,,,,,,,R_vwMAKJs09SZIREd,2022-06-29_14h44.02.679,jpn_C01,2022.1.2,Win32,47.5737393,,,,,,,,,,,,,,,,,,,,,,,,,0,3,3,6,1,CartoonStims/artist_shoot_boxer_r.jpg,トマ　ピク　シド　ドキ,CartoonStims/artist_point_boxer_r.jpg,left,CartoonStims/artist_shoot_boxer_r.jpg,audio/tomapikusidodoki.mp3,"残念！ こちらが正しい画像です。

否定文は起きていないことを示しているのを思い出してください。",,,,,,,,,,,,,,,,,,,,,,,,,,,,,,,,,,,,,,,,,,,,,,,,,,,,
,,,,,,,,,R_vwMAKJs09SZIREd,2022-06-29_14h44.02.679,jpn_C01,2022.1.2,Win32,47.5737393,,,,,,,,,,,,,,,,,right,1,17.6675,,,,,,,,,,,,,,,,,,0,0,0,0,1,,,,,,,,,,,,,,,,,,,,,,,,,,,,,,,,,,,,,,,,,,,,,,,
,,,,,,,,,R_vwMAKJs09SZIREd,2022-06-29_14h44.02.679,jpn_C01,2022.1.2,Win32,47.5737393,,,,,,,,,,,,,,,,,,,,,,,,,0,4,4,5,1,CartoonStims/boxer_kick_cowboy_r.jpg,ピク　セル　ドキ　ムク,CartoonStims/boxer_punch_cowboy_r.jpg,right,CartoonStims/boxer_punch_cowboy_r.jpg,audio/pikuserudokimuku.mp3,"残念！ こちらが正しい画像です。

否定文は起きていないことを示しているのを思い出してください。",,,,,,,,,,,,,,,,,,,,,,,,,,,,,,,,,,,,,,,,,,,,,,,,,,,,
,,,,,,,,,R_vwMAKJs09SZIREd,2022-06-29_14h44.02.679,jpn_C01,2022.1.2,Win32,47.5737393,,,,,,,,,,,,,,,,,right,1,14.8602,,,,,,,,,,,,,,,,,,0,0,0,0,1,,,,,,,,,,,,,,,,,,,,,,,,,,,,,,,,,,,,,,,,,,,,,,,
,,,,,,,,,R_vwMAKJs09SZIREd,2022-06-29_14h44.02.679,jpn_C01,2022.1.2,Win32,47.5737393,,,,,,,,,,,,,,,,,,,,,,,,,0,5,5,1,1,CartoonStims/chef_punch_cowboy_r.jpg,プミ　ピク　ホレト　ムク,CartoonStims/chef_kick_cowboy_r.jpg,right,CartoonStims/chef_kick_cowboy_r.jpg,audio/pumipikuhoretomuku.mp3,"残念！ こちらが正しい画像です。

否定文は起きていないことを示しているのを思い出してください。",,,,,,,,,,,,,,,,,,,,,,,,,,,,,,,,,,,,,,,,,,,,,,,,,,,,
,,,,,,,,,R_vwMAKJs09SZIREd,2022-06-29_14h44.02.679,jpn_C01,2022.1.2,Win32,47.5737393,,,,,,,,,,,,,,,,,right,1,5.0856,,,,,,,,,,,,,,,,,,0,0,0,0,1,,,,,,,,,,,,,,,,,,,,,,,,,,,,,,,,,,,,,,,,,,,,,,,
,,,,,,,,,R_vwMAKJs09SZIREd,2022-06-29_14h44.02.679,jpn_C01,2022.1.2,Win32,47.5737393,,,,,,,,,,,,,,,,,,,,,,,,,0,6,6,3,1,CartoonStims/chef_kick_artist_r.jpg,ピク　セル　ホレト　シド,CartoonStims/chef_point_artist_r.jpg,right,CartoonStims/chef_point_artist_r.jpg,audio/pikuseruhoretosido.mp3,"残念！ こちらが正しい画像です。

否定文は起きていないことを示しているのを思い出してください。",,,,,,,,,,,,,,,,,,,,,,,,,,,,,,,,,,,,,,,,,,,,,,,,,,,,
,,,,,,,,,R_vwMAKJs09SZIREd,2022-06-29_14h44.02.679,jpn_C01,2022.1.2,Win32,47.5737393,,,,,,,,,,,,,,,,,left,1,6.1658,,,,,,,,,,,,,,,,,,,,,,,0,0,0,0,1,,,,,,,,,,,,,,,,,,,,,,,,,,,,,,,,,,,,,,,,,,
,,,,,,,,,R_vwMAKJs09SZIREd,2022-06-29_14h44.02.679,jpn_C01,2022.1.2,Win32,47.5737393,,,,,,,,,,,,,,,,,,,,,,,,,0,7,7,0,1,CartoonStims/artist_shoot_burglar_r.jpg,ピク　プミ　シド　ルピン,CartoonStims/artist_punch_burglar_r.jpg,left,CartoonStims/artist_shoot_burglar_r.jpg,audio/pikupumisidolupin.mp3,"残念！ こちらが正しい画像です。

否定文は起きていないことを示しているのを思い出してください。",,,,,,,,,,,,,,,,,,,,,,,,,,,,,,,,,,,,,,,,,,,,,,,,,,,,
,,,,,,,,,R_vwMAKJs09SZIREd,2022-06-29_14h44.02.679,jpn_C01,2022.1.2,Win32,47.5737393,,,,,,,,,,,,,,,,,right,1,6.1258,,,,,,,,,,,,,,,,,,0,0,0,0,1,,,,,,,,,,,,,,,,,,,,,,,,,,,,,,,,,,,,,,,,,,,,,,,
,,,,,,,,,R_vwMAKJs09SZIREd,2022-06-29_14h44.02.679,jpn_C01,2022.1.2,Win32,47.5737393,,,,,,,,,,,,,,,,,,,,,,,,,0,8,8,11,1,CartoonStims/chef_shoot_burglar_r.jpg,パツ　ピク　ホレト　ルピン,CartoonStims/chef_kick_burglar_r.jpg,right,CartoonStims/chef_kick_burglar_r.jpg,audio/patsupikuhoretolupin.mp3,"残念！ こちらが正しい画像です。

否定文は起きていないことを示しているのを思い出してください。",,,,,,,,,,,,,,,,,,,,,,,,,,,,,,,,,,,,,,,,,,,,,,,,,,,,
,,,,,,,,,R_vwMAKJs09SZIREd,2022-06-29_14h44.02.679,jpn_C01,2022.1.2,Win32,47.5737393,,,,,,,,,,,,,,,,,left,1,13.6496,,,,,,,,,,,,,,,,,,,,,,,0,0,0,0,1,,,,,,,,,,,,,,,,,,,,,,,,,,,,,,,,,,,,,,,,,,
,,,,,,,,,R_vwMAKJs09SZIREd,2022-06-29_14h44.02.679,jpn_C01,2022.1.2,Win32,47.5737393,,,,,,,,,,,,,,,,,,,,,,,,,0,9,9,2,1,CartoonStims/doctor_point_boxer_r.jpg,ピク　プミ　ピポ　ドキ,CartoonStims/doctor_punch_boxer_r.jpg,left,CartoonStims/doctor_point_boxer_r.jpg,audio/pikupumipipodoki.mp3,"残念！ こちらが正しい画像です。

否定文は起きていないことを示しているのを思い出してください。",,,,,,,,,,,,,,,,,,,,,,,,,,,,,,,,,,,,,,,,,,,,,,,,,,,,
,,,,,,,,,R_vwMAKJs09SZIREd,2022-06-29_14h44.02.679,jpn_C01,2022.1.2,Win32,47.5737393,,,,,,,,,,,,,,,,,left,1,5.621,,,,,,,,,,,,,,,,,,,,,,,0,0,0,0,1,,,,,,,,,,,,,,,,,,,,,,,,,,,,,,,,,,,,,,,,,,
,,,,,,,,,R_vwMAKJs09SZIREd,2022-06-29_14h44.02.679,jpn_C01,2022.1.2,Win32,47.5737393,,,,,,,,,,,,,,,,,,,,,,,,,0,10,10,10,1,CartoonStims/doctor_punch_cowboy_r.jpg,ピク　パツ　ピポ　ムク,CartoonStims/doctor_shoot_cowboy_r.jpg,left,CartoonStims/doctor_punch_cowboy_r.jpg,audio/pikupatsupipomuku.mp3,"残念！ こちらが正しい画像です。

否定文は起きていないことを示しているのを思い出してください。",,,,,,,,,,,,,,,,,,,,,,,,,,,,,,,,,,,,,,,,,,,,,,,,,,,,
,,,,,,,,,R_vwMAKJs09SZIREd,2022-06-29_14h44.02.679,jpn_C01,2022.1.2,Win32,47.5737393,,,,,,,,,,,,,,,,,right,1,23.3171,,,,,,,,,,,,,,,,,,0,0,0,0,1,,,,,,,,,,,,,,,,,,,,,,,,,,,,,,,,,,,,,,,,,,,,,,,
,,,,,,,,,R_vwMAKJs09SZIREd,2022-06-29_14h44.02.679,jpn_C01,2022.1.2,Win32,47.5737393,,,,,,,,,,,,,,,,,,,,,,,,,0,11,11,9,1,CartoonStims/boxer_shoot_doctor_r.jpg,パツ　ピク　ドキ　ピポ,CartoonStims/boxer_point_doctor_r.jpg,right,CartoonStims/boxer_point_doctor_r.jpg,audio/patsupikudokipipo.mp3,"残念！ こちらが正しい画像です。

否定文は起きていないことを示しているのを思い出してください。",,,,,,,,,,,,,,,,,,,,,,,,,,,,,,,,,,,,,,,,,,,,,,,,,,,,
,,,,,,,,,R_vwMAKJs09SZIREd,2022-06-29_14h44.02.679,jpn_C01,2022.1.2,Win32,47.5737393,,,,,,,,,,,,,CartoonStims/boxer_punch_chef_r_no.jpg,,,,,,,,,,,,,,,,,,,,,,,,,,,,,,,,,,space,1.9473,ピク　パツ　ドキ　ホレト,right,36.8113,,,,,,0,0,0,23,1,,,,,,,,,,,,,,,,,,,,,,,,,ピク　プミ　ドキ　ホレト,プミ　ピク　ドキ　ホレト,1
,,,,,,,,,R_vwMAKJs09SZIREd,2022-06-29_14h44.02.679,jpn_C01,2022.1.2,Win32,47.5737393,,,,,,,,,,,,,CartoonStims/chef_kick_burglar_r_no.jpg,,,,,,,,,,,,,,,,,,,,,,,,,,,,,,,,,,,,ピク　セル　ホレト　ルピン,right,23.042,,,,,,0,1,1,2,1,,,,,,,,,,,,,,,,,,,,,,,,,ピク　セル　ホレト　ルピン,セル　ピク　ホレト　ルピン,1
,,,,,,,,,R_vwMAKJs09SZIREd,2022-06-29_14h44.02.679,jpn_C01,2022.1.2,Win32,47.5737393,,,,,,,,,,,,,CartoonStims/burglar_kick_artist_r_no.jpg,,,,,,,,,,,,,,,,,,,,,,,,,,,,,,,,,,,,ピク　セル　ルピン　シド,right,20.4232,,,,,,0,2,2,1,1,,,,,,,,,,,,,,,,,,,,,,,,,ピク　セル　ルピン　シド,セル　ピク　ルピン　シド,1
,,,,,,,,,R_vwMAKJs09SZIREd,2022-06-29_14h44.02.679,jpn_C01,2022.1.2,Win32,47.5737393,,,,,,,,,,,,,CartoonStims/cowboy_point_doctor_r_no.jpg,,,,,,,,,,,,,,,,,,,,,,,,,,,,,,,,,,,,ピク　,right,49.4713,,,,,,0,3,3,9,1,,,,,,,,,,,,,,,,,,,,,,,,,ピク　トマ　ムク　ピポ,トマ　ピク　ムク　ピポ,1
,,,,,,,,,R_vwMAKJs09SZIREd,2022-06-29_14h44.02.679,jpn_C01,2022.1.2,Win32,47.5737393,,,,,,,,,,,,,CartoonStims/cowboy_punch_artist_r_no.jpg,,,,,,,,,,,,,,,,,,,,,,,,,,,,,,,,,,,,ピク　,right,20.5376,,,,,,0,4,4,21,1,,,,,,,,,,,,,,,,,,,,,,,,,ピク　プミ　ムク　シド,プミ　ピク　ムク　シド,1
,,,,,,,,,R_vwMAKJs09SZIREd,2022-06-29_14h44.02.679,jpn_C01,2022.1.2,Win32,47.5737393,,,,,,,,,,,,,CartoonStims/chef_point_cowboy_r_no.jpg,,,,,,,,,,,,,,,,,,,,,,,,,,,,,,,,,,,,ピク　,right,6.8979,,,,,,0,5,5,8,1,,,,,,,,,,,,,,,,,,,,,,,,,ピク　トマ　ホレト　ムク,トマ　ピク　ホレト　ムク,1
,,,,,,,,,R_vwMAKJs09SZIREd,2022-06-29_14h44.02.679,jpn_C01,2022.1.2,Win32,47.5737393,,,,,,,,,,,,,CartoonStims/artist_punch_cowboy_r_no.jpg,,,,,,,,,,,,,,,,,,,,,,,,,,,,,,,,,,,,,right,2.4516,,,,,,0,6,6,18,1,,,,,,,,,,,,,,,,,,,,,,,,,ピク　プミ　シド　ムク,プミ　ピク　シド　ムク,1
,,,,,,,,,R_vwMAKJs09SZIREd,2022-06-29_14h44.02.679,jpn_C01,2022.1.2,Win32,47.5737393,,,,,,,,,,,,,CartoonStims/cowboy_kick_chef_r_no.jpg,,,,,,,,,,,,,,,,,,,,,,,,,,,,,,,,,,,,ピク　セル　ピク　ホレト,right,27.5185,,,,,,0,7,7,3,1,,,,,,,,,,,,,,,,,,,,,,,,,ピク　セル　ムク　ホレト,セル　ピク　ムク　ホレト,1
,,,,,,,,,R_vwMAKJs09SZIREd,2022-06-29_14h44.02.679,jpn_C01,2022.1.2,Win32,47.5737393,,,,,,,,,,,,,CartoonStims/boxer_kick_doctor_r_no.jpg,,,,,,,,,,,,,,,,,,,,,,,,,,,,,,,,,,,,ピク　セル　ドキ　ピ歩,right,16.2998,,,,,,0,8,8,5,1,,,,,,,,,,,,,,,,,,,,,,,,,ピク　セル　ドキ　ピポ,セル　ピク　ドキ　ピポ,1
,,,,,,,,,R_vwMAKJs09SZIREd,2022-06-29_14h44.02.679,jpn_C01,2022.1.2,Win32,47.5737393,,,,,,,,,,,,,CartoonStims/artist_point_burglar_r_no.jpg,,,,,,,,,,,,,,,,,,,,,,,,,,,,,,,,,,,,ピク　シド　ルピン,right,18.329,,,,,,0,9,9,6,1,,,,,,,,,,,,,,,,,,,,,,,,,ピク　トマ　シド　ルピン,トマ　ピク　シド　ルピン,1
,,,,,,,,,R_vwMAKJs09SZIREd,2022-06-29_14h44.02.679,jpn_C01,2022.1.2,Win32,47.5737393,,,,,,,,,,,,,CartoonStims/artist_punch_burglar_r.jpg,,,,,,,,,,,,,,,,,,,,,,,,,,,,,,,,,,,,シド　ルピン,right,18.3346,,,,,,0,10,10,33,1,,,,,,,,,,,,,,,,,,,,,,,,,プミ　シド　ルピン,プミ　シド　ルピン,0
,,,,,,,,,R_vwMAKJs09SZIREd,2022-06-29_14h44.02.679,jpn_C01,2022.1.2,Win32,47.5737393,,,,,,,,,,,,,CartoonStims/doctor_punch_boxer_r.jpg,,,,,,,,,,,,,,,,,,,,,,,,,,,,,,,,,,,,ピポ　ドキ,right,15.7042,,,,,,0,11,11,34,1,,,,,,,,,,,,,,,,,,,,,,,,,プミ　ピポ　ドキ,プミ　ピポ　ドキ,0
,,,,,,,,,R_vwMAKJs09SZIREd,2022-06-29_14h44.02.679,jpn_C01,2022.1.2,Win32,47.5737393,,,,,,,,,,,,,CartoonStims/doctor_kick_cowboy_r_no.jpg,,,,,,,,,,,,,,,,,,,,,,,,,,,,,,,,,,,,ピク　セル　ピポ　シド,right,26.4469,,,,,,0,12,12,4,1,,,,,,,,,,,,,,,,,,,,,,,,,ピク　セル　ピポ　ムク,セル　ピク　ピポ　ムク,1
,,,,,,,,,R_vwMAKJs09SZIREd,2022-06-29_14h44.02.679,jpn_C01,2022.1.2,Win32,47.5737393,,,,,,,,,,,,,CartoonStims/doctor_point_boxer_r_no.jpg,,,,,,,,,,,,,,,,,,,,,,,,,,,,,,,,,,,,ピ歩,right,4.6101,,,,,,0,13,13,10,1,,,,,,,,,,,,,,,,,,,,,,,,,ピク　トマ　ピポ　ドキ,トマ　ピク　ピポ　ドキ,1
,,,,,,,,,R_vwMAKJs09SZIREd,2022-06-29_14h44.02.679,jpn_C01,2022.1.2,Win32,47.5737393,,,,,,,,,,,,,CartoonStims/burglar_shoot_cowboy_r_no.jpg,,,,,,,,,,,,,,,,,,,,,,,,,,,,,,,,,,,,ピク　パツ　ルピン　ホセ　,right,31.1581,,,,,,0,14,14,13,1,,,,,,,,,,,,,,,,,,,,,,,,,ピク　パツ　ルピン　ムク,パツ　ピク　ルピン　ムク,1
,,,,,,,,,R_vwMAKJs09SZIREd,2022-06-29_14h44.02.679,jpn_C01,2022.1.2,Win32,47.5737393,,,,,,,,,,,,,CartoonStims/doctor_punch_burglar_r_no.jpg,,,,,,,,,,,,,,,,,,,,,,,,,,,,,,,,,,,,,right,6.5526,,,,,,0,15,15,22,1,,,,,,,,,,,,,,,,,,,,,,,,,ピク　プミ　ピポ　ルピン,プミ　ピク　ピポ　ルピン,1
,,,,,,,,,R_vwMAKJs09SZIREd,2022-06-29_14h44.02.679,jpn_C01,2022.1.2,Win32,47.5737393,,,,,,,,,,,,,CartoonStims/burglar_shoot_chef_r.jpg,,,,,,,,,,,,,,,,,,,,,,,,,,,,,,,,,,,,ピク　パツ　ルピン　ホルト,right,42.0399,,,,,,0,16,16,30,1,,,,,,,,,,,,,,,,,,,,,,,,,パツ　ルピン　ホレト,パツ　ルピン　ホレト,0
,,,,,,,,,R_vwMAKJs09SZIREd,2022-06-29_14h44.02.679,jpn_C01,2022.1.2,Win32,47.5737393,,,,,,,,,,,,,CartoonStims/doctor_shoot_artist_r_no.jpg,,,,,,,,,,,,,,,,,,,,,,,,,,,,,,,,,,,,ピク　パツ　ピポ　,right,19.1771,,,,,,0,17,17,16,1,,,,,,,,,,,,,,,,,,,,,,,,,ピク　パツ　ピポ　シド,パツ　ピク　ピポ　シド,1
,,,,,,,,,R_vwMAKJs09SZIREd,2022-06-29_14h44.02.679,jpn_C01,2022.1.2,Win32,47.5737393,,,,,,,,,,,,,CartoonStims/chef_shoot_doctor_r_no.jpg,,,,,,,,,,,,,,,,,,,,,,,,,,,,,,,,,,,,ピク　パツ　ホルト　ピ歩,right,15.375,,,,,,0,18,18,14,1,,,,,,,,,,,,,,,,,,,,,,,,,ピク　パツ　ホレト　ピポ,パツ　ピク　ホレト　ピポ,1
,,,,,,,,,R_vwMAKJs09SZIREd,2022-06-29_14h44.02.679,jpn_C01,2022.1.2,Win32,47.5737393,,,,,,,,,,,,,CartoonStims/cowboy_kick_burglar_r.jpg,,,,,,,,,,,,,,,,,,,,,,,,,,,,,,,,,,,,ピク　セル　サル　ルピン,right,35.5611,,,,,,0,19,19,24,1,,,,,,,,,,,,,,,,,,,,,,,,,セル　ムク　ルピン,セル　ムク　ルピン,0
,,,,,,,,,R_vwMAKJs09SZIREd,2022-06-29_14h44.02.679,jpn_C01,2022.1.2,Win32,47.5737393,,,,,,,,,,,,,CartoonStims/artist_kick_boxer_r_no.jpg,,,,,,,,,,,,,,,,,,,,,,,,,,,,,,,,,,,,ピク　セル　シド　,right,13.2741,,,,,,0,20,20,0,1,,,,,,,,,,,,,,,,,,,,,,,,,ピク　セル　シド　ドキ,セル　ピク　シド　ドキ,1
,,,,,,,,,R_vwMAKJs09SZIREd,2022-06-29_14h44.02.679,jpn_C01,2022.1.2,Win32,47.5737393,,,,,,,,,,,,,CartoonStims/boxer_point_artist_r_no.jpg,,,,,,,,,,,,,,,,,,,,,,,,,,,,,,,,,,,,ピク　ドキ　シド,right,16.3375,,,,,,0,21,21,11,1,,,,,,,,,,,,,,,,,,,,,,,,,ピク　トマ　ドキ　シド,トマ　ピク　ドキ　シド,1
,,,,,,,,,R_vwMAKJs09SZIREd,2022-06-29_14h44.02.679,jpn_C01,2022.1.2,Win32,47.5737393,,,,,,,,,,,,,CartoonStims/chef_point_burglar_r.jpg,,,,,,,,,,,,,,,,,,,,,,,,,,,,,,,,,,,,ホルト　ルピン,right,15.0731,,,,,,0,22,22,29,1,,,,,,,,,,,,,,,,,,,,,,,,,トマ　ホレト　ルピン,トマ　ホレト　ルピン,0
,,,,,,,,,R_vwMAKJs09SZIREd,2022-06-29_14h44.02.679,jpn_C01,2022.1.2,Win32,47.5737393,,,,,,,,,,,,,CartoonStims/doctor_kick_chef_r.jpg,,,,,,,,,,,,,,,,,,,,,,,,,,,,,,,,,,,,ピ歩,right,11.1719,,,,,,0,23,23,25,1,,,,,,,,,,,,,,,,,,,,,,,,,セル　ピポ　ホレト,セル　ピポ　ホレト,0
,,,,,,,,,R_vwMAKJs09SZIREd,2022-06-29_14h44.02.679,jpn_C01,2022.1.2,Win32,47.5737393,,,,,,,,,,,,,CartoonStims/artist_shoot_chef_r_no.jpg,,,,,,,,,,,,,,,,,,,,,,,,,,,,,,,,,,,,ピク　パツ　シド　ホルト,right,19.6865,,,,,,0,24,24,12,1,,,,,,,,,,,,,,,,,,,,,,,,,ピク　パツ　シド　ホレト,パツ　ピク　シド　ホレト,1
,,,,,,,,,R_vwMAKJs09SZIREd,2022-06-29_14h44.02.679,jpn_C01,2022.1.2,Win32,47.5737393,,,,,,,,,,,,,CartoonStims/artist_point_boxer_r.jpg,,,,,,,,,,,,,,,,,,,,,,,,,,,,,,,,,,,,シド　ドキ,right,16.0517,,,,,,0,25,25,27,1,,,,,,,,,,,,,,,,,,,,,,,,,トマ　シド　ドキ,トマ　シド　ドキ,0
,,,,,,,,,R_vwMAKJs09SZIREd,2022-06-29_14h44.02.679,jpn_C01,2022.1.2,Win32,47.5737393,,,,,,,,,,,,,CartoonStims/cowboy_shoot_boxer_r_no.jpg,,,,,,,,,,,,,,,,,,,,,,,,,,,,,,,,,,,,ピク　パツ　サル　ドキ,right,14.4772,,,,,,0,26,26,15,1,,,,,,,,,,,,,,,,,,,,,,,,,ピク　パツ　ムク　ドキ,パツ　ピク　ムク　ドキ,1
,,,,,,,,,R_vwMAKJs09SZIREd,2022-06-29_14h44.02.679,jpn_C01,2022.1.2,Win32,47.5737393,,,,,,,,,,,,,CartoonStims/boxer_kick_cowboy_r.jpg,,,,,,,,,,,,,,,,,,,,,,,,,,,,,,,,,,,,セル　ドキ　サル,right,10.7335,,,,,,0,27,27,26,1,,,,,,,,,,,,,,,,,,,,,,,,,セル　ドキ　ムク,セル　ドキ　ムク,0
,,,,,,,,,R_vwMAKJs09SZIREd,2022-06-29_14h44.02.679,jpn_C01,2022.1.2,Win32,47.5737393,,,,,,,,,,,,,CartoonStims/boxer_shoot_burglar_r_no.jpg,,,,,,,,,,,,,,,,,,,,,,,,,,,,,,,,,,,,ピク　パツ　ドキ　ルピン,right,15.1151,,,,,,0,28,28,17,1,,,,,,,,,,,,,,,,,,,,,,,,,ピク　パツ　ドキ　ルピン,パツ　ピク　ドキ　ルピン,1
,,,,,,,,,R_vwMAKJs09SZIREd,2022-06-29_14h44.02.679,jpn_C01,2022.1.2,Win32,47.5737393,,,,,,,,,,,,,CartoonStims/boxer_punch_artist_r.jpg,,,,,,,,,,,,,,,,,,,,,,,,,,,,,,,,,,,,ドキ　シド,right,18.8753,,,,,,0,29,29,35,1,,,,,,,,,,,,,,,,,,,,,,,,,プミ　ドキ　シド,プミ　ドキ　シド,0
,,,,,,,,,R_vwMAKJs09SZIREd,2022-06-29_14h44.02.679,jpn_C01,2022.1.2,Win32,47.5737393,,,,,,,,,,,,,CartoonStims/cowboy_shoot_doctor_r.jpg,,,,,,,,,,,,,,,,,,,,,,,,,,,,,,,,,,,,パツ　サル,right,8.8587,,,,,,0,30,30,32,1,,,,,,,,,,,,,,,,,,,,,,,,,パツ　ムク　ピポ,パツ　ムク　ピポ,0
,,,,,,,,,R_vwMAKJs09SZIREd,2022-06-29_14h44.02.679,jpn_C01,2022.1.2,Win32,47.5737393,,,,,,,,,,,,,CartoonStims/burglar_punch_doctor_r_no.jpg,,,,,,,,,,,,,,,,,,,,,,,,,,,,,,,,,,,,,right,0.0036,,,,,,0,31,31,19,1,,,,,,,,,,,,,,,,,,,,,,,,,ピク　プミ　ルピン　ピポ,プミ　ピク　ルピン　ピポ,1
,,,,,,,,,R_vwMAKJs09SZIREd,2022-06-29_14h44.02.679,jpn_C01,2022.1.2,Win32,47.5737393,,,,,,,,,,,,,CartoonStims/burglar_point_artist_r.jpg,,,,,,,,,,,,,,,,,,,,,,,,,,,,,,,,,,,,ルピン　シド,right,18.8476,,,,,,0,32,32,28,1,,,,,,,,,,,,,,,,,,,,,,,,,トマ　ルピン　シド,トマ　ルピン　シド,0
,,,,,,,,,R_vwMAKJs09SZIREd,2022-06-29_14h44.02.679,jpn_C01,2022.1.2,Win32,47.5737393,,,,,,,,,,,,,CartoonStims/burglar_point_chef_r_no.jpg,,,,,,,,,,,,,,,,,,,,,,,,,,,,,,,,,,,,ピク　ルピン　ホルト,right,40.9653,,,,,,0,33,33,7,1,,,,,,,,,,,,,,,,,,,,,,,,,ピク　トマ　ルピン　ホレト,トマ　ピク　ルピン　ホレト,1
,,,,,,,,,R_vwMAKJs09SZIREd,2022-06-29_14h44.02.679,jpn_C01,2022.1.2,Win32,47.5737393,,,,,,,,,,,,,CartoonStims/chef_punch_boxer_r_no.jpg,,,,,,,,,,,,,,,,,,,,,,,,,,,,,,,,,,,,ピク　ホルト　ドキ,right,15.2042,,,,,,0,34,34,20,1,,,,,,,,,,,,,,,,,,,,,,,,,ピク　プミ　ホレト　ドキ,プミ　ピク　ホレト　ドキ,1
,,,,,,,,,R_vwMAKJs09SZIREd,2022-06-29_14h44.02.679,jpn_C01,2022.1.2,Win32,47.5737393,,,,,,,,,,,,,CartoonStims/chef_shoot_cowboy_r.jpg,,,,,,,,,,,,,,,,,,,,,,,,,,,,,,,,,,,,パツ　ホルト　サル,right,19.8445,,,,,,0,35,35,31,1,,,,,,,,,,,,,,,,,,,,,,,,,パツ　ホレト　ムク,パツ　ホレト　ムク,0
,,,,,,,,,R_vwMAKJs09SZIREd,2022-06-29_14h44.02.679,jpn_C01,2022.1.2,Win32,47.5737393,,,,,,,,,,,,,,,,,,,,,,,,,,,,,,,,,,,,,,,,,,,,,,,,,,,,,,,,,,,,,,,,space,0.5836,0,2,2,2,1,EquiprobableCondition.xlsx,"ここではこの言語における否定の文を学習していただきます。引き続き注意して、 聞こえた音を復唱してください。

スペースキーを押してください。",1,EquiFCT.xlsx,ここからクイズが始まります。 スクリーンに表示されるテキストに合うイメージを選んでください。,NegTest.xlsx,1,最後にここまで学んだことをアウトプットしていただきます。 テキストボックスにあるイメージを描写するテキストを入力してください。 このタスクでは、 答え合わせは行いません。,0,これですべての実験が終わりました。 お疲れさまです。 この後はアンケートに答えていただきます。,,,,,,,,