key_resp_instr_a.keys,key_resp_instr_a.rt,key_resp_instr_b.keys,key_resp_instr_b.rt,dummy.thisRepN,dummy.thisTrialN,dummy.thisN,dummy.thisIndex,dummy.ran,participant,date,expName,psychopyVersion,OS,frameRate,key_resp_instr1.keys,key_resp_instr1.rt,key_resp.keys,key_resp.rt,exp_loop.thisRepN,exp_loop.thisTrialN,exp_loop.thisN,exp_loop.thisIndex,exp_loop.ran,Word,English,Flip,Path,Audio,key_resp_instr2.keys,key_resp_instr2.rt,key_resp_fct.keys,key_resp_fct.corr,key_resp_fct.rt,trials_2.thisRepN,trials_2.thisTrialN,trials_2.thisN,trials_2.thisIndex,trials_2.ran,fct_loop.thisRepN,fct_loop.thisTrialN,fct_loop.thisN,fct_loop.thisIndex,fct_loop.ran,left_img,word,right_img,correctans,correct_img,audio,incorrect_feedback,trials.thisRepN,trials.thisTrialN,trials.thisN,trials.thisIndex,trials.ran,key_resp_instr3.keys,key_resp_instr3.rt,textbox.text,key_resp_2.keys,key_resp_2.rt,fb_yn.thisRepN,fb_yn.thisTrialN,fb_yn.thisN,fb_yn.thisIndex,fb_yn.ran,gather_loop.thisRepN,gather_loop.thisTrialN,gather_loop.thisN,gather_loop.thisIndex,gather_loop.ran,Text,Wordbank,key_resp_instr4.keys,key_resp_instr4.rt,master_loop.thisRepN,master_loop.thisTrialN,master_loop.thisN,master_loop.thisIndex,master_loop.ran,exposure_file,instr_1,exp_reps,fct_file,instr_2,gather_file,gather_reps,instr_3,fReps,instr_4,trials_4.thisRepN,trials_4.thisTrialN,trials_4.thisN,trials_4.thisIndex,trials_4.ran,NegVSentence,VNegSentence,NegTF
space,1.7869,space,4.8047,0,0,0,0,1,R_1DVbzPwBhnmlrtJ,2022-09-05_16h38.36.164,jpn_C03,2022.1.2,MacIntel,60.0024001,,,,,,,,,,,,,,,,,,,,,,,,,,,,,,,,,,,,,,,,,,,,,,,,,,,,,,,,,,,,,,,,,,,,,,,,,,,,,,,,,,,
,,,,,,,,,R_1DVbzPwBhnmlrtJ,2022-09-05_16h38.36.164,jpn_C03,2022.1.2,MacIntel,60.0024001,space,5.0735,space,5.1845,0,0,0,1,1,ルピン,burglar,,CartoonStims/burglar_r.jpg,audio/lupin.mp3,,,,,,,,,,,,,,,,,,,,,,,,,,,,,,,,,,,,,,,,,,,,,,,,,,,,,,,,,,,,,,,,,,,,,
,,,,,,,,,R_1DVbzPwBhnmlrtJ,2022-09-05_16h38.36.164,jpn_C03,2022.1.2,MacIntel,60.0024001,,,space,1.8399,0,1,1,4,1,ピポ,doctor,,CartoonStims/doctor_r.jpg,audio/pipo.mp3,,,,,,,,,,,,,,,,,,,,,,,,,,,,,,,,,,,,,,,,,,,,,,,,,,,,,,,,,,,,,,,,,,,,,
,,,,,,,,,R_1DVbzPwBhnmlrtJ,2022-09-05_16h38.36.164,jpn_C03,2022.1.2,MacIntel,60.0024001,,,space,1.2423,0,2,2,2,1,ホレト,chef,,CartoonStims/chef_r.jpg,audio/horeto.mp3,,,,,,,,,,,,,,,,,,,,,,,,,,,,,,,,,,,,,,,,,,,,,,,,,,,,,,,,,,,,,,,,,,,,,
,,,,,,,,,R_1DVbzPwBhnmlrtJ,2022-09-05_16h38.36.164,jpn_C03,2022.1.2,MacIntel,60.0024001,,,space,4.2917,0,3,3,5,1,ドキ,boxer,,CartoonStims/boxer_r.jpg,audio/doki.mp3,,,,,,,,,,,,,,,,,,,,,,,,,,,,,,,,,,,,,,,,,,,,,,,,,,,,,,,,,,,,,,,,,,,,,
,,,,,,,,,R_1DVbzPwBhnmlrtJ,2022-09-05_16h38.36.164,jpn_C03,2022.1.2,MacIntel,60.0024001,,,space,2.9881,0,4,4,0,1,シド,artist,,CartoonStims/artist_r.jpg,audio/sido.mp3,,,,,,,,,,,,,,,,,,,,,,,,,,,,,,,,,,,,,,,,,,,,,,,,,,,,,,,,,,,,,,,,,,,,,
,,,,,,,,,R_1DVbzPwBhnmlrtJ,2022-09-05_16h38.36.164,jpn_C03,2022.1.2,MacIntel,60.0024001,,,space,1.5227,0,5,5,3,1,ムク,cowboy,,CartoonStims/cowboy_r.jpg,audio/muku.mp3,,,,,,,,,,,,,,,,,,,,,,,,,,,,,,,,,,,,,,,,,,,,,,,,,,,,,,,,,,,,,,,,,,,,,
,,,,,,,,,R_1DVbzPwBhnmlrtJ,2022-09-05_16h38.36.164,jpn_C03,2022.1.2,MacIntel,60.0024001,,,space,5.1598,1,0,6,5,1,ドキ,boxer,,CartoonStims/boxer_r.jpg,audio/doki.mp3,,,,,,,,,,,,,,,,,,,,,,,,,,,,,,,,,,,,,,,,,,,,,,,,,,,,,,,,,,,,,,,,,,,,,
,,,,,,,,,R_1DVbzPwBhnmlrtJ,2022-09-05_16h38.36.164,jpn_C03,2022.1.2,MacIntel,60.0024001,,,space,0.8514,1,1,7,1,1,ルピン,burglar,,CartoonStims/burglar_r.jpg,audio/lupin.mp3,,,,,,,,,,,,,,,,,,,,,,,,,,,,,,,,,,,,,,,,,,,,,,,,,,,,,,,,,,,,,,,,,,,,,
,,,,,,,,,R_1DVbzPwBhnmlrtJ,2022-09-05_16h38.36.164,jpn_C03,2022.1.2,MacIntel,60.0024001,,,space,1.6033,1,2,8,4,1,ピポ,doctor,,CartoonStims/doctor_r.jpg,audio/pipo.mp3,,,,,,,,,,,,,,,,,,,,,,,,,,,,,,,,,,,,,,,,,,,,,,,,,,,,,,,,,,,,,,,,,,,,,
,,,,,,,,,R_1DVbzPwBhnmlrtJ,2022-09-05_16h38.36.164,jpn_C03,2022.1.2,MacIntel,60.0024001,,,space,0.9286,1,3,9,3,1,ムク,cowboy,,CartoonStims/cowboy_r.jpg,audio/muku.mp3,,,,,,,,,,,,,,,,,,,,,,,,,,,,,,,,,,,,,,,,,,,,,,,,,,,,,,,,,,,,,,,,,,,,,
,,,,,,,,,R_1DVbzPwBhnmlrtJ,2022-09-05_16h38.36.164,jpn_C03,2022.1.2,MacIntel,60.0024001,,,space,1.1045,1,4,10,0,1,シド,artist,,CartoonStims/artist_r.jpg,audio/sido.mp3,,,,,,,,,,,,,,,,,,,,,,,,,,,,,,,,,,,,,,,,,,,,,,,,,,,,,,,,,,,,,,,,,,,,,
,,,,,,,,,R_1DVbzPwBhnmlrtJ,2022-09-05_16h38.36.164,jpn_C03,2022.1.2,MacIntel,60.0024001,,,space,2.8661,1,5,11,2,1,ホレト,chef,,CartoonStims/chef_r.jpg,audio/horeto.mp3,,,,,,,,,,,,,,,,,,,,,,,,,,,,,,,,,,,,,,,,,,,,,,,,,,,,,,,,,,,,,,,,,,,,,
,,,,,,,,,R_1DVbzPwBhnmlrtJ,2022-09-05_16h38.36.164,jpn_C03,2022.1.2,MacIntel,60.0024001,,,space,1.2378,2,0,12,4,1,ピポ,doctor,,CartoonStims/doctor_r.jpg,audio/pipo.mp3,,,,,,,,,,,,,,,,,,,,,,,,,,,,,,,,,,,,,,,,,,,,,,,,,,,,,,,,,,,,,,,,,,,,,
,,,,,,,,,R_1DVbzPwBhnmlrtJ,2022-09-05_16h38.36.164,jpn_C03,2022.1.2,MacIntel,60.0024001,,,space,1.7535,2,1,13,5,1,ドキ,boxer,,CartoonStims/boxer_r.jpg,audio/doki.mp3,,,,,,,,,,,,,,,,,,,,,,,,,,,,,,,,,,,,,,,,,,,,,,,,,,,,,,,,,,,,,,,,,,,,,
,,,,,,,,,R_1DVbzPwBhnmlrtJ,2022-09-05_16h38.36.164,jpn_C03,2022.1.2,MacIntel,60.0024001,,,space,4.304,2,2,14,3,1,ムク,cowboy,,CartoonStims/cowboy_r.jpg,audio/muku.mp3,,,,,,,,,,,,,,,,,,,,,,,,,,,,,,,,,,,,,,,,,,,,,,,,,,,,,,,,,,,,,,,,,,,,,
,,,,,,,,,R_1DVbzPwBhnmlrtJ,2022-09-05_16h38.36.164,jpn_C03,2022.1.2,MacIntel,60.0024001,,,space,2.5752,2,3,15,2,1,ホレト,chef,,CartoonStims/chef_r.jpg,audio/horeto.mp3,,,,,,,,,,,,,,,,,,,,,,,,,,,,,,,,,,,,,,,,,,,,,,,,,,,,,,,,,,,,,,,,,,,,,
,,,,,,,,,R_1DVbzPwBhnmlrtJ,2022-09-05_16h38.36.164,jpn_C03,2022.1.2,MacIntel,60.0024001,,,space,0.887,2,4,16,0,1,シド,artist,,CartoonStims/artist_r.jpg,audio/sido.mp3,,,,,,,,,,,,,,,,,,,,,,,,,,,,,,,,,,,,,,,,,,,,,,,,,,,,,,,,,,,,,,,,,,,,,
,,,,,,,,,R_1DVbzPwBhnmlrtJ,2022-09-05_16h38.36.164,jpn_C03,2022.1.2,MacIntel,60.0024001,,,space,0.575,2,5,17,1,1,ルピン,burglar,,CartoonStims/burglar_r.jpg,audio/lupin.mp3,,,,,,,,,,,,,,,,,,,,,,,,,,,,,,,,,,,,,,,,,,,,,,,,,,,,,,,,,,,,,,,,,,,,,
,,,,,,,,,R_1DVbzPwBhnmlrtJ,2022-09-05_16h38.36.164,jpn_C03,2022.1.2,MacIntel,60.0024001,,,,,,,,,,,,,,,space,0.8368,right,1,0.9066,0,0,0,0,1,,,,,,,,,,,,,,,,,,,,,,,,,,,,,,,,,,,,,,,,,,,,,,,,,,,,,,,,,,,
,,,,,,,,,R_1DVbzPwBhnmlrtJ,2022-09-05_16h38.36.164,jpn_C03,2022.1.2,MacIntel,60.0024001,,,,,,,,,,,,,,,,,,,,,,,,,0,0,0,9,1,CartoonStims/boxer_r.jpg,ムク,CartoonStims/cowboy_r.jpg,right,CartoonStims/cowboy_r.jpg,audio/muku.mp3,残念！ こちらが正しい画像です。,,,,,,,,,,,,,,,,,,,,,,,,,,,,,,,,,,,,,,,,,,,,,,,
,,,,,,,,,R_1DVbzPwBhnmlrtJ,2022-09-05_16h38.36.164,jpn_C03,2022.1.2,MacIntel,60.0024001,,,,,,,,,,,,,,,,,right,1,1.0211,0,0,0,0,1,,,,,,,,,,,,,,,,,,,,,,,,,,,,,,,,,,,,,,,,,,,,,,,,,,,,,,,,,,,
,,,,,,,,,R_1DVbzPwBhnmlrtJ,2022-09-05_16h38.36.164,jpn_C03,2022.1.2,MacIntel,60.0024001,,,,,,,,,,,,,,,,,,,,,,,,,0,1,1,10,1,CartoonStims/artist_r.jpg,ピポ,CartoonStims/doctor_r.jpg,right,CartoonStims/doctor_r.jpg,audio/pipo.mp3,残念！ こちらが正しい画像です。,,,,,,,,,,,,,,,,,,,,,,,,,,,,,,,,,,,,,,,,,,,,,,,
,,,,,,,,,R_1DVbzPwBhnmlrtJ,2022-09-05_16h38.36.164,jpn_C03,2022.1.2,MacIntel,60.0024001,,,,,,,,,,,,,,,,,right,1,0.9691,0,0,0,0,1,,,,,,,,,,,,,,,,,,,,,,,,,,,,,,,,,,,,,,,,,,,,,,,,,,,,,,,,,,,
,,,,,,,,,R_1DVbzPwBhnmlrtJ,2022-09-05_16h38.36.164,jpn_C03,2022.1.2,MacIntel,60.0024001,,,,,,,,,,,,,,,,,,,,,,,,,0,2,2,11,1,CartoonStims/burglar_r.jpg,ドキ,CartoonStims/boxer_r.jpg,right,CartoonStims/boxer_r.jpg,audio/doki.mp3,残念！ こちらが正しい画像です。,,,,,,,,,,,,,,,,,,,,,,,,,,,,,,,,,,,,,,,,,,,,,,,
,,,,,,,,,R_1DVbzPwBhnmlrtJ,2022-09-05_16h38.36.164,jpn_C03,2022.1.2,MacIntel,60.0024001,,,,,,,,,,,,,,,,,left,1,0.7874,,,,,,,,,,,,,,,,,,0,0,0,0,1,,,,,,,,,,,,,,,,,,,,,,,,,,,,,,,,,,,,,,,,,,
,,,,,,,,,R_1DVbzPwBhnmlrtJ,2022-09-05_16h38.36.164,jpn_C03,2022.1.2,MacIntel,60.0024001,,,,,,,,,,,,,,,,,,,,,,,,,0,3,3,4,1,CartoonStims/doctor_r.jpg,ピポ,CartoonStims/boxer_r.jpg,left,CartoonStims/doctor_r.jpg,audio/pipo.mp3,残念！ こちらが正しい画像です。,,,,,,,,,,,,,,,,,,,,,,,,,,,,,,,,,,,,,,,,,,,,,,,
,,,,,,,,,R_1DVbzPwBhnmlrtJ,2022-09-05_16h38.36.164,jpn_C03,2022.1.2,MacIntel,60.0024001,,,,,,,,,,,,,,,,,left,1,1.5354,,,,,,,,,,,,,,,,,,0,0,0,0,1,,,,,,,,,,,,,,,,,,,,,,,,,,,,,,,,,,,,,,,,,,
,,,,,,,,,R_1DVbzPwBhnmlrtJ,2022-09-05_16h38.36.164,jpn_C03,2022.1.2,MacIntel,60.0024001,,,,,,,,,,,,,,,,,,,,,,,,,0,4,4,2,1,CartoonStims/chef_r.jpg,ホレト,CartoonStims/cowboy_r.jpg,left,CartoonStims/chef_r.jpg,audio/horeto.mp3,残念！ こちらが正しい画像です。,,,,,,,,,,,,,,,,,,,,,,,,,,,,,,,,,,,,,,,,,,,,,,,
,,,,,,,,,R_1DVbzPwBhnmlrtJ,2022-09-05_16h38.36.164,jpn_C03,2022.1.2,MacIntel,60.0024001,,,,,,,,,,,,,,,,,left,1,0.4211,,,,,,,,,,,,,,,,,,0,0,0,0,1,,,,,,,,,,,,,,,,,,,,,,,,,,,,,,,,,,,,,,,,,,
,,,,,,,,,R_1DVbzPwBhnmlrtJ,2022-09-05_16h38.36.164,jpn_C03,2022.1.2,MacIntel,60.0024001,,,,,,,,,,,,,,,,,,,,,,,,,0,5,5,5,1,CartoonStims/boxer_r.jpg,ドキ,CartoonStims/artist_r.jpg,left,CartoonStims/boxer_r.jpg,audio/doki.mp3,残念！ こちらが正しい画像です。,,,,,,,,,,,,,,,,,,,,,,,,,,,,,,,,,,,,,,,,,,,,,,,
,,,,,,,,,R_1DVbzPwBhnmlrtJ,2022-09-05_16h38.36.164,jpn_C03,2022.1.2,MacIntel,60.0024001,,,,,,,,,,,,,,,,,right,1,0.6186,0,0,0,0,1,,,,,,,,,,,,,,,,,,,,,,,,,,,,,,,,,,,,,,,,,,,,,,,,,,,,,,,,,,,
,,,,,,,,,R_1DVbzPwBhnmlrtJ,2022-09-05_16h38.36.164,jpn_C03,2022.1.2,MacIntel,60.0024001,,,,,,,,,,,,,,,,,,,,,,,,,0,6,6,8,1,CartoonStims/doctor_r.jpg,ホレト,CartoonStims/chef_r.jpg,right,CartoonStims/chef_r.jpg,audio/horeto.mp3,残念！ こちらが正しい画像です。,,,,,,,,,,,,,,,,,,,,,,,,,,,,,,,,,,,,,,,,,,,,,,,
,,,,,,,,,R_1DVbzPwBhnmlrtJ,2022-09-05_16h38.36.164,jpn_C03,2022.1.2,MacIntel,60.0024001,,,,,,,,,,,,,,,,,right,1,1.6752,0,0,0,0,1,,,,,,,,,,,,,,,,,,,,,,,,,,,,,,,,,,,,,,,,,,,,,,,,,,,,,,,,,,,
,,,,,,,,,R_1DVbzPwBhnmlrtJ,2022-09-05_16h38.36.164,jpn_C03,2022.1.2,MacIntel,60.0024001,,,,,,,,,,,,,,,,,,,,,,,,,0,7,7,6,1,CartoonStims/chef_r.jpg,シド,CartoonStims/artist_r.jpg,right,CartoonStims/artist_r.jpg,audio/sido.mp3,残念！ こちらが正しい画像です。,,,,,,,,,,,,,,,,,,,,,,,,,,,,,,,,,,,,,,,,,,,,,,,
,,,,,,,,,R_1DVbzPwBhnmlrtJ,2022-09-05_16h38.36.164,jpn_C03,2022.1.2,MacIntel,60.0024001,,,,,,,,,,,,,,,,,left,1,2.0877,,,,,,,,,,,,,,,,,,0,0,0,0,1,,,,,,,,,,,,,,,,,,,,,,,,,,,,,,,,,,,,,,,,,,
,,,,,,,,,R_1DVbzPwBhnmlrtJ,2022-09-05_16h38.36.164,jpn_C03,2022.1.2,MacIntel,60.0024001,,,,,,,,,,,,,,,,,,,,,,,,,0,8,8,3,1,CartoonStims/cowboy_r.jpg,ムク,CartoonStims/doctor_r.jpg,left,CartoonStims/cowboy_r.jpg,audio/muku.mp3,残念！ こちらが正しい画像です。,,,,,,,,,,,,,,,,,,,,,,,,,,,,,,,,,,,,,,,,,,,,,,,
,,,,,,,,,R_1DVbzPwBhnmlrtJ,2022-09-05_16h38.36.164,jpn_C03,2022.1.2,MacIntel,60.0024001,,,,,,,,,,,,,,,,,left,1,1.1718,,,,,,,,,,,,,,,,,,0,0,0,0,1,,,,,,,,,,,,,,,,,,,,,,,,,,,,,,,,,,,,,,,,,,
,,,,,,,,,R_1DVbzPwBhnmlrtJ,2022-09-05_16h38.36.164,jpn_C03,2022.1.2,MacIntel,60.0024001,,,,,,,,,,,,,,,,,,,,,,,,,0,9,9,0,1,CartoonStims/artist_r.jpg,シド,CartoonStims/burglar_r.jpg,left,CartoonStims/artist_r.jpg,audio/sido.mp3,残念！ こちらが正しい画像です。,,,,,,,,,,,,,,,,,,,,,,,,,,,,,,,,,,,,,,,,,,,,,,,
,,,,,,,,,R_1DVbzPwBhnmlrtJ,2022-09-05_16h38.36.164,jpn_C03,2022.1.2,MacIntel,60.0024001,,,,,,,,,,,,,,,,,left,1,0.3046,,,,,,,,,,,,,,,,,,0,0,0,0,1,,,,,,,,,,,,,,,,,,,,,,,,,,,,,,,,,,,,,,,,,,
,,,,,,,,,R_1DVbzPwBhnmlrtJ,2022-09-05_16h38.36.164,jpn_C03,2022.1.2,MacIntel,60.0024001,,,,,,,,,,,,,,,,,,,,,,,,,0,10,10,1,1,CartoonStims/burglar_r.jpg,ルピン,CartoonStims/chef_r.jpg,left,CartoonStims/burglar_r.jpg,audio/lupin.mp3,残念！ こちらが正しい画像です。,,,,,,,,,,,,,,,,,,,,,,,,,,,,,,,,,,,,,,,,,,,,,,,
,,,,,,,,,R_1DVbzPwBhnmlrtJ,2022-09-05_16h38.36.164,jpn_C03,2022.1.2,MacIntel,60.0024001,,,,,,,,,,,,,,,,,right,1,0.6878,0,0,0,0,1,,,,,,,,,,,,,,,,,,,,,,,,,,,,,,,,,,,,,,,,,,,,,,,,,,,,,,,,,,,
,,,,,,,,,R_1DVbzPwBhnmlrtJ,2022-09-05_16h38.36.164,jpn_C03,2022.1.2,MacIntel,60.0024001,,,,,,,,,,,,,,,,,,,,,,,,,0,11,11,7,1,CartoonStims/cowboy_r.jpg,ルピン,CartoonStims/burglar_r.jpg,right,CartoonStims/burglar_r.jpg,audio/lupin.mp3,残念！ こちらが正しい画像です。,,,,,,,,,,,,,,,,,,,,,,,,,,,,,,,,,,,,,,,,,,,,,,,
,,,,,,,,,R_1DVbzPwBhnmlrtJ,2022-09-05_16h38.36.164,jpn_C03,2022.1.2,MacIntel,60.0024001,,,,,,,,,,,,,,,,,,,,,,,,,,,,,,,,,,,,,,,,,,space,2.8771,ドキ,right,5.3393,0,0,0,0,1,,,,,,,,,,,,,,,,,,,,,,,,,,,,,,,,
,,,,,,,,,R_1DVbzPwBhnmlrtJ,2022-09-05_16h38.36.164,jpn_C03,2022.1.2,MacIntel,60.0024001,,,,,,,,,,,,,CartoonStims/boxer_r.jpg,audio/doki.mp3,,,,,,,,,,,,,,,,,,,,,,,,,,,,,,,,,,,,,,0,0,0,5,1,ドキ,,,,,,,,,,,,,,,,,,,,,,,,,,
,,,,,,,,,R_1DVbzPwBhnmlrtJ,2022-09-05_16h38.36.164,jpn_C03,2022.1.2,MacIntel,60.0024001,,,,,,,,,,,,,,,,,,,,,,,,,,,,,,,,,,,,,,,,,,,,ルピン,right,5.2352,0,0,0,0,1,,,,,,,,,,,,,,,,,,,,,,,,,,,,,,,,
,,,,,,,,,R_1DVbzPwBhnmlrtJ,2022-09-05_16h38.36.164,jpn_C03,2022.1.2,MacIntel,60.0024001,,,,,,,,,,,,,CartoonStims/burglar_r.jpg,audio/lupin.mp3,,,,,,,,,,,,,,,,,,,,,,,,,,,,,,,,,,,,,,0,1,1,1,1,ルピン,,,,,,,,,,,,,,,,,,,,,,,,,,
,,,,,,,,,R_1DVbzPwBhnmlrtJ,2022-09-05_16h38.36.164,jpn_C03,2022.1.2,MacIntel,60.0024001,,,,,,,,,,,,,,,,,,,,,,,,,,,,,,,,,,,,,,,,,,,,シボ,right,4.8133,0,0,0,0,1,,,,,,,,,,,,,,,,,,,,,,,,,,,,,,,,
,,,,,,,,,R_1DVbzPwBhnmlrtJ,2022-09-05_16h38.36.164,jpn_C03,2022.1.2,MacIntel,60.0024001,,,,,,,,,,,,,CartoonStims/artist_r.jpg,audio/sido.mp3,,,,,,,,,,,,,,,,,,,,,,,,,,,,,,,,,,,,,,0,2,2,0,1,シド,,,,,,,,,,,,,,,,,,,,,,,,,,
,,,,,,,,,R_1DVbzPwBhnmlrtJ,2022-09-05_16h38.36.164,jpn_C03,2022.1.2,MacIntel,60.0024001,,,,,,,,,,,,,,,,,,,,,,,,,,,,,,,,,,,,,,,,,,,,ピポ,right,3.3,0,0,0,0,1,,,,,,,,,,,,,,,,,,,,,,,,,,,,,,,,
,,,,,,,,,R_1DVbzPwBhnmlrtJ,2022-09-05_16h38.36.164,jpn_C03,2022.1.2,MacIntel,60.0024001,,,,,,,,,,,,,CartoonStims/doctor_r.jpg,audio/pipo.mp3,,,,,,,,,,,,,,,,,,,,,,,,,,,,,,,,,,,,,,0,3,3,4,1,ピポ,,,,,,,,,,,,,,,,,,,,,,,,,,
,,,,,,,,,R_1DVbzPwBhnmlrtJ,2022-09-05_16h38.36.164,jpn_C03,2022.1.2,MacIntel,60.0024001,,,,,,,,,,,,,,,,,,,,,,,,,,,,,,,,,,,,,,,,,,,,ムレト,right,8.2484,0,0,0,0,1,,,,,,,,,,,,,,,,,,,,,,,,,,,,,,,,
,,,,,,,,,R_1DVbzPwBhnmlrtJ,2022-09-05_16h38.36.164,jpn_C03,2022.1.2,MacIntel,60.0024001,,,,,,,,,,,,,CartoonStims/cowboy_r.jpg,audio/muku.mp3,,,,,,,,,,,,,,,,,,,,,,,,,,,,,,,,,,,,,,0,4,4,3,1,ムク,,,,,,,,,,,,,,,,,,,,,,,,,,
,,,,,,,,,R_1DVbzPwBhnmlrtJ,2022-09-05_16h38.36.164,jpn_C03,2022.1.2,MacIntel,60.0024001,,,,,,,,,,,,,,,,,,,,,,,,,,,,,,,,,,,,,,,,,,,,ホレト,right,10.5195,0,0,0,0,1,,,,,,,,,,,,,,,,,,,,,,,,,,,,,,,,
,,,,,,,,,R_1DVbzPwBhnmlrtJ,2022-09-05_16h38.36.164,jpn_C03,2022.1.2,MacIntel,60.0024001,,,,,,,,,,,,,CartoonStims/chef_r.jpg,audio/horeto.mp3,,,,,,,,,,,,,,,,,,,,,,,,,,,,,,,,,,,,,,0,5,5,2,1,ホレト,,,,,,,,,,,,,,,,,,,,,,,,,,
,,,,,,,,,R_1DVbzPwBhnmlrtJ,2022-09-05_16h38.36.164,jpn_C03,2022.1.2,MacIntel,60.0024001,,,,,,,,,,,,,,,,,,,,,,,,,,,,,,,,,,,,,,,,,,,,ピポ,right,2.7261,0,0,0,0,1,,,,,,,,,,,,,,,,,,,,,,,,,,,,,,,,
,,,,,,,,,R_1DVbzPwBhnmlrtJ,2022-09-05_16h38.36.164,jpn_C03,2022.1.2,MacIntel,60.0024001,,,,,,,,,,,,,CartoonStims/doctor_r.jpg,audio/pipo.mp3,,,,,,,,,,,,,,,,,,,,,,,,,,,,,,,,,,,,,,1,0,6,4,1,ピポ,,,,,,,,,,,,,,,,,,,,,,,,,,
,,,,,,,,,R_1DVbzPwBhnmlrtJ,2022-09-05_16h38.36.164,jpn_C03,2022.1.2,MacIntel,60.0024001,,,,,,,,,,,,,,,,,,,,,,,,,,,,,,,,,,,,,,,,,,,,ホレト,right,5.0103,0,0,0,0,1,,,,,,,,,,,,,,,,,,,,,,,,,,,,,,,,
,,,,,,,,,R_1DVbzPwBhnmlrtJ,2022-09-05_16h38.36.164,jpn_C03,2022.1.2,MacIntel,60.0024001,,,,,,,,,,,,,CartoonStims/chef_r.jpg,audio/horeto.mp3,,,,,,,,,,,,,,,,,,,,,,,,,,,,,,,,,,,,,,1,1,7,2,1,ホレト,,,,,,,,,,,,,,,,,,,,,,,,,,
,,,,,,,,,R_1DVbzPwBhnmlrtJ,2022-09-05_16h38.36.164,jpn_C03,2022.1.2,MacIntel,60.0024001,,,,,,,,,,,,,,,,,,,,,,,,,,,,,,,,,,,,,,,,,,,,シド,right,5.6103,0,0,0,0,1,,,,,,,,,,,,,,,,,,,,,,,,,,,,,,,,
,,,,,,,,,R_1DVbzPwBhnmlrtJ,2022-09-05_16h38.36.164,jpn_C03,2022.1.2,MacIntel,60.0024001,,,,,,,,,,,,,CartoonStims/artist_r.jpg,audio/sido.mp3,,,,,,,,,,,,,,,,,,,,,,,,,,,,,,,,,,,,,,1,2,8,0,1,シド,,,,,,,,,,,,,,,,,,,,,,,,,,
,,,,,,,,,R_1DVbzPwBhnmlrtJ,2022-09-05_16h38.36.164,jpn_C03,2022.1.2,MacIntel,60.0024001,,,,,,,,,,,,,,,,,,,,,,,,,,,,,,,,,,,,,,,,,,,,ドキ,right,1.993,0,0,0,0,1,,,,,,,,,,,,,,,,,,,,,,,,,,,,,,,,
,,,,,,,,,R_1DVbzPwBhnmlrtJ,2022-09-05_16h38.36.164,jpn_C03,2022.1.2,MacIntel,60.0024001,,,,,,,,,,,,,CartoonStims/boxer_r.jpg,audio/doki.mp3,,,,,,,,,,,,,,,,,,,,,,,,,,,,,,,,,,,,,,1,3,9,5,1,ドキ,,,,,,,,,,,,,,,,,,,,,,,,,,
,,,,,,,,,R_1DVbzPwBhnmlrtJ,2022-09-05_16h38.36.164,jpn_C03,2022.1.2,MacIntel,60.0024001,,,,,,,,,,,,,,,,,,,,,,,,,,,,,,,,,,,,,,,,,,,,ムク,right,5.9525,0,0,0,0,1,,,,,,,,,,,,,,,,,,,,,,,,,,,,,,,,
,,,,,,,,,R_1DVbzPwBhnmlrtJ,2022-09-05_16h38.36.164,jpn_C03,2022.1.2,MacIntel,60.0024001,,,,,,,,,,,,,CartoonStims/cowboy_r.jpg,audio/muku.mp3,,,,,,,,,,,,,,,,,,,,,,,,,,,,,,,,,,,,,,1,4,10,3,1,ムク,,,,,,,,,,,,,,,,,,,,,,,,,,
,,,,,,,,,R_1DVbzPwBhnmlrtJ,2022-09-05_16h38.36.164,jpn_C03,2022.1.2,MacIntel,60.0024001,,,,,,,,,,,,,,,,,,,,,,,,,,,,,,,,,,,,,,,,,,,,ルピン,right,2.9943,0,0,0,0,1,,,,,,,,,,,,,,,,,,,,,,,,,,,,,,,,
,,,,,,,,,R_1DVbzPwBhnmlrtJ,2022-09-05_16h38.36.164,jpn_C03,2022.1.2,MacIntel,60.0024001,,,,,,,,,,,,,CartoonStims/burglar_r.jpg,audio/lupin.mp3,,,,,,,,,,,,,,,,,,,,,,,,,,,,,,,,,,,,,,1,5,11,1,1,ルピン,,,,,,,,,,,,,,,,,,,,,,,,,,
,,,,,,,,,R_1DVbzPwBhnmlrtJ,2022-09-05_16h38.36.164,jpn_C03,2022.1.2,MacIntel,60.0024001,,,,,,,,,,,,,,,,,,,,,,,,,,,,,,,,,,,,,,,,,,,,,,,,,,,,,,,,,,,space,0.5255,0,0,0,0,1,NounExposure.xlsx,"最初のトライアルでは、 画像が表示され、 その画像の下に単語が出てきます。 またこの単語の音も聞くことができます。 この音を大きな声で復唱してください。 そしてこの画像がどのような単語を示しているのか, 考えてみてください。 その後、 続きのボタンを押すと次の単語の学習が始まります。

スペースキーを押して、学習を始めましょう。",3,NounFCT.xlsx,ここから語彙のクイズが始まります。スクリーンに表示される単語に合う画像をキーボードの右と左の矢印キーを使って選択してください。,NounTest.xlsx,2,次に、これまで学習してきたことをアウトプットしていただきます。 表示される画像を描写していると思う単語を、テキストボックスにタイプしてください。,1,"ここまでが最初のトライアルです。ここで休憩をとっても構いません。

休憩が済みましたら、スペースキーを押して続きを始めましょう。",,,,,,,,
,,,,,,,,,R_1DVbzPwBhnmlrtJ,2022-09-05_16h38.36.164,jpn_C03,2022.1.2,MacIntel,60.0024001,space,3.9048,space,6.2199,0,0,0,44,1,プミ　ピポ　ホレト,,,CartoonStims/doctor_punch_chef_r.jpg,audio/pumipipohoreto.mp3,,,,,,,,,,,,,,,,,,,,,,,,,,,,,,,,,,,,,,,,,,,,,,,,,,,,,,,,,,,,,,,,,,,,,
,,,,,,,,,R_1DVbzPwBhnmlrtJ,2022-09-05_16h38.36.164,jpn_C03,2022.1.2,MacIntel,60.0024001,,,space,4.9881,0,1,1,8,1,セル　ピポ　ドキ,,,CartoonStims/doctor_kick_boxer_r.jpg,audio/serupipodoki.mp3,,,,,,,,,,,,,,,,,,,,,,,,,,,,,,,,,,,,,,,,,,,,,,,,,,,,,,,,,,,,,,,,,,,,,
,,,,,,,,,R_1DVbzPwBhnmlrtJ,2022-09-05_16h38.36.164,jpn_C03,2022.1.2,MacIntel,60.0024001,,,space,3.8599,0,2,2,23,1,トマ　ドキ　ホレト,,,CartoonStims/boxer_point_chef_r.jpg,audio/tomadokihoreto.mp3,,,,,,,,,,,,,,,,,,,,,,,,,,,,,,,,,,,,,,,,,,,,,,,,,,,,,,,,,,,,,,,,,,,,,
,,,,,,,,,R_1DVbzPwBhnmlrtJ,2022-09-05_16h38.36.164,jpn_C03,2022.1.2,MacIntel,60.0024001,,,space,3.4828,0,3,3,28,1,パツ　ホレト　ドキ,,,CartoonStims/chef_shoot_boxer_r.jpg,audio/patsuhoretodoki.mp3,,,,,,,,,,,,,,,,,,,,,,,,,,,,,,,,,,,,,,,,,,,,,,,,,,,,,,,,,,,,,,,,,,,,,
,,,,,,,,,R_1DVbzPwBhnmlrtJ,2022-09-05_16h38.36.164,jpn_C03,2022.1.2,MacIntel,60.0024001,,,space,2.7065,0,4,4,3,1,セル　ルピン　ムク,,,CartoonStims/burglar_kick_cowboy_r.jpg,audio/serulupinmuku.mp3,,,,,,,,,,,,,,,,,,,,,,,,,,,,,,,,,,,,,,,,,,,,,,,,,,,,,,,,,,,,,,,,,,,,,
,,,,,,,,,R_1DVbzPwBhnmlrtJ,2022-09-05_16h38.36.164,jpn_C03,2022.1.2,MacIntel,60.0024001,,,space,1.701,0,5,5,10,1,セル　ドキ　シド,,,CartoonStims/boxer_kick_artist_r.jpg,audio/serudokisido.mp3,,,,,,,,,,,,,,,,,,,,,,,,,,,,,,,,,,,,,,,,,,,,,,,,,,,,,,,,,,,,,,,,,,,,,
,,,,,,,,,R_1DVbzPwBhnmlrtJ,2022-09-05_16h38.36.164,jpn_C03,2022.1.2,MacIntel,60.0024001,,,space,2.8174,0,6,6,40,1,プミ　ホレト　シド,,,CartoonStims/chef_punch_artist_r.jpg,audio/pumihoretosido.mp3,,,,,,,,,,,,,,,,,,,,,,,,,,,,,,,,,,,,,,,,,,,,,,,,,,,,,,,,,,,,,,,,,,,,,
,,,,,,,,,R_1DVbzPwBhnmlrtJ,2022-09-05_16h38.36.164,jpn_C03,2022.1.2,MacIntel,60.0024001,,,space,2.5852,0,7,7,20,1,トマ　ピポ　シド,,,CartoonStims/doctor_point_artist_r.jpg,audio/tomapiposido.mp3,,,,,,,,,,,,,,,,,,,,,,,,,,,,,,,,,,,,,,,,,,,,,,,,,,,,,,,,,,,,,,,,,,,,,
,,,,,,,,,R_1DVbzPwBhnmlrtJ,2022-09-05_16h38.36.164,jpn_C03,2022.1.2,MacIntel,60.0024001,,,space,3.3538,0,8,8,39,1,プミ　ルピン　シド,,,CartoonStims/burglar_punch_artist_r.jpg,audio/pumilupinsido.mp3,,,,,,,,,,,,,,,,,,,,,,,,,,,,,,,,,,,,,,,,,,,,,,,,,,,,,,,,,,,,,,,,,,,,,
,,,,,,,,,R_1DVbzPwBhnmlrtJ,2022-09-05_16h38.36.164,jpn_C03,2022.1.2,MacIntel,60.0024001,,,space,0.6924,0,9,9,17,1,トマ　ホレト　ドキ,,,CartoonStims/chef_point_boxer_r.jpg,audio/tomahoretodoki.mp3,,,,,,,,,,,,,,,,,,,,,,,,,,,,,,,,,,,,,,,,,,,,,,,,,,,,,,,,,,,,,,,,,,,,,
,,,,,,,,,R_1DVbzPwBhnmlrtJ,2022-09-05_16h38.36.164,jpn_C03,2022.1.2,MacIntel,60.0024001,,,space,0.6366,0,10,10,22,1,トマ　ドキ　ルピン,,,CartoonStims/boxer_point_burglar_r.jpg,audio/tomadokilupin.mp3,,,,,,,,,,,,,,,,,,,,,,,,,,,,,,,,,,,,,,,,,,,,,,,,,,,,,,,,,,,,,,,,,,,,,
,,,,,,,,,R_1DVbzPwBhnmlrtJ,2022-09-05_16h38.36.164,jpn_C03,2022.1.2,MacIntel,60.0024001,,,space,0.3715,0,11,11,1,1,セル 　シド 　ホレト,,,CartoonStims/artist_kick_chef_r.jpg,audio/serusidohoreto.mp3,,,,,,,,,,,,,,,,,,,,,,,,,,,,,,,,,,,,,,,,,,,,,,,,,,,,,,,,,,,,,,,,,,,,,
,,,,,,,,,R_1DVbzPwBhnmlrtJ,2022-09-05_16h38.36.164,jpn_C03,2022.1.2,MacIntel,60.0024001,,,space,0.4546,0,12,12,16,1,トマ　ホレト　ピポ,,,CartoonStims/chef_point_doctor_r.jpg,audio/tomahoretopipo.mp3,,,,,,,,,,,,,,,,,,,,,,,,,,,,,,,,,,,,,,,,,,,,,,,,,,,,,,,,,,,,,,,,,,,,,
,,,,,,,,,R_1DVbzPwBhnmlrtJ,2022-09-05_16h38.36.164,jpn_C03,2022.1.2,MacIntel,60.0024001,,,space,2.4222,0,13,13,30,1,パツ　ムク　シド,,,CartoonStims/cowboy_shoot_artist_r.jpg,audio/patsumukusido.mp3,,,,,,,,,,,,,,,,,,,,,,,,,,,,,,,,,,,,,,,,,,,,,,,,,,,,,,,,,,,,,,,,,,,,,
,,,,,,,,,R_1DVbzPwBhnmlrtJ,2022-09-05_16h38.36.164,jpn_C03,2022.1.2,MacIntel,60.0024001,,,space,1.5656,0,14,14,34,1,パツ　ドキ　ホレト,,,CartoonStims/boxer_shoot_chef_r.jpg,audio/patsudokihoreto.mp3,,,,,,,,,,,,,,,,,,,,,,,,,,,,,,,,,,,,,,,,,,,,,,,,,,,,,,,,,,,,,,,,,,,,,
,,,,,,,,,R_1DVbzPwBhnmlrtJ,2022-09-05_16h38.36.164,jpn_C03,2022.1.2,MacIntel,60.0024001,,,space,0.7864,0,15,15,19,1,トマ　ムク　シド,,,CartoonStims/cowboy_point_artist_r.jpg,audio/tomamukusido.mp3,,,,,,,,,,,,,,,,,,,,,,,,,,,,,,,,,,,,,,,,,,,,,,,,,,,,,,,,,,,,,,,,,,,,,
,,,,,,,,,R_1DVbzPwBhnmlrtJ,2022-09-05_16h38.36.164,jpn_C03,2022.1.2,MacIntel,60.0024001,,,space,1.5381,0,16,16,37,1,プミ　シド　ドキ,,,CartoonStims/artist_punch_boxer_r.jpg,audio/pumisidodoki.mp3,,,,,,,,,,,,,,,,,,,,,,,,,,,,,,,,,,,,,,,,,,,,,,,,,,,,,,,,,,,,,,,,,,,,,
,,,,,,,,,R_1DVbzPwBhnmlrtJ,2022-09-05_16h38.36.164,jpn_C03,2022.1.2,MacIntel,60.0024001,,,space,0.4449,0,17,17,46,1,プミ　ドキ　ムク,,,CartoonStims/boxer_punch_cowboy_r.jpg,audio/pumidokimuku.mp3,,,,,,,,,,,,,,,,,,,,,,,,,,,,,,,,,,,,,,,,,,,,,,,,,,,,,,,,,,,,,,,,,,,,,
,,,,,,,,,R_1DVbzPwBhnmlrtJ,2022-09-05_16h38.36.164,jpn_C03,2022.1.2,MacIntel,60.0024001,,,space,0.5664,0,18,18,14,1,トマ　ルピン　ムク,,,CartoonStims/burglar_point_cowboy_r.jpg,audio/tomalupinmuku.mp3,,,,,,,,,,,,,,,,,,,,,,,,,,,,,,,,,,,,,,,,,,,,,,,,,,,,,,,,,,,,,,,,,,,,,
,,,,,,,,,R_1DVbzPwBhnmlrtJ,2022-09-05_16h38.36.164,jpn_C03,2022.1.2,MacIntel,60.0024001,,,space,0.552,0,19,19,15,1,トマ　ルピン　ピポ,,,CartoonStims/burglar_point_doctor_r.jpg,audio/tomalupinpipo.mp3,,,,,,,,,,,,,,,,,,,,,,,,,,,,,,,,,,,,,,,,,,,,,,,,,,,,,,,,,,,,,,,,,,,,,
,,,,,,,,,R_1DVbzPwBhnmlrtJ,2022-09-05_16h38.36.164,jpn_C03,2022.1.2,MacIntel,60.0024001,,,space,1.1687,0,20,20,47,1,プミ　ドキ　ピポ,,,CartoonStims/boxer_punch_doctor_r.jpg,audio/pumidokipipo.mp3,,,,,,,,,,,,,,,,,,,,,,,,,,,,,,,,,,,,,,,,,,,,,,,,,,,,,,,,,,,,,,,,,,,,,
,,,,,,,,,R_1DVbzPwBhnmlrtJ,2022-09-05_16h38.36.164,jpn_C03,2022.1.2,MacIntel,60.0024001,,,space,0.6381,0,21,21,13,1,トマ　シド　ムク,,,CartoonStims/artist_point_cowboy_r.jpg,audio/tomasidomuku.mp3,,,,,,,,,,,,,,,,,,,,,,,,,,,,,,,,,,,,,,,,,,,,,,,,,,,,,,,,,,,,,,,,,,,,,
,,,,,,,,,R_1DVbzPwBhnmlrtJ,2022-09-05_16h38.36.164,jpn_C03,2022.1.2,MacIntel,60.0024001,,,space,0.2201,0,22,22,6,1,セル　ムク　ピポ,,,CartoonStims/cowboy_kick_doctor_r.jpg,audio/serumukupipo.mp3,,,,,,,,,,,,,,,,,,,,,,,,,,,,,,,,,,,,,,,,,,,,,,,,,,,,,,,,,,,,,,,,,,,,,
,,,,,,,,,R_1DVbzPwBhnmlrtJ,2022-09-05_16h38.36.164,jpn_C03,2022.1.2,MacIntel,60.0024001,,,space,1.018,0,23,23,38,1,プミ　ルピン　ドキ,,,CartoonStims/burglar_punch_boxer_r.jpg,audio/pumilupindoki.mp3,,,,,,,,,,,,,,,,,,,,,,,,,,,,,,,,,,,,,,,,,,,,,,,,,,,,,,,,,,,,,,,,,,,,,
,,,,,,,,,R_1DVbzPwBhnmlrtJ,2022-09-05_16h38.36.164,jpn_C03,2022.1.2,MacIntel,60.0024001,,,space,3.6723,0,24,24,36,1,プミ　シド　ピポ,,,CartoonStims/artist_punch_doctor_r.jpg,audio/pumisidopipo.mp3,,,,,,,,,,,,,,,,,,,,,,,,,,,,,,,,,,,,,,,,,,,,,,,,,,,,,,,,,,,,,,,,,,,,,
,,,,,,,,,R_1DVbzPwBhnmlrtJ,2022-09-05_16h38.36.164,jpn_C03,2022.1.2,MacIntel,60.0024001,,,space,1.2502,0,25,25,26,1,パツ　ルピン　ピポ,,,CartoonStims/burglar_shoot_doctor_r.jpg,audio/patsulupinpipo.mp3,,,,,,,,,,,,,,,,,,,,,,,,,,,,,,,,,,,,,,,,,,,,,,,,,,,,,,,,,,,,,,,,,,,,,
,,,,,,,,,R_1DVbzPwBhnmlrtJ,2022-09-05_16h38.36.164,jpn_C03,2022.1.2,MacIntel,60.0024001,,,space,0.5212,0,26,26,43,1,プミ　ムク　ホレト,,,CartoonStims/cowboy_punch_chef_r.jpg,audio/pumimukuhoreto.mp3,,,,,,,,,,,,,,,,,,,,,,,,,,,,,,,,,,,,,,,,,,,,,,,,,,,,,,,,,,,,,,,,,,,,,
,,,,,,,,,R_1DVbzPwBhnmlrtJ,2022-09-05_16h38.36.164,jpn_C03,2022.1.2,MacIntel,60.0024001,,,space,0.2839,0,27,27,18,1,トマ　ムク　ドキ,,,CartoonStims/cowboy_point_boxer_r.jpg,audio/tomamukudoki.mp3,,,,,,,,,,,,,,,,,,,,,,,,,,,,,,,,,,,,,,,,,,,,,,,,,,,,,,,,,,,,,,,,,,,,,
,,,,,,,,,R_1DVbzPwBhnmlrtJ,2022-09-05_16h38.36.164,jpn_C03,2022.1.2,MacIntel,60.0024001,,,space,0.2699,0,28,28,35,1,パツ　ドキ　ムク,,,CartoonStims/boxer_shoot_cowboy_r.jpg,audio/patsudokimuku.mp3,,,,,,,,,,,,,,,,,,,,,,,,,,,,,,,,,,,,,,,,,,,,,,,,,,,,,,,,,,,,,,,,,,,,,
,,,,,,,,,R_1DVbzPwBhnmlrtJ,2022-09-05_16h38.36.164,jpn_C03,2022.1.2,MacIntel,60.0024001,,,space,0.8913,0,29,29,45,1,プミ　ピポ　ムク,,,CartoonStims/doctor_punch_cowboy_r.jpg,audio/pumipipomuku.mp3,,,,,,,,,,,,,,,,,,,,,,,,,,,,,,,,,,,,,,,,,,,,,,,,,,,,,,,,,,,,,,,,,,,,,
,,,,,,,,,R_1DVbzPwBhnmlrtJ,2022-09-05_16h38.36.164,jpn_C03,2022.1.2,MacIntel,60.0024001,,,space,0.4125,0,30,30,11,1,セル　ドキ　ルピン,,,CartoonStims/boxer_kick_burglar_r.jpg,audio/serudokilupin.mp3,,,,,,,,,,,,,,,,,,,,,,,,,,,,,,,,,,,,,,,,,,,,,,,,,,,,,,,,,,,,,,,,,,,,,
,,,,,,,,,R_1DVbzPwBhnmlrtJ,2022-09-05_16h38.36.164,jpn_C03,2022.1.2,MacIntel,60.0024001,,,space,0.9489,0,31,31,5,1,セル　ホレト　ピポ,,,CartoonStims/chef_kick_doctor_r.jpg,audio/seruhoretopipo.mp3,,,,,,,,,,,,,,,,,,,,,,,,,,,,,,,,,,,,,,,,,,,,,,,,,,,,,,,,,,,,,,,,,,,,,
,,,,,,,,,R_1DVbzPwBhnmlrtJ,2022-09-05_16h38.36.164,jpn_C03,2022.1.2,MacIntel,60.0024001,,,space,0.8708,0,32,32,21,1,トマ　ピポ　ルピン,,,CartoonStims/doctor_point_burglar_r.jpg,audio/tomapipolupin.mp3,,,,,,,,,,,,,,,,,,,,,,,,,,,,,,,,,,,,,,,,,,,,,,,,,,,,,,,,,,,,,,,,,,,,,
,,,,,,,,,R_1DVbzPwBhnmlrtJ,2022-09-05_16h38.36.164,jpn_C03,2022.1.2,MacIntel,60.0024001,,,space,0.4518,0,33,33,27,1,パツ　ルピン　ドキ,,,CartoonStims/burglar_shoot_boxer_r.jpg,audio/patsulupindoki.mp3,,,,,,,,,,,,,,,,,,,,,,,,,,,,,,,,,,,,,,,,,,,,,,,,,,,,,,,,,,,,,,,,,,,,,
,,,,,,,,,R_1DVbzPwBhnmlrtJ,2022-09-05_16h38.36.164,jpn_C03,2022.1.2,MacIntel,60.0024001,,,space,0.9374,0,34,34,25,1,パツ　シド　ピポ,,,CartoonStims/artist_shoot_doctor_r.jpg,audio/patsusidopipo.mp3,,,,,,,,,,,,,,,,,,,,,,,,,,,,,,,,,,,,,,,,,,,,,,,,,,,,,,,,,,,,,,,,,,,,,
,,,,,,,,,R_1DVbzPwBhnmlrtJ,2022-09-05_16h38.36.164,jpn_C03,2022.1.2,MacIntel,60.0024001,,,space,1.1709,0,35,35,29,1,パツ　ホレト　シド,,,CartoonStims/chef_shoot_artist_r.jpg,audio/patsuhoretosido.mp3,,,,,,,,,,,,,,,,,,,,,,,,,,,,,,,,,,,,,,,,,,,,,,,,,,,,,,,,,,,,,,,,,,,,,
,,,,,,,,,R_1DVbzPwBhnmlrtJ,2022-09-05_16h38.36.164,jpn_C03,2022.1.2,MacIntel,60.0024001,,,space,0.97,0,36,36,4,1,セル　ホレト　ムク,,,CartoonStims/chef_kick_cowboy_r.jpg,audio/seruhoretomuku.mp3,,,,,,,,,,,,,,,,,,,,,,,,,,,,,,,,,,,,,,,,,,,,,,,,,,,,,,,,,,,,,,,,,,,,,
,,,,,,,,,R_1DVbzPwBhnmlrtJ,2022-09-05_16h38.36.164,jpn_C03,2022.1.2,MacIntel,60.0024001,,,space,0.5364,0,37,37,42,1,プミ　ムク　ルピン,,,CartoonStims/cowboy_punch_burglar_r.jpg,audio/pumimukulupin.mp3,,,,,,,,,,,,,,,,,,,,,,,,,,,,,,,,,,,,,,,,,,,,,,,,,,,,,,,,,,,,,,,,,,,,,
,,,,,,,,,R_1DVbzPwBhnmlrtJ,2022-09-05_16h38.36.164,jpn_C03,2022.1.2,MacIntel,60.0024001,,,space,0.3008,0,38,38,9,1,セル　ピポ　シド,,,CartoonStims/doctor_kick_artist_r.jpg,audio/serupiposido.mp3,,,,,,,,,,,,,,,,,,,,,,,,,,,,,,,,,,,,,,,,,,,,,,,,,,,,,,,,,,,,,,,,,,,,,
,,,,,,,,,R_1DVbzPwBhnmlrtJ,2022-09-05_16h38.36.164,jpn_C03,2022.1.2,MacIntel,60.0024001,,,space,0.3034,0,39,39,33,1,パツ　ピポ　ホレト,,,CartoonStims/doctor_shoot_chef_r.jpg,audio/patsupipohoreto.mp3,,,,,,,,,,,,,,,,,,,,,,,,,,,,,,,,,,,,,,,,,,,,,,,,,,,,,,,,,,,,,,,,,,,,,
,,,,,,,,,R_1DVbzPwBhnmlrtJ,2022-09-05_16h38.36.164,jpn_C03,2022.1.2,MacIntel,60.0024001,,,space,0.1538,0,40,40,32,1,パツ　ピポ　ルピン,,,CartoonStims/doctor_shoot_burglar_r.jpg,audio/patsupipolupin.mp3,,,,,,,,,,,,,,,,,,,,,,,,,,,,,,,,,,,,,,,,,,,,,,,,,,,,,,,,,,,,,,,,,,,,,
,,,,,,,,,R_1DVbzPwBhnmlrtJ,2022-09-05_16h38.36.164,jpn_C03,2022.1.2,MacIntel,60.0024001,,,space,0.2901,0,41,41,12,1,トマ　シド　ホレト,,,CartoonStims/artist_point_chef_r.jpg,audio/tomasidohoreto.mp3,,,,,,,,,,,,,,,,,,,,,,,,,,,,,,,,,,,,,,,,,,,,,,,,,,,,,,,,,,,,,,,,,,,,,
,,,,,,,,,R_1DVbzPwBhnmlrtJ,2022-09-05_16h38.36.164,jpn_C03,2022.1.2,MacIntel,60.0024001,,,space,0.1585,0,42,42,0,1,セル　シド　ルピン,,,CartoonStims/artist_kick_burglar_r.jpg,audio/serusidolupin.mp3,,,,,,,,,,,,,,,,,,,,,,,,,,,,,,,,,,,,,,,,,,,,,,,,,,,,,,,,,,,,,,,,,,,,,
,,,,,,,,,R_1DVbzPwBhnmlrtJ,2022-09-05_16h38.36.164,jpn_C03,2022.1.2,MacIntel,60.0024001,,,space,0.2052,0,43,43,41,1,プミ　ホレト　ルピン,,,CartoonStims/chef_punch_burglar_r.jpg,audio/pumihoretolupin.mp3,,,,,,,,,,,,,,,,,,,,,,,,,,,,,,,,,,,,,,,,,,,,,,,,,,,,,,,,,,,,,,,,,,,,,
,,,,,,,,,R_1DVbzPwBhnmlrtJ,2022-09-05_16h38.36.164,jpn_C03,2022.1.2,MacIntel,60.0024001,,,space,0.3008,0,44,44,31,1,パツ　ムク　ルピン,,,CartoonStims/cowboy_shoot_burglar_r.jpg,audio/patsumukulupin.mp3,,,,,,,,,,,,,,,,,,,,,,,,,,,,,,,,,,,,,,,,,,,,,,,,,,,,,,,,,,,,,,,,,,,,,
,,,,,,,,,R_1DVbzPwBhnmlrtJ,2022-09-05_16h38.36.164,jpn_C03,2022.1.2,MacIntel,60.0024001,,,space,1.1041,0,45,45,24,1,パツ　シド　ムク,,,CartoonStims/artist_shoot_cowboy_r.jpg,audio/patsusidomuku.mp3,,,,,,,,,,,,,,,,,,,,,,,,,,,,,,,,,,,,,,,,,,,,,,,,,,,,,,,,,,,,,,,,,,,,,
,,,,,,,,,R_1DVbzPwBhnmlrtJ,2022-09-05_16h38.36.164,jpn_C03,2022.1.2,MacIntel,60.0024001,,,space,1.6941,0,46,46,2,1,セル 　ルピン 　ホレト,,,CartoonStims/burglar_kick_chef_r.jpg,audio/serulupinhoreto.mp3,,,,,,,,,,,,,,,,,,,,,,,,,,,,,,,,,,,,,,,,,,,,,,,,,,,,,,,,,,,,,,,,,,,,,
,,,,,,,,,R_1DVbzPwBhnmlrtJ,2022-09-05_16h38.36.164,jpn_C03,2022.1.2,MacIntel,60.0024001,,,space,0.5164,0,47,47,7,1,セル　ムク　ドキ,,,CartoonStims/cowboy_kick_boxer_r.jpg,audio/serumukudoki.mp3,,,,,,,,,,,,,,,,,,,,,,,,,,,,,,,,,,,,,,,,,,,,,,,,,,,,,,,,,,,,,,,,,,,,,
,,,,,,,,,R_1DVbzPwBhnmlrtJ,2022-09-05_16h38.36.164,jpn_C03,2022.1.2,MacIntel,60.0024001,,,,,,,,,,,,,,,space,0.0088,right,1,3.6041,0,0,0,0,1,,,,,,,,,,,,,,,,,,,,,,,,,,,,,,,,,,,,,,,,,,,,,,,,,,,,,,,,,,,
,,,,,,,,,R_1DVbzPwBhnmlrtJ,2022-09-05_16h38.36.164,jpn_C03,2022.1.2,MacIntel,60.0024001,,,,,,,,,,,,,,,,,,,,,,,,,0,0,0,1,1,CartoonStims/chef_point_burglar_r.jpg,トマ　ホレト　シド,CartoonStims/chef_point_artist_r.jpg,right,CartoonStims/chef_point_artist_r.jpg,audio/tomahoretosido.mp3,残念！ こちらが正しい画像です。,,,,,,,,,,,,,,,,,,,,,,,,,,,,,,,,,,,,,,,,,,,,,,,
,,,,,,,,,R_1DVbzPwBhnmlrtJ,2022-09-05_16h38.36.164,jpn_C03,2022.1.2,MacIntel,60.0024001,,,,,,,,,,,,,,,,,left,1,3.9703,,,,,,,,,,,,,,,,,,0,0,0,0,1,,,,,,,,,,,,,,,,,,,,,,,,,,,,,,,,,,,,,,,,,,
,,,,,,,,,R_1DVbzPwBhnmlrtJ,2022-09-05_16h38.36.164,jpn_C03,2022.1.2,MacIntel,60.0024001,,,,,,,,,,,,,,,,,,,,,,,,,0,1,1,0,1,CartoonStims/doctor_kick_burglar_r.jpg,セル　ピポ　ルピン,CartoonStims/doctor_kick_chef_r.jpg,left,CartoonStims/doctor_kick_burglar_r.jpg,audio/serupipolupin.mp3,残念！ こちらが正しい画像です。,,,,,,,,,,,,,,,,,,,,,,,,,,,,,,,,,,,,,,,,,,,,,,,
,,,,,,,,,R_1DVbzPwBhnmlrtJ,2022-09-05_16h38.36.164,jpn_C03,2022.1.2,MacIntel,60.0024001,,,,,,,,,,,,,,,,,left,1,1.8661,,,,,,,,,,,,,,,,,,0,0,0,0,1,,,,,,,,,,,,,,,,,,,,,,,,,,,,,,,,,,,,,,,,,,
,,,,,,,,,R_1DVbzPwBhnmlrtJ,2022-09-05_16h38.36.164,jpn_C03,2022.1.2,MacIntel,60.0024001,,,,,,,,,,,,,,,,,,,,,,,,,0,2,2,4,1,CartoonStims/burglar_point_boxer_r.jpg,トマ　ルピン　ドキ,CartoonStims/burglar_kick_boxer_r.jpg,left,CartoonStims/burglar_point_boxer_r.jpg,audio/tomalupindoki.mp3,残念！ こちらが正しい画像です。,,,,,,,,,,,,,,,,,,,,,,,,,,,,,,,,,,,,,,,,,,,,,,,
,,,,,,,,,R_1DVbzPwBhnmlrtJ,2022-09-05_16h38.36.164,jpn_C03,2022.1.2,MacIntel,60.0024001,,,,,,,,,,,,,,,,,left,1,2.9375,,,,,,,,,,,,,,,,,,0,0,0,0,1,,,,,,,,,,,,,,,,,,,,,,,,,,,,,,,,,,,,,,,,,,
,,,,,,,,,R_1DVbzPwBhnmlrtJ,2022-09-05_16h38.36.164,jpn_C03,2022.1.2,MacIntel,60.0024001,,,,,,,,,,,,,,,,,,,,,,,,,0,3,3,10,1,CartoonStims/artist_shoot_burglar_r.jpg,パツ　シド　ルピン,CartoonStims/chef_shoot_burglar_r.jpg,left,CartoonStims/artist_shoot_burglar_r.jpg,audio/patsusidolupin.mp3,残念！ こちらが正しい画像です。,,,,,,,,,,,,,,,,,,,,,,,,,,,,,,,,,,,,,,,,,,,,,,,
,,,,,,,,,R_1DVbzPwBhnmlrtJ,2022-09-05_16h38.36.164,jpn_C03,2022.1.2,MacIntel,60.0024001,,,,,,,,,,,,,,,,,right,1,6.5517,0,0,0,0,1,,,,,,,,,,,,,,,,,,,,,,,,,,,,,,,,,,,,,,,,,,,,,,,,,,,,,,,,,,,
,,,,,,,,,R_1DVbzPwBhnmlrtJ,2022-09-05_16h38.36.164,jpn_C03,2022.1.2,MacIntel,60.0024001,,,,,,,,,,,,,,,,,,,,,,,,,0,4,4,7,1,CartoonStims/artist_punch_cowboy_r.jpg,セル　シド　ムク,CartoonStims/artist_kick_cowboy_r.jpg,right,CartoonStims/artist_kick_cowboy_r.jpg,audio/serusidomuku.mp3,残念！ こちらが正しい画像です。,,,,,,,,,,,,,,,,,,,,,,,,,,,,,,,,,,,,,,,,,,,,,,,
,,,,,,,,,R_1DVbzPwBhnmlrtJ,2022-09-05_16h38.36.164,jpn_C03,2022.1.2,MacIntel,60.0024001,,,,,,,,,,,,,,,,,left,1,2.4702,,,,,,,,,,,,,,,,,,0,0,0,0,1,,,,,,,,,,,,,,,,,,,,,,,,,,,,,,,,,,,,,,,,,,
,,,,,,,,,R_1DVbzPwBhnmlrtJ,2022-09-05_16h38.36.164,jpn_C03,2022.1.2,MacIntel,60.0024001,,,,,,,,,,,,,,,,,,,,,,,,,0,5,5,2,1,CartoonStims/boxer_shoot_doctor_r.jpg,パツ　ドキ　ピポ,CartoonStims/boxer_shoot_artist_r.jpg,left,CartoonStims/boxer_shoot_doctor_r.jpg,audio/patsudokipipo.mp3,残念！ こちらが正しい画像です。,,,,,,,,,,,,,,,,,,,,,,,,,,,,,,,,,,,,,,,,,,,,,,,
,,,,,,,,,R_1DVbzPwBhnmlrtJ,2022-09-05_16h38.36.164,jpn_C03,2022.1.2,MacIntel,60.0024001,,,,,,,,,,,,,,,,,left,1,2.1518,,,,,,,,,,,,,,,,,,0,0,0,0,1,,,,,,,,,,,,,,,,,,,,,,,,,,,,,,,,,,,,,,,,,,
,,,,,,,,,R_1DVbzPwBhnmlrtJ,2022-09-05_16h38.36.164,jpn_C03,2022.1.2,MacIntel,60.0024001,,,,,,,,,,,,,,,,,,,,,,,,,0,6,6,8,1,CartoonStims/doctor_point_cowboy_r.jpg,トマ　ピポ　ムク,CartoonStims/boxer_point_cowboy_r.jpg,left,CartoonStims/doctor_point_cowboy_r.jpg,audio/tomapipomuku.mp3,残念！ こちらが正しい画像です。,,,,,,,,,,,,,,,,,,,,,,,,,,,,,,,,,,,,,,,,,,,,,,,
,,,,,,,,,R_1DVbzPwBhnmlrtJ,2022-09-05_16h38.36.164,jpn_C03,2022.1.2,MacIntel,60.0024001,,,,,,,,,,,,,,,,,left,1,4.5619,,,,,,,,,,,,,,,,,,0,0,0,0,1,,,,,,,,,,,,,,,,,,,,,,,,,,,,,,,,,,,,,,,,,,
,,,,,,,,,R_1DVbzPwBhnmlrtJ,2022-09-05_16h38.36.164,jpn_C03,2022.1.2,MacIntel,60.0024001,,,,,,,,,,,,,,,,,,,,,,,,,0,7,7,6,1,CartoonStims/doctor_punch_boxer_r.jpg,プミ　ピポ　ドキ,CartoonStims/doctor_shoot_boxer_r.jpg,left,CartoonStims/doctor_punch_boxer_r.jpg,audio/pumipipodoki.mp3,残念！ こちらが正しい画像です。,,,,,,,,,,,,,,,,,,,,,,,,,,,,,,,,,,,,,,,,,,,,,,,
,,,,,,,,,R_1DVbzPwBhnmlrtJ,2022-09-05_16h38.36.164,jpn_C03,2022.1.2,MacIntel,60.0024001,,,,,,,,,,,,,,,,,right,1,4.4351,0,0,0,0,1,,,,,,,,,,,,,,,,,,,,,,,,,,,,,,,,,,,,,,,,,,,,,,,,,,,,,,,,,,,
,,,,,,,,,R_1DVbzPwBhnmlrtJ,2022-09-05_16h38.36.164,jpn_C03,2022.1.2,MacIntel,60.0024001,,,,,,,,,,,,,,,,,,,,,,,,,0,8,8,11,1,CartoonStims/burglar_punch_cowboy_r.jpg,プミ　ホレト　ムク,CartoonStims/chef_punch_cowboy_r.jpg,right,CartoonStims/chef_punch_cowboy_r.jpg,audio/pumihoretomuku.mp3,残念！ こちらが正しい画像です。,,,,,,,,,,,,,,,,,,,,,,,,,,,,,,,,,,,,,,,,,,,,,,,
,,,,,,,,,R_1DVbzPwBhnmlrtJ,2022-09-05_16h38.36.164,jpn_C03,2022.1.2,MacIntel,60.0024001,,,,,,,,,,,,,,,,,right,1,2.0261,0,0,0,0,1,,,,,,,,,,,,,,,,,,,,,,,,,,,,,,,,,,,,,,,,,,,,,,,,,,,,,,,,,,,
,,,,,,,,,R_1DVbzPwBhnmlrtJ,2022-09-05_16h38.36.164,jpn_C03,2022.1.2,MacIntel,60.0024001,,,,,,,,,,,,,,,,,,,,,,,,,0,9,9,9,1,CartoonStims/chef_kick_artist_r.jpg,セル　ムク　シド,CartoonStims/cowboy_kick_artist_r.jpg,right,CartoonStims/cowboy_kick_artist_r.jpg,audio/serumukusido.mp3,残念！ こちらが正しい画像です。,,,,,,,,,,,,,,,,,,,,,,,,,,,,,,,,,,,,,,,,,,,,,,,
,,,,,,,,,R_1DVbzPwBhnmlrtJ,2022-09-05_16h38.36.164,jpn_C03,2022.1.2,MacIntel,60.0024001,,,,,,,,,,,,,,,,,right,1,1.641,0,0,0,0,1,,,,,,,,,,,,,,,,,,,,,,,,,,,,,,,,,,,,,,,,,,,,,,,,,,,,,,,,,,,
,,,,,,,,,R_1DVbzPwBhnmlrtJ,2022-09-05_16h38.36.164,jpn_C03,2022.1.2,MacIntel,60.0024001,,,,,,,,,,,,,,,,,,,,,,,,,0,10,10,3,1,CartoonStims/cowboy_punch_doctor_r.jpg,プミ　ムク　ドキ,CartoonStims/cowboy_punch_boxer_r.jpg,right,CartoonStims/cowboy_punch_boxer_r.jpg,audio/pumimukudoki.mp3,残念！ こちらが正しい画像です。,,,,,,,,,,,,,,,,,,,,,,,,,,,,,,,,,,,,,,,,,,,,,,,
,,,,,,,,,R_1DVbzPwBhnmlrtJ,2022-09-05_16h38.36.164,jpn_C03,2022.1.2,MacIntel,60.0024001,,,,,,,,,,,,,,,,,right,1,2.287,0,0,0,0,1,,,,,,,,,,,,,,,,,,,,,,,,,,,,,,,,,,,,,,,,,,,,,,,,,,,,,,,,,,,
,,,,,,,,,R_1DVbzPwBhnmlrtJ,2022-09-05_16h38.36.164,jpn_C03,2022.1.2,MacIntel,60.0024001,,,,,,,,,,,,,,,,,,,,,,,,,0,11,11,5,1,CartoonStims/cowboy_point_chef_r.jpg,パツ　ムク　ホレト,CartoonStims/cowboy_shoot_chef_r.jpg,right,CartoonStims/cowboy_shoot_chef_r.jpg,audio/patsumukuhoreto.mp3,残念！ こちらが正しい画像です。,,,,,,,,,,,,,,,,,,,,,,,,,,,,,,,,,,,,,,,,,,,,,,,
,,,,,,,,,R_1DVbzPwBhnmlrtJ,2022-09-05_16h38.36.164,jpn_C03,2022.1.2,MacIntel,60.0024001,,,,,,,,,,,,,,,,,,,,,,,,,,,,,,,,,,,,,,,,,,space,0.0741,プミ　ドキ　シド,right,12.9065,0,0,0,0,1,,,,,,,,,,,,,,,,,,,,,,,,,,,,,,,,
,,,,,,,,,R_1DVbzPwBhnmlrtJ,2022-09-05_16h38.36.164,jpn_C03,2022.1.2,MacIntel,60.0024001,,,,,,,,,,,,,CartoonStims/boxer_punch_artist_r.jpg,audio/pumidokisido.mp3,,,,,,,,,,,,,,,,,,,,,,,,,,,,,,,,,,,,,,0,0,0,11,1,プミ　ドキ　シド,,,,,,,,,,,,,,,,,,,,,,,,,,
,,,,,,,,,R_1DVbzPwBhnmlrtJ,2022-09-05_16h38.36.164,jpn_C03,2022.1.2,MacIntel,60.0024001,,,,,,,,,,,,,,,,,,,,,,,,,,,,,,,,,,,,,,,,,,,,プミ　シド　ルピン,right,7.1014,0,0,0,0,1,,,,,,,,,,,,,,,,,,,,,,,,,,,,,,,,
,,,,,,,,,R_1DVbzPwBhnmlrtJ,2022-09-05_16h38.36.164,jpn_C03,2022.1.2,MacIntel,60.0024001,,,,,,,,,,,,,CartoonStims/artist_punch_burglar_r.jpg,audio/pumisidolupin.mp3,,,,,,,,,,,,,,,,,,,,,,,,,,,,,,,,,,,,,,0,1,1,9,1,プミ　シド　ルピン,,,,,,,,,,,,,,,,,,,,,,,,,,
,,,,,,,,,R_1DVbzPwBhnmlrtJ,2022-09-05_16h38.36.164,jpn_C03,2022.1.2,MacIntel,60.0024001,,,,,,,,,,,,,,,,,,,,,,,,,,,,,,,,,,,,,,,,,,,,マレ　ルピン　シド,right,20.2421,0,0,0,0,1,,,,,,,,,,,,,,,,,,,,,,,,,,,,,,,,
,,,,,,,,,R_1DVbzPwBhnmlrtJ,2022-09-05_16h38.36.164,jpn_C03,2022.1.2,MacIntel,60.0024001,,,,,,,,,,,,,CartoonStims/burglar_point_artist_r.jpg,audio/tomalupinsido.mp3,,,,,,,,,,,,,,,,,,,,,,,,,,,,,,,,,,,,,,0,2,2,4,1,トマ　ルピン　シド,,,,,,,,,,,,,,,,,,,,,,,,,,
,,,,,,,,,R_1DVbzPwBhnmlrtJ,2022-09-05_16h38.36.164,jpn_C03,2022.1.2,MacIntel,60.0024001,,,,,,,,,,,,,,,,,,,,,,,,,,,,,,,,,,,,,,,,,,,,トマ　シド　ドキ,right,4.2254,0,0,0,0,1,,,,,,,,,,,,,,,,,,,,,,,,,,,,,,,,
,,,,,,,,,R_1DVbzPwBhnmlrtJ,2022-09-05_16h38.36.164,jpn_C03,2022.1.2,MacIntel,60.0024001,,,,,,,,,,,,,CartoonStims/artist_point_boxer_r.jpg,audio/tomasidodoki.mp3,,,,,,,,,,,,,,,,,,,,,,,,,,,,,,,,,,,,,,0,3,3,3,1,トマ　シド　ドキ,,,,,,,,,,,,,,,,,,,,,,,,,,
,,,,,,,,,R_1DVbzPwBhnmlrtJ,2022-09-05_16h38.36.164,jpn_C03,2022.1.2,MacIntel,60.0024001,,,,,,,,,,,,,,,,,,,,,,,,,,,,,,,,,,,,,,,,,,,,プミ　ピポ　ドキ,right,6.2289,0,0,0,0,1,,,,,,,,,,,,,,,,,,,,,,,,,,,,,,,,
,,,,,,,,,R_1DVbzPwBhnmlrtJ,2022-09-05_16h38.36.164,jpn_C03,2022.1.2,MacIntel,60.0024001,,,,,,,,,,,,,CartoonStims/doctor_punch_boxer_r.jpg,audio/pumipipodoki.mp3,,,,,,,,,,,,,,,,,,,,,,,,,,,,,,,,,,,,,,0,4,4,10,1,プミ　ピポ　ドキ,,,,,,,,,,,,,,,,,,,,,,,,,,
,,,,,,,,,R_1DVbzPwBhnmlrtJ,2022-09-05_16h38.36.164,jpn_C03,2022.1.2,MacIntel,60.0024001,,,,,,,,,,,,,,,,,,,,,,,,,,,,,,,,,,,,,,,,,,,,パツ　ホレト　シド,right,15.85,0,0,0,0,1,,,,,,,,,,,,,,,,,,,,,,,,,,,,,,,,
,,,,,,,,,R_1DVbzPwBhnmlrtJ,2022-09-05_16h38.36.164,jpn_C03,2022.1.2,MacIntel,60.0024001,,,,,,,,,,,,,CartoonStims/chef_shoot_cowboy_r.jpg,audio/patsuhoretomuku.mp3,,,,,,,,,,,,,,,,,,,,,,,,,,,,,,,,,,,,,,0,5,5,7,1,パツ　ホレト　ムク,,,,,,,,,,,,,,,,,,,,,,,,,,
,,,,,,,,,R_1DVbzPwBhnmlrtJ,2022-09-05_16h38.36.164,jpn_C03,2022.1.2,MacIntel,60.0024001,,,,,,,,,,,,,,,,,,,,,,,,,,,,,,,,,,,,,,,,,,,,パツ　ルピン　ホレと,right,6.09,0,0,0,0,1,,,,,,,,,,,,,,,,,,,,,,,,,,,,,,,,
,,,,,,,,,R_1DVbzPwBhnmlrtJ,2022-09-05_16h38.36.164,jpn_C03,2022.1.2,MacIntel,60.0024001,,,,,,,,,,,,,CartoonStims/burglar_shoot_chef_r.jpg,audio/patsulupinhoreto.mp3,,,,,,,,,,,,,,,,,,,,,,,,,,,,,,,,,,,,,,0,6,6,6,1,パツ　ルピン　ホレト,,,,,,,,,,,,,,,,,,,,,,,,,,
,,,,,,,,,R_1DVbzPwBhnmlrtJ,2022-09-05_16h38.36.164,jpn_C03,2022.1.2,MacIntel,60.0024001,,,,,,,,,,,,,,,,,,,,,,,,,,,,,,,,,,,,,,,,,,,,パツ　ムク　ピポ,right,5.1275,0,0,0,0,1,,,,,,,,,,,,,,,,,,,,,,,,,,,,,,,,
,,,,,,,,,R_1DVbzPwBhnmlrtJ,2022-09-05_16h38.36.164,jpn_C03,2022.1.2,MacIntel,60.0024001,,,,,,,,,,,,,CartoonStims/cowboy_shoot_doctor_r.jpg,audio/patsumukupipo.mp3,,,,,,,,,,,,,,,,,,,,,,,,,,,,,,,,,,,,,,0,7,7,8,1,パツ　ムク　ピポ,,,,,,,,,,,,,,,,,,,,,,,,,,
,,,,,,,,,R_1DVbzPwBhnmlrtJ,2022-09-05_16h38.36.164,jpn_C03,2022.1.2,MacIntel,60.0024001,,,,,,,,,,,,,,,,,,,,,,,,,,,,,,,,,,,,,,,,,,,,セル　ドキ　シド,right,4.5184,0,0,0,0,1,,,,,,,,,,,,,,,,,,,,,,,,,,,,,,,,
,,,,,,,,,R_1DVbzPwBhnmlrtJ,2022-09-05_16h38.36.164,jpn_C03,2022.1.2,MacIntel,60.0024001,,,,,,,,,,,,,CartoonStims/boxer_kick_cowboy_r.jpg,audio/serudokimuku.mp3,,,,,,,,,,,,,,,,,,,,,,,,,,,,,,,,,,,,,,0,8,8,2,1,セル　ドキ　ムク,,,,,,,,,,,,,,,,,,,,,,,,,,
,,,,,,,,,R_1DVbzPwBhnmlrtJ,2022-09-05_16h38.36.164,jpn_C03,2022.1.2,MacIntel,60.0024001,,,,,,,,,,,,,,,,,,,,,,,,,,,,,,,,,,,,,,,,,,,,トマ　ホレト　ルピン,right,9.1645,0,0,0,0,1,,,,,,,,,,,,,,,,,,,,,,,,,,,,,,,,
,,,,,,,,,R_1DVbzPwBhnmlrtJ,2022-09-05_16h38.36.164,jpn_C03,2022.1.2,MacIntel,60.0024001,,,,,,,,,,,,,CartoonStims/chef_point_burglar_r.jpg,audio/tomahoretolupin.mp3,,,,,,,,,,,,,,,,,,,,,,,,,,,,,,,,,,,,,,0,9,9,5,1,トマ　ホレト　ルピン,,,,,,,,,,,,,,,,,,,,,,,,,,
,,,,,,,,,R_1DVbzPwBhnmlrtJ,2022-09-05_16h38.36.164,jpn_C03,2022.1.2,MacIntel,60.0024001,,,,,,,,,,,,,,,,,,,,,,,,,,,,,,,,,,,,,,,,,,,,セル　ピポ　ホレト,right,7.4201,0,0,0,0,1,,,,,,,,,,,,,,,,,,,,,,,,,,,,,,,,
,,,,,,,,,R_1DVbzPwBhnmlrtJ,2022-09-05_16h38.36.164,jpn_C03,2022.1.2,MacIntel,60.0024001,,,,,,,,,,,,,CartoonStims/doctor_kick_chef_r.jpg,audio/serupipohoreto.mp3,,,,,,,,,,,,,,,,,,,,,,,,,,,,,,,,,,,,,,0,10,10,1,1,セル　ピポ　ホレト,,,,,,,,,,,,,,,,,,,,,,,,,,
,,,,,,,,,R_1DVbzPwBhnmlrtJ,2022-09-05_16h38.36.164,jpn_C03,2022.1.2,MacIntel,60.0024001,,,,,,,,,,,,,,,,,,,,,,,,,,,,,,,,,,,,,,,,,,,,セル　ムク　ルピン,right,11.4509,0,0,0,0,1,,,,,,,,,,,,,,,,,,,,,,,,,,,,,,,,
,,,,,,,,,R_1DVbzPwBhnmlrtJ,2022-09-05_16h38.36.164,jpn_C03,2022.1.2,MacIntel,60.0024001,,,,,,,,,,,,,CartoonStims/cowboy_kick_burglar_r.jpg,audio/serumukulupin.mp3,,,,,,,,,,,,,,,,,,,,,,,,,,,,,,,,,,,,,,0,11,11,0,1,セル　ムク　ルピン,,,,,,,,,,,,,,,,,,,,,,,,,,
,,,,,,,,,R_1DVbzPwBhnmlrtJ,2022-09-05_16h38.36.164,jpn_C03,2022.1.2,MacIntel,60.0024001,,,,,,,,,,,,,,,,,,,,,,,,,,,,,,,,,,,,,,,,,,,,,,,,,,,,,,,,,,,space,5.6194,0,1,1,1,1,AffExposure.xlsx,"第二のトライアルの学習では、この言語で書かれた文を見ていただきます。引き続き注意して、 聞こえた音を復唱してください。


スペースキーを押してください。",1,AffFCT.xlsx,ここからクイズが始まります。 スクリーンに表示されるテキストに合う画像を選んでください。,AffTest.xlsx,1,次にここまで学んだことをアウトプットしていただきます。 表示される画像を描写していると思う単語を、テキストボックスにタイプしてください。 答えを提出したあとに正しい正解が少しの間画面に写ります。,1,"これで第二のトライアルが終了しました。 ここで休憩をとっていただいても構いません。

休憩が終わりましたら、 スペースキーを押して続きの学習を行いましょう。",,,,,,,,
,,,,,,,,,R_1DVbzPwBhnmlrtJ,2022-09-05_16h38.36.164,jpn_C03,2022.1.2,MacIntel,60.0024001,space,49.3193,space,7.3354,0,0,0,18,1,トマ　ピク　ムク　ドキ,,,CartoonStims/cowboy_point_boxer_r_no.jpg,audio/tomapikumukudoki.mp3,,,,,,,,,,,,,,,,,,,,,,,,,,,,,,,,,,,,,,,,,,,,,,,,,,,,,,,,,,,,,,,,,,,,,
,,,,,,,,,R_1DVbzPwBhnmlrtJ,2022-09-05_16h38.36.164,jpn_C03,2022.1.2,MacIntel,60.0024001,,,space,2.6705,0,1,1,36,1,プミ　ピク　シド　ピポ,,,CartoonStims/artist_punch_doctor_r_no.jpg,audio/pumipikusidopipo.mp3,,,,,,,,,,,,,,,,,,,,,,,,,,,,,,,,,,,,,,,,,,,,,,,,,,,,,,,,,,,,,,,,,,,,,
,,,,,,,,,R_1DVbzPwBhnmlrtJ,2022-09-05_16h38.36.164,jpn_C03,2022.1.2,MacIntel,60.0024001,,,space,0.9204,0,2,2,24,1,パツ　ピク　シド　ムク,,,CartoonStims/artist_shoot_cowboy_r_no.jpg,audio/patsupikusidomuku.mp3,,,,,,,,,,,,,,,,,,,,,,,,,,,,,,,,,,,,,,,,,,,,,,,,,,,,,,,,,,,,,,,,,,,,,
,,,,,,,,,R_1DVbzPwBhnmlrtJ,2022-09-05_16h38.36.164,jpn_C03,2022.1.2,MacIntel,60.0024001,,,space,0.7551,0,3,3,25,1,ピク　パツ　シド　ピポ,,,CartoonStims/artist_shoot_doctor_r_no.jpg,audio/pikupatsusidopipo.mp3,,,,,,,,,,,,,,,,,,,,,,,,,,,,,,,,,,,,,,,,,,,,,,,,,,,,,,,,,,,,,,,,,,,,,
,,,,,,,,,R_1DVbzPwBhnmlrtJ,2022-09-05_16h38.36.164,jpn_C03,2022.1.2,MacIntel,60.0024001,,,space,1.2665,0,4,4,26,1,パツ　ピク　ルピン　ピポ,,,CartoonStims/burglar_shoot_doctor_r_no.jpg,audio/patsupikulupinpipo.mp3,,,,,,,,,,,,,,,,,,,,,,,,,,,,,,,,,,,,,,,,,,,,,,,,,,,,,,,,,,,,,,,,,,,,,
,,,,,,,,,R_1DVbzPwBhnmlrtJ,2022-09-05_16h38.36.164,jpn_C03,2022.1.2,MacIntel,60.0024001,,,space,5.3711,0,5,5,4,1,ピク　セル　ホレト　ムク,,,CartoonStims/chef_kick_cowboy_r_no.jpg,audio/pikuseruhoretomuku.mp3,,,,,,,,,,,,,,,,,,,,,,,,,,,,,,,,,,,,,,,,,,,,,,,,,,,,,,,,,,,,,,,,,,,,,
,,,,,,,,,R_1DVbzPwBhnmlrtJ,2022-09-05_16h38.36.164,jpn_C03,2022.1.2,MacIntel,60.0024001,,,space,0.6948,0,6,6,34,1,パツ　ピク　ドキ　ホレト,,,CartoonStims/boxer_shoot_chef_r_no.jpg,audio/patsupikudokihoreto.mp3,,,,,,,,,,,,,,,,,,,,,,,,,,,,,,,,,,,,,,,,,,,,,,,,,,,,,,,,,,,,,,,,,,,,,
,,,,,,,,,R_1DVbzPwBhnmlrtJ,2022-09-05_16h38.36.164,jpn_C03,2022.1.2,MacIntel,60.0024001,,,space,1.1331,0,7,7,22,1,トマ　ピク　ドキ　ルピン,,,CartoonStims/boxer_point_burglar_r_no.jpg,audio/tomapikudokilupin.mp3,,,,,,,,,,,,,,,,,,,,,,,,,,,,,,,,,,,,,,,,,,,,,,,,,,,,,,,,,,,,,,,,,,,,,
,,,,,,,,,R_1DVbzPwBhnmlrtJ,2022-09-05_16h38.36.164,jpn_C03,2022.1.2,MacIntel,60.0024001,,,space,2.2836,0,8,8,15,1,ピク　トマ　ルピン　ピポ,,,CartoonStims/burglar_point_doctor_r_no.jpg,audio/pikutomalupinpipo.mp3,,,,,,,,,,,,,,,,,,,,,,,,,,,,,,,,,,,,,,,,,,,,,,,,,,,,,,,,,,,,,,,,,,,,,
,,,,,,,,,R_1DVbzPwBhnmlrtJ,2022-09-05_16h38.36.164,jpn_C03,2022.1.2,MacIntel,60.0024001,,,space,9.566,0,9,9,44,1,ピク　プミ　ピポ　ホレト,,,CartoonStims/doctor_punch_chef_r_no.jpg,audio/pikupumipipohoreto.mp3,,,,,,,,,,,,,,,,,,,,,,,,,,,,,,,,,,,,,,,,,,,,,,,,,,,,,,,,,,,,,,,,,,,,,
,,,,,,,,,R_1DVbzPwBhnmlrtJ,2022-09-05_16h38.36.164,jpn_C03,2022.1.2,MacIntel,60.0024001,,,space,5.5033,0,10,10,5,1,セル　ピク　ホレト　ピポ,,,CartoonStims/chef_kick_doctor_r_no.jpg,audio/serupikuhoretopipo.mp3,,,,,,,,,,,,,,,,,,,,,,,,,,,,,,,,,,,,,,,,,,,,,,,,,,,,,,,,,,,,,,,,,,,,,
,,,,,,,,,R_1DVbzPwBhnmlrtJ,2022-09-05_16h38.36.164,jpn_C03,2022.1.2,MacIntel,60.0024001,,,space,2.5178,0,11,11,7,1,セル　ピク　ムク　ドキ,,,CartoonStims/cowboy_kick_boxer_r_no.jpg,audio/serupikumukudoki.mp3,,,,,,,,,,,,,,,,,,,,,,,,,,,,,,,,,,,,,,,,,,,,,,,,,,,,,,,,,,,,,,,,,,,,,
,,,,,,,,,R_1DVbzPwBhnmlrtJ,2022-09-05_16h38.36.164,jpn_C03,2022.1.2,MacIntel,60.0024001,,,space,5.356,0,12,12,1,1,セル　ピク　シド　ホレト,,,CartoonStims/artist_kick_chef_r_no.jpg,audio/serupikusidohoreto.mp3,,,,,,,,,,,,,,,,,,,,,,,,,,,,,,,,,,,,,,,,,,,,,,,,,,,,,,,,,,,,,,,,,,,,,
,,,,,,,,,R_1DVbzPwBhnmlrtJ,2022-09-05_16h38.36.164,jpn_C03,2022.1.2,MacIntel,60.0024001,,,space,2.1205,0,13,13,12,1,トマ　ピク　シド　ホレト,,,CartoonStims/artist_point_chef_r_no.jpg,audio/tomapikusidohoreto.mp3,,,,,,,,,,,,,,,,,,,,,,,,,,,,,,,,,,,,,,,,,,,,,,,,,,,,,,,,,,,,,,,,,,,,,
,,,,,,,,,R_1DVbzPwBhnmlrtJ,2022-09-05_16h38.36.164,jpn_C03,2022.1.2,MacIntel,60.0024001,,,space,2.9047,0,14,14,31,1,パツ　ピク　ムク　ルピン,,,CartoonStims/cowboy_shoot_burglar_r_no.jpg,audio/patsupikumukulupin.mp3,,,,,,,,,,,,,,,,,,,,,,,,,,,,,,,,,,,,,,,,,,,,,,,,,,,,,,,,,,,,,,,,,,,,,
,,,,,,,,,R_1DVbzPwBhnmlrtJ,2022-09-05_16h38.36.164,jpn_C03,2022.1.2,MacIntel,60.0024001,,,space,1.5004,0,15,15,21,1,トマ　ピク　ピポ　ルピン,,,CartoonStims/doctor_point_burglar_r_no.jpg,audio/tomapikupipolupin.mp3,,,,,,,,,,,,,,,,,,,,,,,,,,,,,,,,,,,,,,,,,,,,,,,,,,,,,,,,,,,,,,,,,,,,,
,,,,,,,,,R_1DVbzPwBhnmlrtJ,2022-09-05_16h38.36.164,jpn_C03,2022.1.2,MacIntel,60.0024001,,,space,1.408,0,16,16,43,1,プミ　ピク　ムク　ホレト,,,CartoonStims/cowboy_punch_chef_r_no.jpg,audio/pumipikumukuhoreto.mp3,,,,,,,,,,,,,,,,,,,,,,,,,,,,,,,,,,,,,,,,,,,,,,,,,,,,,,,,,,,,,,,,,,,,,
,,,,,,,,,R_1DVbzPwBhnmlrtJ,2022-09-05_16h38.36.164,jpn_C03,2022.1.2,MacIntel,60.0024001,,,space,5.383,0,17,17,8,1,ピク　セル　ピポ　ドキ,,,CartoonStims/doctor_kick_boxer_r_no.jpg,audio/pikuserupipodoki.mp3,,,,,,,,,,,,,,,,,,,,,,,,,,,,,,,,,,,,,,,,,,,,,,,,,,,,,,,,,,,,,,,,,,,,,
,,,,,,,,,R_1DVbzPwBhnmlrtJ,2022-09-05_16h38.36.164,jpn_C03,2022.1.2,MacIntel,60.0024001,,,space,1.5205,0,18,18,2,1,セル　ピク　ルピン　ホレト,,,CartoonStims/burglar_kick_chef_r_no.jpg,audio/serupikulupinhoreto.mp3,,,,,,,,,,,,,,,,,,,,,,,,,,,,,,,,,,,,,,,,,,,,,,,,,,,,,,,,,,,,,,,,,,,,,
,,,,,,,,,R_1DVbzPwBhnmlrtJ,2022-09-05_16h38.36.164,jpn_C03,2022.1.2,MacIntel,60.0024001,,,space,8.8348,0,19,19,42,1,ピク　プミ　ムク　ルピン,,,CartoonStims/cowboy_punch_burglar_r_no.jpg,audio/pikupumimukulupin.mp3,,,,,,,,,,,,,,,,,,,,,,,,,,,,,,,,,,,,,,,,,,,,,,,,,,,,,,,,,,,,,,,,,,,,,
,,,,,,,,,R_1DVbzPwBhnmlrtJ,2022-09-05_16h38.36.164,jpn_C03,2022.1.2,MacIntel,60.0024001,,,space,5.7037,0,20,20,0,1,ピク　セル　シド　ルピン,,,CartoonStims/artist_kick_burglar_r_no.jpg,audio/pikuserusidolupin.mp3,,,,,,,,,,,,,,,,,,,,,,,,,,,,,,,,,,,,,,,,,,,,,,,,,,,,,,,,,,,,,,,,,,,,,
,,,,,,,,,R_1DVbzPwBhnmlrtJ,2022-09-05_16h38.36.164,jpn_C03,2022.1.2,MacIntel,60.0024001,,,space,9.1621,0,21,21,6,1,セル　ピク　ムク　ピポ,,,CartoonStims/cowboy_kick_doctor_r_no.jpg,audio/serupikumukupipo.mp3,,,,,,,,,,,,,,,,,,,,,,,,,,,,,,,,,,,,,,,,,,,,,,,,,,,,,,,,,,,,,,,,,,,,,
,,,,,,,,,R_1DVbzPwBhnmlrtJ,2022-09-05_16h38.36.164,jpn_C03,2022.1.2,MacIntel,60.0024001,,,space,1.3863,0,22,22,3,1,セル　ピク　ルピン　ムク,,,CartoonStims/burglar_kick_cowboy_r_no.jpg,audio/serupikulupinmuku.mp3,,,,,,,,,,,,,,,,,,,,,,,,,,,,,,,,,,,,,,,,,,,,,,,,,,,,,,,,,,,,,,,,,,,,,
,,,,,,,,,R_1DVbzPwBhnmlrtJ,2022-09-05_16h38.36.164,jpn_C03,2022.1.2,MacIntel,60.0024001,,,space,5.8163,0,23,23,45,1,プミ　ピク　ピポ　ムク,,,CartoonStims/doctor_punch_cowboy_r_no.jpg,audio/pumipikupipomuku.mp3,,,,,,,,,,,,,,,,,,,,,,,,,,,,,,,,,,,,,,,,,,,,,,,,,,,,,,,,,,,,,,,,,,,,,
,,,,,,,,,R_1DVbzPwBhnmlrtJ,2022-09-05_16h38.36.164,jpn_C03,2022.1.2,MacIntel,60.0024001,,,space,7.323,0,24,24,30,1,パツ　ピク　ムク　シド,,,CartoonStims/cowboy_shoot_artist_r_no.jpg,audio/patsupikumukusido.mp3,,,,,,,,,,,,,,,,,,,,,,,,,,,,,,,,,,,,,,,,,,,,,,,,,,,,,,,,,,,,,,,,,,,,,
,,,,,,,,,R_1DVbzPwBhnmlrtJ,2022-09-05_16h38.36.164,jpn_C03,2022.1.2,MacIntel,60.0024001,,,space,3.1091,0,25,25,23,1,ピク　トマ　ドキ　ホレト,,,CartoonStims/boxer_point_chef_r_no.jpg,audio/pikutomadokihoreto.mp3,,,,,,,,,,,,,,,,,,,,,,,,,,,,,,,,,,,,,,,,,,,,,,,,,,,,,,,,,,,,,,,,,,,,,
,,,,,,,,,R_1DVbzPwBhnmlrtJ,2022-09-05_16h38.36.164,jpn_C03,2022.1.2,MacIntel,60.0024001,,,space,1.6873,0,26,26,29,1,ピク　パツ　ホレト　シド,,,CartoonStims/chef_shoot_artist_r_no.jpg,audio/pikupatsuhoretosido.mp3,,,,,,,,,,,,,,,,,,,,,,,,,,,,,,,,,,,,,,,,,,,,,,,,,,,,,,,,,,,,,,,,,,,,,
,,,,,,,,,R_1DVbzPwBhnmlrtJ,2022-09-05_16h38.36.164,jpn_C03,2022.1.2,MacIntel,60.0024001,,,space,4.099,0,27,27,28,1,パツ　ピク　ホレト　ドキ,,,CartoonStims/chef_shoot_boxer_r_no.jpg,audio/patsupikuhoretodoki.mp3,,,,,,,,,,,,,,,,,,,,,,,,,,,,,,,,,,,,,,,,,,,,,,,,,,,,,,,,,,,,,,,,,,,,,
,,,,,,,,,R_1DVbzPwBhnmlrtJ,2022-09-05_16h38.36.164,jpn_C03,2022.1.2,MacIntel,60.0024001,,,space,1.4656,0,28,28,11,1,セル　ピク　ドキ　ルピン,,,CartoonStims/boxer_kick_burglar_r_no.jpg,audio/serupikudokilupin.mp3,,,,,,,,,,,,,,,,,,,,,,,,,,,,,,,,,,,,,,,,,,,,,,,,,,,,,,,,,,,,,,,,,,,,,
,,,,,,,,,R_1DVbzPwBhnmlrtJ,2022-09-05_16h38.36.164,jpn_C03,2022.1.2,MacIntel,60.0024001,,,space,1.1842,0,29,29,16,1,トマ　ピク　ホレト　ピポ,,,CartoonStims/chef_point_doctor_r_no.jpg,audio/tomapikuhoretopipo.mp3,,,,,,,,,,,,,,,,,,,,,,,,,,,,,,,,,,,,,,,,,,,,,,,,,,,,,,,,,,,,,,,,,,,,,
,,,,,,,,,R_1DVbzPwBhnmlrtJ,2022-09-05_16h38.36.164,jpn_C03,2022.1.2,MacIntel,60.0024001,,,space,1.8916,0,30,30,38,1,プミ　ピク　ルピン　ドキ,,,CartoonStims/burglar_punch_boxer_r_no.jpg,audio/pumipikulupindoki.mp3,,,,,,,,,,,,,,,,,,,,,,,,,,,,,,,,,,,,,,,,,,,,,,,,,,,,,,,,,,,,,,,,,,,,,
,,,,,,,,,R_1DVbzPwBhnmlrtJ,2022-09-05_16h38.36.164,jpn_C03,2022.1.2,MacIntel,60.0024001,,,space,1.3155,0,31,31,10,1,セル　ピク　ドキ　シド,,,CartoonStims/boxer_kick_artist_r_no.jpg,audio/serupikudokisido.mp3,,,,,,,,,,,,,,,,,,,,,,,,,,,,,,,,,,,,,,,,,,,,,,,,,,,,,,,,,,,,,,,,,,,,,
,,,,,,,,,R_1DVbzPwBhnmlrtJ,2022-09-05_16h38.36.164,jpn_C03,2022.1.2,MacIntel,60.0024001,,,space,4.2891,0,32,32,27,1,ピク　パツ　ルピン　ドキ,,,CartoonStims/burglar_shoot_boxer_r_no.jpg,audio/pikupatsulupindoki.mp3,,,,,,,,,,,,,,,,,,,,,,,,,,,,,,,,,,,,,,,,,,,,,,,,,,,,,,,,,,,,,,,,,,,,,
,,,,,,,,,R_1DVbzPwBhnmlrtJ,2022-09-05_16h38.36.164,jpn_C03,2022.1.2,MacIntel,60.0024001,,,space,3.9704,0,33,33,47,1,プミ　ピク　ドキ　ピポ,,,CartoonStims/boxer_punch_doctor_r_no.jpg,audio/pumipikudokipipo.mp3,,,,,,,,,,,,,,,,,,,,,,,,,,,,,,,,,,,,,,,,,,,,,,,,,,,,,,,,,,,,,,,,,,,,,
,,,,,,,,,R_1DVbzPwBhnmlrtJ,2022-09-05_16h38.36.164,jpn_C03,2022.1.2,MacIntel,60.0024001,,,space,1.1336,0,34,34,39,1,プミ　ピク　ルピン　シド,,,CartoonStims/burglar_punch_artist_r_no.jpg,audio/pumipikulupinsido.mp3,,,,,,,,,,,,,,,,,,,,,,,,,,,,,,,,,,,,,,,,,,,,,,,,,,,,,,,,,,,,,,,,,,,,,
,,,,,,,,,R_1DVbzPwBhnmlrtJ,2022-09-05_16h38.36.164,jpn_C03,2022.1.2,MacIntel,60.0024001,,,space,1.3066,0,35,35,13,1,トマ　ピク　シド　ムク,,,CartoonStims/artist_point_cowboy_r_no.jpg,audio/tomapikusidomuku.mp3,,,,,,,,,,,,,,,,,,,,,,,,,,,,,,,,,,,,,,,,,,,,,,,,,,,,,,,,,,,,,,,,,,,,,
,,,,,,,,,R_1DVbzPwBhnmlrtJ,2022-09-05_16h38.36.164,jpn_C03,2022.1.2,MacIntel,60.0024001,,,space,1.5869,0,36,36,41,1,プミ　ピク　ホレト　ルピン,,,CartoonStims/chef_punch_burglar_r_no.jpg,audio/pumipikuhoretolupin.mp3,,,,,,,,,,,,,,,,,,,,,,,,,,,,,,,,,,,,,,,,,,,,,,,,,,,,,,,,,,,,,,,,,,,,,
,,,,,,,,,R_1DVbzPwBhnmlrtJ,2022-09-05_16h38.36.164,jpn_C03,2022.1.2,MacIntel,60.0024001,,,space,1.7681,0,37,37,33,1,パツ　ピク　ピポ　ホレト,,,CartoonStims/doctor_shoot_chef_r_no.jpg,audio/patsupikupipohoreto.mp3,,,,,,,,,,,,,,,,,,,,,,,,,,,,,,,,,,,,,,,,,,,,,,,,,,,,,,,,,,,,,,,,,,,,,
,,,,,,,,,R_1DVbzPwBhnmlrtJ,2022-09-05_16h38.36.164,jpn_C03,2022.1.2,MacIntel,60.0024001,,,space,1.2105,0,38,38,32,1,パツ　ピク　ピポ　ルピン,,,CartoonStims/doctor_shoot_burglar_r_no.jpg,audio/patsupikupipolupin.mp3,,,,,,,,,,,,,,,,,,,,,,,,,,,,,,,,,,,,,,,,,,,,,,,,,,,,,,,,,,,,,,,,,,,,,
,,,,,,,,,R_1DVbzPwBhnmlrtJ,2022-09-05_16h38.36.164,jpn_C03,2022.1.2,MacIntel,60.0024001,,,space,3.4395,0,39,39,19,1,ピク　トマ　ムク　シド,,,CartoonStims/cowboy_point_artist_r_no.jpg,audio/pikutomamukusido.mp3,,,,,,,,,,,,,,,,,,,,,,,,,,,,,,,,,,,,,,,,,,,,,,,,,,,,,,,,,,,,,,,,,,,,,
,,,,,,,,,R_1DVbzPwBhnmlrtJ,2022-09-05_16h38.36.164,jpn_C03,2022.1.2,MacIntel,60.0024001,,,space,5.0214,0,40,40,17,1,トマ　ピク　ホレト　ドキ,,,CartoonStims/chef_point_boxer_r_no.jpg,audio/tomapikuhoretodoki.mp3,,,,,,,,,,,,,,,,,,,,,,,,,,,,,,,,,,,,,,,,,,,,,,,,,,,,,,,,,,,,,,,,,,,,,
,,,,,,,,,R_1DVbzPwBhnmlrtJ,2022-09-05_16h38.36.164,jpn_C03,2022.1.2,MacIntel,60.0024001,,,space,2.6772,0,41,41,35,1,パツ　ピク　ドキ　ムク,,,CartoonStims/boxer_shoot_cowboy_r_no.jpg,audio/patsupikudokimuku.mp3,,,,,,,,,,,,,,,,,,,,,,,,,,,,,,,,,,,,,,,,,,,,,,,,,,,,,,,,,,,,,,,,,,,,,
,,,,,,,,,R_1DVbzPwBhnmlrtJ,2022-09-05_16h38.36.164,jpn_C03,2022.1.2,MacIntel,60.0024001,,,space,1.8833,0,42,42,9,1,セル　ピク　ピポ　シド,,,CartoonStims/doctor_kick_artist_r_no.jpg,audio/serupikupiposido.mp3,,,,,,,,,,,,,,,,,,,,,,,,,,,,,,,,,,,,,,,,,,,,,,,,,,,,,,,,,,,,,,,,,,,,,
,,,,,,,,,R_1DVbzPwBhnmlrtJ,2022-09-05_16h38.36.164,jpn_C03,2022.1.2,MacIntel,60.0024001,,,space,2.1322,0,43,43,46,1,ピク　プミ　ドキ　ムク,,,CartoonStims/boxer_punch_cowboy_r_no.jpg,audio/pikupumidokimuku.mp3,,,,,,,,,,,,,,,,,,,,,,,,,,,,,,,,,,,,,,,,,,,,,,,,,,,,,,,,,,,,,,,,,,,,,
,,,,,,,,,R_1DVbzPwBhnmlrtJ,2022-09-05_16h38.36.164,jpn_C03,2022.1.2,MacIntel,60.0024001,,,space,7.6512,0,44,44,20,1,トマ　ピク　ピポ　シド,,,CartoonStims/doctor_point_artist_r_no.jpg,audio/tomapikupiposido.mp3,,,,,,,,,,,,,,,,,,,,,,,,,,,,,,,,,,,,,,,,,,,,,,,,,,,,,,,,,,,,,,,,,,,,,
,,,,,,,,,R_1DVbzPwBhnmlrtJ,2022-09-05_16h38.36.164,jpn_C03,2022.1.2,MacIntel,60.0024001,,,space,1.0049,0,45,45,40,1,プミ　ピク　ホレト　シド,,,CartoonStims/chef_punch_artist_r_no.jpg,audio/pumipikuhoretosido.mp3,,,,,,,,,,,,,,,,,,,,,,,,,,,,,,,,,,,,,,,,,,,,,,,,,,,,,,,,,,,,,,,,,,,,,
,,,,,,,,,R_1DVbzPwBhnmlrtJ,2022-09-05_16h38.36.164,jpn_C03,2022.1.2,MacIntel,60.0024001,,,space,2.8499,0,46,46,37,1,プミ　ピク　シド　ドキ,,,CartoonStims/artist_punch_boxer_r_no.jpg,audio/pumipikusidodoki.mp3,,,,,,,,,,,,,,,,,,,,,,,,,,,,,,,,,,,,,,,,,,,,,,,,,,,,,,,,,,,,,,,,,,,,,
,,,,,,,,,R_1DVbzPwBhnmlrtJ,2022-09-05_16h38.36.164,jpn_C03,2022.1.2,MacIntel,60.0024001,,,space,2.7349,0,47,47,14,1,トマ　ピク　ルピン　ムク,,,CartoonStims/burglar_point_cowboy_r_no.jpg,audio/tomapikulupinmuku.mp3,,,,,,,,,,,,,,,,,,,,,,,,,,,,,,,,,,,,,,,,,,,,,,,,,,,,,,,,,,,,,,,,,,,,,
,,,,,,,,,R_1DVbzPwBhnmlrtJ,2022-09-05_16h38.36.164,jpn_C03,2022.1.2,MacIntel,60.0024001,,,,,,,,,,,,,,,space,3.2871,left,0,8.7514,,,,,,,,,,,,,,,,,,,,,,,,,,,,,,,,,,,,,,,,,,,,,,,,,,,,,,,,,0,0,0,0,1,,,
,,,,,,,,,R_1DVbzPwBhnmlrtJ,2022-09-05_16h38.36.164,jpn_C03,2022.1.2,MacIntel,60.0024001,,,,,,,,,,,,,,,,,,,,,,,,,0,0,0,9,1,CartoonStims/boxer_shoot_doctor_r.jpg,パツ　ピク　ドキ　ピポ,CartoonStims/boxer_point_doctor_r.jpg,right,CartoonStims/boxer_point_doctor_r.jpg,audio/patsupikudokipipo.mp3,"残念！ こちらが正しい画像です。

否定文は起きていないことを示しているのを思い出してください。",,,,,,,,,,,,,,,,,,,,,,,,,,,,,,,,,,,,,,,,,,,,,,,
,,,,,,,,,R_1DVbzPwBhnmlrtJ,2022-09-05_16h38.36.164,jpn_C03,2022.1.2,MacIntel,60.0024001,,,,,,,,,,,,,,,,,left,1,16.9542,,,,,,,,,,,,,,,,,,0,0,0,0,1,,,,,,,,,,,,,,,,,,,,,,,,,,,,,,,,,,,,,,,,,,
,,,,,,,,,R_1DVbzPwBhnmlrtJ,2022-09-05_16h38.36.164,jpn_C03,2022.1.2,MacIntel,60.0024001,,,,,,,,,,,,,,,,,,,,,,,,,0,1,1,10,1,CartoonStims/doctor_punch_cowboy_r.jpg,ピク　パツ　ピポ　ムク,CartoonStims/doctor_shoot_cowboy_r.jpg,left,CartoonStims/doctor_punch_cowboy_r.jpg,audio/pikupatsupipomuku.mp3,"残念！ こちらが正しい画像です。

否定文は起きていないことを示しているのを思い出してください。",,,,,,,,,,,,,,,,,,,,,,,,,,,,,,,,,,,,,,,,,,,,,,,
,,,,,,,,,R_1DVbzPwBhnmlrtJ,2022-09-05_16h38.36.164,jpn_C03,2022.1.2,MacIntel,60.0024001,,,,,,,,,,,,,,,,,right,1,2.7665,0,0,0,0,1,,,,,,,,,,,,,,,,,,,,,,,,,,,,,,,,,,,,,,,,,,,,,,,,,,,,,,,,,,,
,,,,,,,,,R_1DVbzPwBhnmlrtJ,2022-09-05_16h38.36.164,jpn_C03,2022.1.2,MacIntel,60.0024001,,,,,,,,,,,,,,,,,,,,,,,,,0,2,2,7,1,CartoonStims/cowboy_point_chef_r.jpg,ピク　トマ　ムク　ホレト,CartoonStims/cowboy_kick_chef_r.jpg,right,CartoonStims/cowboy_kick_chef_r.jpg,audio/pikutomamukuhoreto.mp3,"残念！ こちらが正しい画像です。

否定文は起きていないことを示しているのを思い出してください。",,,,,,,,,,,,,,,,,,,,,,,,,,,,,,,,,,,,,,,,,,,,,,,
,,,,,,,,,R_1DVbzPwBhnmlrtJ,2022-09-05_16h38.36.164,jpn_C03,2022.1.2,MacIntel,60.0024001,,,,,,,,,,,,,,,,,left,1,2.7401,,,,,,,,,,,,,,,,,,0,0,0,0,1,,,,,,,,,,,,,,,,,,,,,,,,,,,,,,,,,,,,,,,,,,
,,,,,,,,,R_1DVbzPwBhnmlrtJ,2022-09-05_16h38.36.164,jpn_C03,2022.1.2,MacIntel,60.0024001,,,,,,,,,,,,,,,,,,,,,,,,,0,3,3,4,1,CartoonStims/burglar_shoot_doctor_r.jpg,セル　ピク　ルピン　ピポ,CartoonStims/burglar_kick_doctor_r.jpg,left,CartoonStims/burglar_shoot_doctor_r.jpg,audio/serupikulupinpipo.mp3,"残念！ こちらが正しい画像です。

否定文は起きていないことを示しているのを思い出してください。",,,,,,,,,,,,,,,,,,,,,,,,,,,,,,,,,,,,,,,,,,,,,,,
,,,,,,,,,R_1DVbzPwBhnmlrtJ,2022-09-05_16h38.36.164,jpn_C03,2022.1.2,MacIntel,60.0024001,,,,,,,,,,,,,,,,,left,1,2.6035,,,,,,,,,,,,,,,,,,0,0,0,0,1,,,,,,,,,,,,,,,,,,,,,,,,,,,,,,,,,,,,,,,,,,
,,,,,,,,,R_1DVbzPwBhnmlrtJ,2022-09-05_16h38.36.164,jpn_C03,2022.1.2,MacIntel,60.0024001,,,,,,,,,,,,,,,,,,,,,,,,,0,4,4,8,1,CartoonStims/burglar_punch_artist_r.jpg,トマ　ピク　ルピン　シド,CartoonStims/burglar_point_artist_r.jpg,left,CartoonStims/burglar_punch_artist_r.jpg,audio/tomapikulupinsido.mp3,"残念！ こちらが正しい画像です。

否定文は起きていないことを示しているのを思い出してください。",,,,,,,,,,,,,,,,,,,,,,,,,,,,,,,,,,,,,,,,,,,,,,,
,,,,,,,,,R_1DVbzPwBhnmlrtJ,2022-09-05_16h38.36.164,jpn_C03,2022.1.2,MacIntel,60.0024001,,,,,,,,,,,,,,,,,right,1,2.6288,0,0,0,0,1,,,,,,,,,,,,,,,,,,,,,,,,,,,,,,,,,,,,,,,,,,,,,,,,,,,,,,,,,,,
,,,,,,,,,R_1DVbzPwBhnmlrtJ,2022-09-05_16h38.36.164,jpn_C03,2022.1.2,MacIntel,60.0024001,,,,,,,,,,,,,,,,,,,,,,,,,0,5,5,11,1,CartoonStims/chef_shoot_burglar_r.jpg,パツ　ピク　ホレト　ルピン,CartoonStims/chef_kick_burglar_r.jpg,right,CartoonStims/chef_kick_burglar_r.jpg,audio/patsupikuhoretolupin.mp3,"残念！ こちらが正しい画像です。

否定文は起きていないことを示しているのを思い出してください。",,,,,,,,,,,,,,,,,,,,,,,,,,,,,,,,,,,,,,,,,,,,,,,
,,,,,,,,,R_1DVbzPwBhnmlrtJ,2022-09-05_16h38.36.164,jpn_C03,2022.1.2,MacIntel,60.0024001,,,,,,,,,,,,,,,,,left,1,1.4574,,,,,,,,,,,,,,,,,,0,0,0,0,1,,,,,,,,,,,,,,,,,,,,,,,,,,,,,,,,,,,,,,,,,,
,,,,,,,,,R_1DVbzPwBhnmlrtJ,2022-09-05_16h38.36.164,jpn_C03,2022.1.2,MacIntel,60.0024001,,,,,,,,,,,,,,,,,,,,,,,,,0,6,6,6,1,CartoonStims/artist_shoot_boxer_r.jpg,トマ　ピク　シド　ドキ,CartoonStims/artist_point_boxer_r.jpg,left,CartoonStims/artist_shoot_boxer_r.jpg,audio/tomapikusidodoki.mp3,"残念！ こちらが正しい画像です。

否定文は起きていないことを示しているのを思い出してください。",,,,,,,,,,,,,,,,,,,,,,,,,,,,,,,,,,,,,,,,,,,,,,,
,,,,,,,,,R_1DVbzPwBhnmlrtJ,2022-09-05_16h38.36.164,jpn_C03,2022.1.2,MacIntel,60.0024001,,,,,,,,,,,,,,,,,right,1,4.421,0,0,0,0,1,,,,,,,,,,,,,,,,,,,,,,,,,,,,,,,,,,,,,,,,,,,,,,,,,,,,,,,,,,,
,,,,,,,,,R_1DVbzPwBhnmlrtJ,2022-09-05_16h38.36.164,jpn_C03,2022.1.2,MacIntel,60.0024001,,,,,,,,,,,,,,,,,,,,,,,,,0,7,7,1,1,CartoonStims/chef_punch_cowboy_r.jpg,プミ　ピク　ホレト　ムク,CartoonStims/chef_kick_cowboy_r.jpg,right,CartoonStims/chef_kick_cowboy_r.jpg,audio/pumipikuhoretomuku.mp3,"残念！ こちらが正しい画像です。

否定文は起きていないことを示しているのを思い出してください。",,,,,,,,,,,,,,,,,,,,,,,,,,,,,,,,,,,,,,,,,,,,,,,
,,,,,,,,,R_1DVbzPwBhnmlrtJ,2022-09-05_16h38.36.164,jpn_C03,2022.1.2,MacIntel,60.0024001,,,,,,,,,,,,,,,,,left,1,3.454,,,,,,,,,,,,,,,,,,0,0,0,0,1,,,,,,,,,,,,,,,,,,,,,,,,,,,,,,,,,,,,,,,,,,
,,,,,,,,,R_1DVbzPwBhnmlrtJ,2022-09-05_16h38.36.164,jpn_C03,2022.1.2,MacIntel,60.0024001,,,,,,,,,,,,,,,,,,,,,,,,,0,8,8,2,1,CartoonStims/doctor_point_boxer_r.jpg,プミ　ピク　ピポ　ドキ,CartoonStims/doctor_punch_boxer_r.jpg,left,CartoonStims/doctor_point_boxer_r.jpg,audio/pumipikupipodoki.mp3,"残念！ こちらが正しい画像です。

否定文は起きていないことを示しているのを思い出してください。",,,,,,,,,,,,,,,,,,,,,,,,,,,,,,,,,,,,,,,,,,,,,,,
,,,,,,,,,R_1DVbzPwBhnmlrtJ,2022-09-05_16h38.36.164,jpn_C03,2022.1.2,MacIntel,60.0024001,,,,,,,,,,,,,,,,,right,1,4.6386,0,0,0,0,1,,,,,,,,,,,,,,,,,,,,,,,,,,,,,,,,,,,,,,,,,,,,,,,,,,,,,,,,,,,
,,,,,,,,,R_1DVbzPwBhnmlrtJ,2022-09-05_16h38.36.164,jpn_C03,2022.1.2,MacIntel,60.0024001,,,,,,,,,,,,,,,,,,,,,,,,,0,9,9,3,1,CartoonStims/chef_kick_artist_r.jpg,ピク　セル　ホレト　シド,CartoonStims/chef_point_artist_r.jpg,right,CartoonStims/chef_point_artist_r.jpg,audio/pikuseruhoretosido.mp3,"残念！ こちらが正しい画像です。

否定文は起きていないことを示しているのを思い出してください。",,,,,,,,,,,,,,,,,,,,,,,,,,,,,,,,,,,,,,,,,,,,,,,
,,,,,,,,,R_1DVbzPwBhnmlrtJ,2022-09-05_16h38.36.164,jpn_C03,2022.1.2,MacIntel,60.0024001,,,,,,,,,,,,,,,,,right,1,1.3516,0,0,0,0,1,,,,,,,,,,,,,,,,,,,,,,,,,,,,,,,,,,,,,,,,,,,,,,,,,,,,,,,,,,,
,,,,,,,,,R_1DVbzPwBhnmlrtJ,2022-09-05_16h38.36.164,jpn_C03,2022.1.2,MacIntel,60.0024001,,,,,,,,,,,,,,,,,,,,,,,,,0,10,10,5,1,CartoonStims/boxer_kick_cowboy_r.jpg,セル　ピク　ドキ　ムク,CartoonStims/boxer_punch_cowboy_r.jpg,right,CartoonStims/boxer_punch_cowboy_r.jpg,audio/serupikudokimuku.mp3,"残念！ こちらが正しい画像です。

否定文は起きていないことを示しているのを思い出してください。",,,,,,,,,,,,,,,,,,,,,,,,,,,,,,,,,,,,,,,,,,,,,,,
,,,,,,,,,R_1DVbzPwBhnmlrtJ,2022-09-05_16h38.36.164,jpn_C03,2022.1.2,MacIntel,60.0024001,,,,,,,,,,,,,,,,,left,1,1.2169,,,,,,,,,,,,,,,,,,0,0,0,0,1,,,,,,,,,,,,,,,,,,,,,,,,,,,,,,,,,,,,,,,,,,
,,,,,,,,,R_1DVbzPwBhnmlrtJ,2022-09-05_16h38.36.164,jpn_C03,2022.1.2,MacIntel,60.0024001,,,,,,,,,,,,,,,,,,,,,,,,,0,11,11,0,1,CartoonStims/artist_shoot_burglar_r.jpg,ピク　プミ　シド　ルピン,CartoonStims/artist_punch_burglar_r.jpg,left,CartoonStims/artist_shoot_burglar_r.jpg,audio/pikupumisidolupin.mp3,"残念！ こちらが正しい画像です。

否定文は起きていないことを示しているのを思い出してください。",,,,,,,,,,,,,,,,,,,,,,,,,,,,,,,,,,,,,,,,,,,,,,,
,,,,,,,,,R_1DVbzPwBhnmlrtJ,2022-09-05_16h38.36.164,jpn_C03,2022.1.2,MacIntel,60.0024001,,,,,,,,,,,,,CartoonStims/boxer_shoot_burglar_r_no.jpg,,,,,,,,,,,,,,,,,,,,,,,,,,,,,space,0.1753,パツ　ピク　ドキ　ルピン,right,19.4822,,,,,,0,0,0,17,1,,,,,,,,,,,,,,,,,,,,,,,,,ピク　パツ　ドキ　ルピン,パツ　ピク　ドキ　ルピン,1
,,,,,,,,,R_1DVbzPwBhnmlrtJ,2022-09-05_16h38.36.164,jpn_C03,2022.1.2,MacIntel,60.0024001,,,,,,,,,,,,,CartoonStims/doctor_punch_burglar_r_no.jpg,,,,,,,,,,,,,,,,,,,,,,,,,,,,,,,プミ　ピク　ピポ　ルピン,right,16.6343,,,,,,0,1,1,22,1,,,,,,,,,,,,,,,,,,,,,,,,,ピク　プミ　ピポ　ルピン,プミ　ピク　ピポ　ルピン,1
,,,,,,,,,R_1DVbzPwBhnmlrtJ,2022-09-05_16h38.36.164,jpn_C03,2022.1.2,MacIntel,60.0024001,,,,,,,,,,,,,CartoonStims/cowboy_point_doctor_r_no.jpg,,,,,,,,,,,,,,,,,,,,,,,,,,,,,,,トマ　ピク　シド　ピポ,right,8.9199,,,,,,0,2,2,9,1,,,,,,,,,,,,,,,,,,,,,,,,,ピク　トマ　ムク　ピポ,トマ　ピク　ムク　ピポ,1
,,,,,,,,,R_1DVbzPwBhnmlrtJ,2022-09-05_16h38.36.164,jpn_C03,2022.1.2,MacIntel,60.0024001,,,,,,,,,,,,,CartoonStims/boxer_punch_chef_r_no.jpg,,,,,,,,,,,,,,,,,,,,,,,,,,,,,,,プミ　ピク　ドキ　ホレト,right,16.1731,,,,,,0,3,3,23,1,,,,,,,,,,,,,,,,,,,,,,,,,ピク　プミ　ドキ　ホレト,プミ　ピク　ドキ　ホレト,1
,,,,,,,,,R_1DVbzPwBhnmlrtJ,2022-09-05_16h38.36.164,jpn_C03,2022.1.2,MacIntel,60.0024001,,,,,,,,,,,,,CartoonStims/artist_shoot_chef_r_no.jpg,,,,,,,,,,,,,,,,,,,,,,,,,,,,,,,パツ　ピク　シド　ホレト,right,12.1606,,,,,,0,4,4,12,1,,,,,,,,,,,,,,,,,,,,,,,,,ピク　パツ　シド　ホレト,パツ　ピク　シド　ホレト,1
,,,,,,,,,R_1DVbzPwBhnmlrtJ,2022-09-05_16h38.36.164,jpn_C03,2022.1.2,MacIntel,60.0024001,,,,,,,,,,,,,CartoonStims/doctor_shoot_artist_r_no.jpg,,,,,,,,,,,,,,,,,,,,,,,,,,,,,,,パツ　ピク　ピポ　シド,right,6.6601,,,,,,0,5,5,16,1,,,,,,,,,,,,,,,,,,,,,,,,,ピク　パツ　ピポ　シド,パツ　ピク　ピポ　シド,1
,,,,,,,,,R_1DVbzPwBhnmlrtJ,2022-09-05_16h38.36.164,jpn_C03,2022.1.2,MacIntel,60.0024001,,,,,,,,,,,,,CartoonStims/chef_kick_burglar_r_no.jpg,,,,,,,,,,,,,,,,,,,,,,,,,,,,,,,セル　ピク　ホレト　ルピン,right,8.3167,,,,,,0,6,6,2,1,,,,,,,,,,,,,,,,,,,,,,,,,ピク　セル　ホレト　ルピン,セル　ピク　ホレト　ルピン,1
,,,,,,,,,R_1DVbzPwBhnmlrtJ,2022-09-05_16h38.36.164,jpn_C03,2022.1.2,MacIntel,60.0024001,,,,,,,,,,,,,CartoonStims/chef_point_cowboy_r_no.jpg,,,,,,,,,,,,,,,,,,,,,,,,,,,,,,,トマ　ピク　ホレ　ム,right,10.6479,,,,,,0,7,7,8,1,,,,,,,,,,,,,,,,,,,,,,,,,ピク　トマ　ホレト　ムク,トマ　ピク　ホレト　ムク,1
,,,,,,,,,R_1DVbzPwBhnmlrtJ,2022-09-05_16h38.36.164,jpn_C03,2022.1.2,MacIntel,60.0024001,,,,,,,,,,,,,CartoonStims/burglar_shoot_cowboy_r_no.jpg,,,,,,,,,,,,,,,,,,,,,,,,,,,,,,,パツ　ピク　ルピン　ムク,right,18.713,,,,,,0,8,8,13,1,,,,,,,,,,,,,,,,,,,,,,,,,ピク　パツ　ルピン　ムク,パツ　ピク　ルピン　ムク,1
,,,,,,,,,R_1DVbzPwBhnmlrtJ,2022-09-05_16h38.36.164,jpn_C03,2022.1.2,MacIntel,60.0024001,,,,,,,,,,,,,CartoonStims/burglar_shoot_chef_r.jpg,,,,,,,,,,,,,,,,,,,,,,,,,,,,,,,パツ　ｐ,right,3.9013,,,,,,0,9,9,30,1,,,,,,,,,,,,,,,,,,,,,,,,,パツ　ルピン　ホレト,パツ　ルピン　ホレト,0
,,,,,,,,,R_1DVbzPwBhnmlrtJ,2022-09-05_16h38.36.164,jpn_C03,2022.1.2,MacIntel,60.0024001,,,,,,,,,,,,,CartoonStims/boxer_punch_artist_r.jpg,,,,,,,,,,,,,,,,,,,,,,,,,,,,,,,プミ　ピク　ドキ　シド,right,8.367,,,,,,0,10,10,35,1,,,,,,,,,,,,,,,,,,,,,,,,,プミ　ドキ　シド,プミ　ドキ　シド,0
,,,,,,,,,R_1DVbzPwBhnmlrtJ,2022-09-05_16h38.36.164,jpn_C03,2022.1.2,MacIntel,60.0024001,,,,,,,,,,,,,CartoonStims/cowboy_shoot_doctor_r.jpg,,,,,,,,,,,,,,,,,,,,,,,,,,,,,,,パツ　ムク,right,13.3113,,,,,,0,11,11,32,1,,,,,,,,,,,,,,,,,,,,,,,,,パツ　ムク　ピポ,パツ　ムク　ピポ,0
,,,,,,,,,R_1DVbzPwBhnmlrtJ,2022-09-05_16h38.36.164,jpn_C03,2022.1.2,MacIntel,60.0024001,,,,,,,,,,,,,CartoonStims/doctor_kick_cowboy_r_no.jpg,,,,,,,,,,,,,,,,,,,,,,,,,,,,,,,,right,0.1399,,,,,,0,12,12,4,1,,,,,,,,,,,,,,,,,,,,,,,,,ピク　セル　ピポ　ムク,セル　ピク　ピポ　ムク,1
,,,,,,,,,R_1DVbzPwBhnmlrtJ,2022-09-05_16h38.36.164,jpn_C03,2022.1.2,MacIntel,60.0024001,,,,,,,,,,,,,CartoonStims/cowboy_kick_chef_r_no.jpg,,,,,,,,,,,,,,,,,,,,,,,,,,,,,,,セル　ピク　シド,right,11.2287,,,,,,0,13,13,3,1,,,,,,,,,,,,,,,,,,,,,,,,,ピク　セル　ムク　ホレト,セル　ピク　ムク　ホレト,1
,,,,,,,,,R_1DVbzPwBhnmlrtJ,2022-09-05_16h38.36.164,jpn_C03,2022.1.2,MacIntel,60.0024001,,,,,,,,,,,,,CartoonStims/burglar_punch_doctor_r_no.jpg,,,,,,,,,,,,,,,,,,,,,,,,,,,,,,,,right,0.2301,,,,,,0,14,14,19,1,,,,,,,,,,,,,,,,,,,,,,,,,ピク　プミ　ルピン　ピポ,プミ　ピク　ルピン　ピポ,1
,,,,,,,,,R_1DVbzPwBhnmlrtJ,2022-09-05_16h38.36.164,jpn_C03,2022.1.2,MacIntel,60.0024001,,,,,,,,,,,,,CartoonStims/burglar_point_artist_r.jpg,,,,,,,,,,,,,,,,,,,,,,,,,,,,,,,トマ　ルピン　シド,right,8.3079,,,,,,0,15,15,28,1,,,,,,,,,,,,,,,,,,,,,,,,,トマ　ルピン　シド,トマ　ルピン　シド,0
,,,,,,,,,R_1DVbzPwBhnmlrtJ,2022-09-05_16h38.36.164,jpn_C03,2022.1.2,MacIntel,60.0024001,,,,,,,,,,,,,CartoonStims/chef_shoot_doctor_r_no.jpg,,,,,,,,,,,,,,,,,,,,,,,,,,,,,,,パツ　ピク　ホレト　ピポ,right,13.1641,,,,,,0,16,16,14,1,,,,,,,,,,,,,,,,,,,,,,,,,ピク　パツ　ホレト　ピポ,パツ　ピク　ホレト　ピポ,1
,,,,,,,,,R_1DVbzPwBhnmlrtJ,2022-09-05_16h38.36.164,jpn_C03,2022.1.2,MacIntel,60.0024001,,,,,,,,,,,,,CartoonStims/boxer_kick_doctor_r_no.jpg,,,,,,,,,,,,,,,,,,,,,,,,,,,,,,,セル　ピク　ドキ　ピポ,right,6.952,,,,,,0,17,17,5,1,,,,,,,,,,,,,,,,,,,,,,,,,ピク　セル　ドキ　ピポ,セル　ピク　ドキ　ピポ,1
,,,,,,,,,R_1DVbzPwBhnmlrtJ,2022-09-05_16h38.36.164,jpn_C03,2022.1.2,MacIntel,60.0024001,,,,,,,,,,,,,CartoonStims/artist_punch_cowboy_r_no.jpg,,,,,,,,,,,,,,,,,,,,,,,,,,,,,,,プマ　ピク,right,16.2502,,,,,,0,18,18,18,1,,,,,,,,,,,,,,,,,,,,,,,,,ピク　プミ　シド　ムク,プミ　ピク　シド　ムク,1
,,,,,,,,,R_1DVbzPwBhnmlrtJ,2022-09-05_16h38.36.164,jpn_C03,2022.1.2,MacIntel,60.0024001,,,,,,,,,,,,,CartoonStims/chef_shoot_cowboy_r.jpg,,,,,,,,,,,,,,,,,,,,,,,,,,,,,,,,right,0.1438,,,,,,0,19,19,31,1,,,,,,,,,,,,,,,,,,,,,,,,,パツ　ホレト　ムク,パツ　ホレト　ムク,0
,,,,,,,,,R_1DVbzPwBhnmlrtJ,2022-09-05_16h38.36.164,jpn_C03,2022.1.2,MacIntel,60.0024001,,,,,,,,,,,,,CartoonStims/artist_point_boxer_r.jpg,,,,,,,,,,,,,,,,,,,,,,,,,,,,,,,トマ　シド　ドキ,right,22.2787,,,,,,0,20,20,27,1,,,,,,,,,,,,,,,,,,,,,,,,,トマ　シド　ドキ,トマ　シド　ドキ,0
,,,,,,,,,R_1DVbzPwBhnmlrtJ,2022-09-05_16h38.36.164,jpn_C03,2022.1.2,MacIntel,60.0024001,,,,,,,,,,,,,CartoonStims/boxer_kick_cowboy_r.jpg,,,,,,,,,,,,,,,,,,,,,,,,,,,,,,,セル　ドキ　ムク,right,6.976,,,,,,0,21,21,26,1,,,,,,,,,,,,,,,,,,,,,,,,,セル　ドキ　ムク,セル　ドキ　ムク,0
,,,,,,,,,R_1DVbzPwBhnmlrtJ,2022-09-05_16h38.36.164,jpn_C03,2022.1.2,MacIntel,60.0024001,,,,,,,,,,,,,CartoonStims/doctor_punch_boxer_r.jpg,,,,,,,,,,,,,,,,,,,,,,,,,,,,,,,プマ　ピポ　ドキ,right,11.2021,,,,,,0,22,22,34,1,,,,,,,,,,,,,,,,,,,,,,,,,プミ　ピポ　ドキ,プミ　ピポ　ドキ,0
,,,,,,,,,R_1DVbzPwBhnmlrtJ,2022-09-05_16h38.36.164,jpn_C03,2022.1.2,MacIntel,60.0024001,,,,,,,,,,,,,CartoonStims/artist_kick_boxer_r_no.jpg,,,,,,,,,,,,,,,,,,,,,,,,,,,,,,,セル　ピク　シド　ドキ,right,11.3738,,,,,,0,23,23,0,1,,,,,,,,,,,,,,,,,,,,,,,,,ピク　セル　シド　ドキ,セル　ピク　シド　ドキ,1
,,,,,,,,,R_1DVbzPwBhnmlrtJ,2022-09-05_16h38.36.164,jpn_C03,2022.1.2,MacIntel,60.0024001,,,,,,,,,,,,,CartoonStims/burglar_point_chef_r_no.jpg,,,,,,,,,,,,,,,,,,,,,,,,,,,,,,,トマ　ピク　ドキ　ホレト,right,6.6733,,,,,,0,24,24,7,1,,,,,,,,,,,,,,,,,,,,,,,,,ピク　トマ　ルピン　ホレト,トマ　ピク　ルピン　ホレト,1
,,,,,,,,,R_1DVbzPwBhnmlrtJ,2022-09-05_16h38.36.164,jpn_C03,2022.1.2,MacIntel,60.0024001,,,,,,,,,,,,,CartoonStims/artist_point_burglar_r_no.jpg,,,,,,,,,,,,,,,,,,,,,,,,,,,,,,,トマ　ピク　ホレト　ルピン,right,13.5808,,,,,,0,25,25,6,1,,,,,,,,,,,,,,,,,,,,,,,,,ピク　トマ　シド　ルピン,トマ　ピク　シド　ルピン,1
,,,,,,,,,R_1DVbzPwBhnmlrtJ,2022-09-05_16h38.36.164,jpn_C03,2022.1.2,MacIntel,60.0024001,,,,,,,,,,,,,CartoonStims/doctor_kick_chef_r.jpg,,,,,,,,,,,,,,,,,,,,,,,,,,,,,,,セル　ピポ　ホレト,right,10.7827,,,,,,0,26,26,25,1,,,,,,,,,,,,,,,,,,,,,,,,,セル　ピポ　ホレト,セル　ピポ　ホレト,0
,,,,,,,,,R_1DVbzPwBhnmlrtJ,2022-09-05_16h38.36.164,jpn_C03,2022.1.2,MacIntel,60.0024001,,,,,,,,,,,,,CartoonStims/burglar_kick_artist_r_no.jpg,,,,,,,,,,,,,,,,,,,,,,,,,,,,,,,セル　ピポ　ルピン　シド,right,18.0044,,,,,,0,27,27,1,1,,,,,,,,,,,,,,,,,,,,,,,,,ピク　セル　ルピン　シド,セル　ピク　ルピン　シド,1
,,,,,,,,,R_1DVbzPwBhnmlrtJ,2022-09-05_16h38.36.164,jpn_C03,2022.1.2,MacIntel,60.0024001,,,,,,,,,,,,,CartoonStims/chef_punch_boxer_r_no.jpg,,,,,,,,,,,,,,,,,,,,,,,,,,,,,,,プマ　ピク　ホレト　ドキ,right,37.4137,,,,,,0,28,28,20,1,,,,,,,,,,,,,,,,,,,,,,,,,ピク　プミ　ホレト　ドキ,プミ　ピク　ホレト　ドキ,1
,,,,,,,,,R_1DVbzPwBhnmlrtJ,2022-09-05_16h38.36.164,jpn_C03,2022.1.2,MacIntel,60.0024001,,,,,,,,,,,,,CartoonStims/doctor_point_boxer_r_no.jpg,,,,,,,,,,,,,,,,,,,,,,,,,,,,,,,トマ　ピク　ピポ　ドキ,right,11.1176,,,,,,0,29,29,10,1,,,,,,,,,,,,,,,,,,,,,,,,,ピク　トマ　ピポ　ドキ,トマ　ピク　ピポ　ドキ,1
,,,,,,,,,R_1DVbzPwBhnmlrtJ,2022-09-05_16h38.36.164,jpn_C03,2022.1.2,MacIntel,60.0024001,,,,,,,,,,,,,CartoonStims/cowboy_punch_artist_r_no.jpg,,,,,,,,,,,,,,,,,,,,,,,,,,,,,,,プマ　ピク　ムク　シド,right,13.0512,,,,,,0,30,30,21,1,,,,,,,,,,,,,,,,,,,,,,,,,ピク　プミ　ムク　シド,プミ　ピク　ムク　シド,1
,,,,,,,,,R_1DVbzPwBhnmlrtJ,2022-09-05_16h38.36.164,jpn_C03,2022.1.2,MacIntel,60.0024001,,,,,,,,,,,,,CartoonStims/chef_point_burglar_r.jpg,,,,,,,,,,,,,,,,,,,,,,,,,,,,,,,トマ　ホレト　る,right,7.2891,,,,,,0,31,31,29,1,,,,,,,,,,,,,,,,,,,,,,,,,トマ　ホレト　ルピン,トマ　ホレト　ルピン,0
,,,,,,,,,R_1DVbzPwBhnmlrtJ,2022-09-05_16h38.36.164,jpn_C03,2022.1.2,MacIntel,60.0024001,,,,,,,,,,,,,CartoonStims/cowboy_shoot_boxer_r_no.jpg,,,,,,,,,,,,,,,,,,,,,,,,,,,,,,,パツ　ピク　ムク　ドキ,right,11.6555,,,,,,0,32,32,15,1,,,,,,,,,,,,,,,,,,,,,,,,,ピク　パツ　ムク　ドキ,パツ　ピク　ムク　ドキ,1
,,,,,,,,,R_1DVbzPwBhnmlrtJ,2022-09-05_16h38.36.164,jpn_C03,2022.1.2,MacIntel,60.0024001,,,,,,,,,,,,,CartoonStims/cowboy_kick_burglar_r.jpg,,,,,,,,,,,,,,,,,,,,,,,,,,,,,,,セル　ムク　ルピン,right,7.217,,,,,,0,33,33,24,1,,,,,,,,,,,,,,,,,,,,,,,,,セル　ムク　ルピン,セル　ムク　ルピン,0
,,,,,,,,,R_1DVbzPwBhnmlrtJ,2022-09-05_16h38.36.164,jpn_C03,2022.1.2,MacIntel,60.0024001,,,,,,,,,,,,,CartoonStims/artist_punch_burglar_r.jpg,,,,,,,,,,,,,,,,,,,,,,,,,,,,,,,プマ　シド　ルピン,right,7.2852,,,,,,0,34,34,33,1,,,,,,,,,,,,,,,,,,,,,,,,,プミ　シド　ルピン,プミ　シド　ルピン,0
,,,,,,,,,R_1DVbzPwBhnmlrtJ,2022-09-05_16h38.36.164,jpn_C03,2022.1.2,MacIntel,60.0024001,,,,,,,,,,,,,CartoonStims/boxer_point_artist_r_no.jpg,,,,,,,,,,,,,,,,,,,,,,,,,,,,,,,トマ　ピク　ドキ　シド,right,7.7084,,,,,,0,35,35,11,1,,,,,,,,,,,,,,,,,,,,,,,,,ピク　トマ　ドキ　シド,トマ　ピク　ドキ　シド,1
,,,,,,,,,R_1DVbzPwBhnmlrtJ,2022-09-05_16h38.36.164,jpn_C03,2022.1.2,MacIntel,60.0024001,,,,,,,,,,,,,,,,,,,,,,,,,,,,,,,,,,,,,,,,,,,,,,,,,,,,,,,,,,,space,0.4154,0,2,2,2,1,VNegCondition.xlsx,"ここではこの言語における否定の文を学習していただきます。引き続き注意して、 聞こえた音を復唱してください。

スペースキーを押してください。",1,VNegFCT.xlsx,ここからクイズが始まります。 スクリーンに表示されるテキストに合うイメージを選んでください。,NegTest.xlsx,1,最後にここまで学んだことをアウトプットしていただきます。 テキストボックスにあるイメージを描写するテキストを入力してください。 このタスクでは、 答え合わせは行いません。,0,これですべての実験が終わりました。 お疲れさまです。 この後はアンケートに答えていただきます。,,,,,,,,