key_resp_instr_a.keys,key_resp_instr_a.rt,key_resp_instr_b.keys,key_resp_instr_b.rt,dummy.thisRepN,dummy.thisTrialN,dummy.thisN,dummy.thisIndex,dummy.ran,participant,date,expName,psychopyVersion,OS,frameRate,key_resp_instr1.keys,key_resp_instr1.rt,key_resp.keys,key_resp.rt,exp_loop.thisRepN,exp_loop.thisTrialN,exp_loop.thisN,exp_loop.thisIndex,exp_loop.ran,Word,English,Flip,Path,Audio,key_resp_instr2.keys,key_resp_instr2.rt,key_resp_fct.keys,key_resp_fct.corr,key_resp_fct.rt,trials.thisRepN,trials.thisTrialN,trials.thisN,trials.thisIndex,trials.ran,fct_loop.thisRepN,fct_loop.thisTrialN,fct_loop.thisN,fct_loop.thisIndex,fct_loop.ran,left_img,word,right_img,correctans,correct_img,audio,incorrect_feedback,trials_2.thisRepN,trials_2.thisTrialN,trials_2.thisN,trials_2.thisIndex,trials_2.ran,key_resp_instr3.keys,key_resp_instr3.rt,textbox.text,key_resp_2.keys,key_resp_2.rt,fb_yn.thisRepN,fb_yn.thisTrialN,fb_yn.thisN,fb_yn.thisIndex,fb_yn.ran,gather_loop.thisRepN,gather_loop.thisTrialN,gather_loop.thisN,gather_loop.thisIndex,gather_loop.ran,Text,Wordbank,key_resp_instr4.keys,key_resp_instr4.rt,master_loop.thisRepN,master_loop.thisTrialN,master_loop.thisN,master_loop.thisIndex,master_loop.ran,exposure_file,instr_1,exp_reps,fct_file,instr_2,gather_file,gather_reps,instr_3,fReps,instr_4,trials_3.thisRepN,trials_3.thisTrialN,trials_3.thisN,trials_3.thisIndex,trials_3.ran,NegVSentence,VNegSentence,NegTF
space,7.283,space,14.851,0,0,0,0,1,R_3sbpeXZ6cpDH6SI,2022-07-04_12h23.39.624,jpn_C02,2022.1.2,Win32,59.88023952,,,,,,,,,,,,,,,,,,,,,,,,,,,,,,,,,,,,,,,,,,,,,,,,,,,,,,,,,,,,,,,,,,,,,,,,,,,,,,,,,,,
,,,,,,,,,R_3sbpeXZ6cpDH6SI,2022-07-04_12h23.39.624,jpn_C02,2022.1.2,Win32,59.88023952,space,11.646,space,6.113,0,0,0,4,1,ピポ,doctor,,CartoonStims/doctor_r.jpg,audio/pipo.mp3,,,,,,,,,,,,,,,,,,,,,,,,,,,,,,,,,,,,,,,,,,,,,,,,,,,,,,,,,,,,,,,,,,,,,
,,,,,,,,,R_3sbpeXZ6cpDH6SI,2022-07-04_12h23.39.624,jpn_C02,2022.1.2,Win32,59.88023952,,,space,8.159,0,1,1,5,1,ドキ,boxer,,CartoonStims/boxer_r.jpg,audio/doki.mp3,,,,,,,,,,,,,,,,,,,,,,,,,,,,,,,,,,,,,,,,,,,,,,,,,,,,,,,,,,,,,,,,,,,,,
,,,,,,,,,R_3sbpeXZ6cpDH6SI,2022-07-04_12h23.39.624,jpn_C02,2022.1.2,Win32,59.88023952,,,space,3.007,0,2,2,3,1,ムク,cowboy,,CartoonStims/cowboy_r.jpg,audio/muku.mp3,,,,,,,,,,,,,,,,,,,,,,,,,,,,,,,,,,,,,,,,,,,,,,,,,,,,,,,,,,,,,,,,,,,,,
,,,,,,,,,R_3sbpeXZ6cpDH6SI,2022-07-04_12h23.39.624,jpn_C02,2022.1.2,Win32,59.88023952,,,space,5.268,0,3,3,2,1,ホレト,chef,,CartoonStims/chef_r.jpg,audio/horeto.mp3,,,,,,,,,,,,,,,,,,,,,,,,,,,,,,,,,,,,,,,,,,,,,,,,,,,,,,,,,,,,,,,,,,,,,
,,,,,,,,,R_3sbpeXZ6cpDH6SI,2022-07-04_12h23.39.624,jpn_C02,2022.1.2,Win32,59.88023952,,,space,3.54,0,4,4,0,1,シド,artist,,CartoonStims/artist_r.jpg,audio/sido.mp3,,,,,,,,,,,,,,,,,,,,,,,,,,,,,,,,,,,,,,,,,,,,,,,,,,,,,,,,,,,,,,,,,,,,,
,,,,,,,,,R_3sbpeXZ6cpDH6SI,2022-07-04_12h23.39.624,jpn_C02,2022.1.2,Win32,59.88023952,,,space,4.615,0,5,5,1,1,ルピン,burglar,,CartoonStims/burglar_r.jpg,audio/lupin.mp3,,,,,,,,,,,,,,,,,,,,,,,,,,,,,,,,,,,,,,,,,,,,,,,,,,,,,,,,,,,,,,,,,,,,,
,,,,,,,,,R_3sbpeXZ6cpDH6SI,2022-07-04_12h23.39.624,jpn_C02,2022.1.2,Win32,59.88023952,,,space,4.627,1,0,6,0,1,シド,artist,,CartoonStims/artist_r.jpg,audio/sido.mp3,,,,,,,,,,,,,,,,,,,,,,,,,,,,,,,,,,,,,,,,,,,,,,,,,,,,,,,,,,,,,,,,,,,,,
,,,,,,,,,R_3sbpeXZ6cpDH6SI,2022-07-04_12h23.39.624,jpn_C02,2022.1.2,Win32,59.88023952,,,space,3.86,1,1,7,4,1,ピポ,doctor,,CartoonStims/doctor_r.jpg,audio/pipo.mp3,,,,,,,,,,,,,,,,,,,,,,,,,,,,,,,,,,,,,,,,,,,,,,,,,,,,,,,,,,,,,,,,,,,,,
,,,,,,,,,R_3sbpeXZ6cpDH6SI,2022-07-04_12h23.39.624,jpn_C02,2022.1.2,Win32,59.88023952,,,space,3.39,1,2,8,3,1,ムク,cowboy,,CartoonStims/cowboy_r.jpg,audio/muku.mp3,,,,,,,,,,,,,,,,,,,,,,,,,,,,,,,,,,,,,,,,,,,,,,,,,,,,,,,,,,,,,,,,,,,,,
,,,,,,,,,R_3sbpeXZ6cpDH6SI,2022-07-04_12h23.39.624,jpn_C02,2022.1.2,Win32,59.88023952,,,space,1.76,1,3,9,5,1,ドキ,boxer,,CartoonStims/boxer_r.jpg,audio/doki.mp3,,,,,,,,,,,,,,,,,,,,,,,,,,,,,,,,,,,,,,,,,,,,,,,,,,,,,,,,,,,,,,,,,,,,,
,,,,,,,,,R_3sbpeXZ6cpDH6SI,2022-07-04_12h23.39.624,jpn_C02,2022.1.2,Win32,59.88023952,,,space,2.895,1,4,10,2,1,ホレト,chef,,CartoonStims/chef_r.jpg,audio/horeto.mp3,,,,,,,,,,,,,,,,,,,,,,,,,,,,,,,,,,,,,,,,,,,,,,,,,,,,,,,,,,,,,,,,,,,,,
,,,,,,,,,R_3sbpeXZ6cpDH6SI,2022-07-04_12h23.39.624,jpn_C02,2022.1.2,Win32,59.88023952,,,space,1.706,1,5,11,1,1,ルピン,burglar,,CartoonStims/burglar_r.jpg,audio/lupin.mp3,,,,,,,,,,,,,,,,,,,,,,,,,,,,,,,,,,,,,,,,,,,,,,,,,,,,,,,,,,,,,,,,,,,,,
,,,,,,,,,R_3sbpeXZ6cpDH6SI,2022-07-04_12h23.39.624,jpn_C02,2022.1.2,Win32,59.88023952,,,space,0.938,2,0,12,5,1,ドキ,boxer,,CartoonStims/boxer_r.jpg,audio/doki.mp3,,,,,,,,,,,,,,,,,,,,,,,,,,,,,,,,,,,,,,,,,,,,,,,,,,,,,,,,,,,,,,,,,,,,,
,,,,,,,,,R_3sbpeXZ6cpDH6SI,2022-07-04_12h23.39.624,jpn_C02,2022.1.2,Win32,59.88023952,,,space,0.773,2,1,13,1,1,ルピン,burglar,,CartoonStims/burglar_r.jpg,audio/lupin.mp3,,,,,,,,,,,,,,,,,,,,,,,,,,,,,,,,,,,,,,,,,,,,,,,,,,,,,,,,,,,,,,,,,,,,,
,,,,,,,,,R_3sbpeXZ6cpDH6SI,2022-07-04_12h23.39.624,jpn_C02,2022.1.2,Win32,59.88023952,,,space,0.937,2,2,14,4,1,ピポ,doctor,,CartoonStims/doctor_r.jpg,audio/pipo.mp3,,,,,,,,,,,,,,,,,,,,,,,,,,,,,,,,,,,,,,,,,,,,,,,,,,,,,,,,,,,,,,,,,,,,,
,,,,,,,,,R_3sbpeXZ6cpDH6SI,2022-07-04_12h23.39.624,jpn_C02,2022.1.2,Win32,59.88023952,,,space,0.826,2,3,15,3,1,ムク,cowboy,,CartoonStims/cowboy_r.jpg,audio/muku.mp3,,,,,,,,,,,,,,,,,,,,,,,,,,,,,,,,,,,,,,,,,,,,,,,,,,,,,,,,,,,,,,,,,,,,,
,,,,,,,,,R_3sbpeXZ6cpDH6SI,2022-07-04_12h23.39.624,jpn_C02,2022.1.2,Win32,59.88023952,,,space,1.102,2,4,16,2,1,ホレト,chef,,CartoonStims/chef_r.jpg,audio/horeto.mp3,,,,,,,,,,,,,,,,,,,,,,,,,,,,,,,,,,,,,,,,,,,,,,,,,,,,,,,,,,,,,,,,,,,,,
,,,,,,,,,R_3sbpeXZ6cpDH6SI,2022-07-04_12h23.39.624,jpn_C02,2022.1.2,Win32,59.88023952,,,space,0.742,2,5,17,0,1,シド,artist,,CartoonStims/artist_r.jpg,audio/sido.mp3,,,,,,,,,,,,,,,,,,,,,,,,,,,,,,,,,,,,,,,,,,,,,,,,,,,,,,,,,,,,,,,,,,,,,
,,,,,,,,,R_3sbpeXZ6cpDH6SI,2022-07-04_12h23.39.624,jpn_C02,2022.1.2,Win32,59.88023952,,,,,,,,,,,,,,,space,8.038,left,1,1.449,0,0,0,0,1,,,,,,,,,,,,,,,,,,,,,,,,,,,,,,,,,,,,,,,,,,,,,,,,,,,,,,,,,,,
,,,,,,,,,R_3sbpeXZ6cpDH6SI,2022-07-04_12h23.39.624,jpn_C02,2022.1.2,Win32,59.88023952,,,,,,,,,,,,,,,,,,,,,,,,,0,0,0,3,1,CartoonStims/cowboy_r.jpg,ムク,CartoonStims/doctor_r.jpg,left,CartoonStims/cowboy_r.jpg,audio/muku.mp3,残念！ こちらが正しい画像です。,,,,,,,,,,,,,,,,,,,,,,,,,,,,,,,,,,,,,,,,,,,,,,,
,,,,,,,,,R_3sbpeXZ6cpDH6SI,2022-07-04_12h23.39.624,jpn_C02,2022.1.2,Win32,59.88023952,,,,,,,,,,,,,,,,,right,1,0.74,,,,,,,,,,,,,,,,,,0,0,0,0,1,,,,,,,,,,,,,,,,,,,,,,,,,,,,,,,,,,,,,,,,,,
,,,,,,,,,R_3sbpeXZ6cpDH6SI,2022-07-04_12h23.39.624,jpn_C02,2022.1.2,Win32,59.88023952,,,,,,,,,,,,,,,,,,,,,,,,,0,1,1,7,1,CartoonStims/cowboy_r.jpg,ルピン,CartoonStims/burglar_r.jpg,right,CartoonStims/burglar_r.jpg,audio/lupin.mp3,残念！ こちらが正しい画像です。,,,,,,,,,,,,,,,,,,,,,,,,,,,,,,,,,,,,,,,,,,,,,,,
,,,,,,,,,R_3sbpeXZ6cpDH6SI,2022-07-04_12h23.39.624,jpn_C02,2022.1.2,Win32,59.88023952,,,,,,,,,,,,,,,,,left,1,1.055,0,0,0,0,1,,,,,,,,,,,,,,,,,,,,,,,,,,,,,,,,,,,,,,,,,,,,,,,,,,,,,,,,,,,
,,,,,,,,,R_3sbpeXZ6cpDH6SI,2022-07-04_12h23.39.624,jpn_C02,2022.1.2,Win32,59.88023952,,,,,,,,,,,,,,,,,,,,,,,,,0,2,2,0,1,CartoonStims/artist_r.jpg,シド,CartoonStims/burglar_r.jpg,left,CartoonStims/artist_r.jpg,audio/sido.mp3,残念！ こちらが正しい画像です。,,,,,,,,,,,,,,,,,,,,,,,,,,,,,,,,,,,,,,,,,,,,,,,
,,,,,,,,,R_3sbpeXZ6cpDH6SI,2022-07-04_12h23.39.624,jpn_C02,2022.1.2,Win32,59.88023952,,,,,,,,,,,,,,,,,right,1,0.788,,,,,,,,,,,,,,,,,,0,0,0,0,1,,,,,,,,,,,,,,,,,,,,,,,,,,,,,,,,,,,,,,,,,,
,,,,,,,,,R_3sbpeXZ6cpDH6SI,2022-07-04_12h23.39.624,jpn_C02,2022.1.2,Win32,59.88023952,,,,,,,,,,,,,,,,,,,,,,,,,0,3,3,10,1,CartoonStims/artist_r.jpg,ピポ,CartoonStims/doctor_r.jpg,right,CartoonStims/doctor_r.jpg,audio/pipo.mp3,残念！ こちらが正しい画像です。,,,,,,,,,,,,,,,,,,,,,,,,,,,,,,,,,,,,,,,,,,,,,,,
,,,,,,,,,R_3sbpeXZ6cpDH6SI,2022-07-04_12h23.39.624,jpn_C02,2022.1.2,Win32,59.88023952,,,,,,,,,,,,,,,,,right,1,0.87,,,,,,,,,,,,,,,,,,0,0,0,0,1,,,,,,,,,,,,,,,,,,,,,,,,,,,,,,,,,,,,,,,,,,
,,,,,,,,,R_3sbpeXZ6cpDH6SI,2022-07-04_12h23.39.624,jpn_C02,2022.1.2,Win32,59.88023952,,,,,,,,,,,,,,,,,,,,,,,,,0,4,4,8,1,CartoonStims/doctor_r.jpg,ホレト,CartoonStims/chef_r.jpg,right,CartoonStims/chef_r.jpg,audio/horeto.mp3,残念！ こちらが正しい画像です。,,,,,,,,,,,,,,,,,,,,,,,,,,,,,,,,,,,,,,,,,,,,,,,
,,,,,,,,,R_3sbpeXZ6cpDH6SI,2022-07-04_12h23.39.624,jpn_C02,2022.1.2,Win32,59.88023952,,,,,,,,,,,,,,,,,left,1,1.455,0,0,0,0,1,,,,,,,,,,,,,,,,,,,,,,,,,,,,,,,,,,,,,,,,,,,,,,,,,,,,,,,,,,,
,,,,,,,,,R_3sbpeXZ6cpDH6SI,2022-07-04_12h23.39.624,jpn_C02,2022.1.2,Win32,59.88023952,,,,,,,,,,,,,,,,,,,,,,,,,0,5,5,4,1,CartoonStims/doctor_r.jpg,ピポ,CartoonStims/boxer_r.jpg,left,CartoonStims/doctor_r.jpg,audio/pipo.mp3,残念！ こちらが正しい画像です。,,,,,,,,,,,,,,,,,,,,,,,,,,,,,,,,,,,,,,,,,,,,,,,
,,,,,,,,,R_3sbpeXZ6cpDH6SI,2022-07-04_12h23.39.624,jpn_C02,2022.1.2,Win32,59.88023952,,,,,,,,,,,,,,,,,left,1,1.025,0,0,0,0,1,,,,,,,,,,,,,,,,,,,,,,,,,,,,,,,,,,,,,,,,,,,,,,,,,,,,,,,,,,,
,,,,,,,,,R_3sbpeXZ6cpDH6SI,2022-07-04_12h23.39.624,jpn_C02,2022.1.2,Win32,59.88023952,,,,,,,,,,,,,,,,,,,,,,,,,0,6,6,2,1,CartoonStims/chef_r.jpg,ホレト,CartoonStims/cowboy_r.jpg,left,CartoonStims/chef_r.jpg,audio/horeto.mp3,残念！ こちらが正しい画像です。,,,,,,,,,,,,,,,,,,,,,,,,,,,,,,,,,,,,,,,,,,,,,,,
,,,,,,,,,R_3sbpeXZ6cpDH6SI,2022-07-04_12h23.39.624,jpn_C02,2022.1.2,Win32,59.88023952,,,,,,,,,,,,,,,,,right,1,0.653,,,,,,,,,,,,,,,,,,0,0,0,0,1,,,,,,,,,,,,,,,,,,,,,,,,,,,,,,,,,,,,,,,,,,
,,,,,,,,,R_3sbpeXZ6cpDH6SI,2022-07-04_12h23.39.624,jpn_C02,2022.1.2,Win32,59.88023952,,,,,,,,,,,,,,,,,,,,,,,,,0,7,7,11,1,CartoonStims/burglar_r.jpg,ドキ,CartoonStims/boxer_r.jpg,right,CartoonStims/boxer_r.jpg,audio/doki.mp3,残念！ こちらが正しい画像です。,,,,,,,,,,,,,,,,,,,,,,,,,,,,,,,,,,,,,,,,,,,,,,,
,,,,,,,,,R_3sbpeXZ6cpDH6SI,2022-07-04_12h23.39.624,jpn_C02,2022.1.2,Win32,59.88023952,,,,,,,,,,,,,,,,,right,1,1.094,,,,,,,,,,,,,,,,,,0,0,0,0,1,,,,,,,,,,,,,,,,,,,,,,,,,,,,,,,,,,,,,,,,,,
,,,,,,,,,R_3sbpeXZ6cpDH6SI,2022-07-04_12h23.39.624,jpn_C02,2022.1.2,Win32,59.88023952,,,,,,,,,,,,,,,,,,,,,,,,,0,8,8,6,1,CartoonStims/chef_r.jpg,シド,CartoonStims/artist_r.jpg,right,CartoonStims/artist_r.jpg,audio/sido.mp3,残念！ こちらが正しい画像です。,,,,,,,,,,,,,,,,,,,,,,,,,,,,,,,,,,,,,,,,,,,,,,,
,,,,,,,,,R_3sbpeXZ6cpDH6SI,2022-07-04_12h23.39.624,jpn_C02,2022.1.2,Win32,59.88023952,,,,,,,,,,,,,,,,,right,1,2.022,,,,,,,,,,,,,,,,,,0,0,0,0,1,,,,,,,,,,,,,,,,,,,,,,,,,,,,,,,,,,,,,,,,,,
,,,,,,,,,R_3sbpeXZ6cpDH6SI,2022-07-04_12h23.39.624,jpn_C02,2022.1.2,Win32,59.88023952,,,,,,,,,,,,,,,,,,,,,,,,,0,9,9,9,1,CartoonStims/boxer_r.jpg,ムク,CartoonStims/cowboy_r.jpg,right,CartoonStims/cowboy_r.jpg,audio/muku.mp3,残念！ こちらが正しい画像です。,,,,,,,,,,,,,,,,,,,,,,,,,,,,,,,,,,,,,,,,,,,,,,,
,,,,,,,,,R_3sbpeXZ6cpDH6SI,2022-07-04_12h23.39.624,jpn_C02,2022.1.2,Win32,59.88023952,,,,,,,,,,,,,,,,,left,1,0.704,0,0,0,0,1,,,,,,,,,,,,,,,,,,,,,,,,,,,,,,,,,,,,,,,,,,,,,,,,,,,,,,,,,,,
,,,,,,,,,R_3sbpeXZ6cpDH6SI,2022-07-04_12h23.39.624,jpn_C02,2022.1.2,Win32,59.88023952,,,,,,,,,,,,,,,,,,,,,,,,,0,10,10,5,1,CartoonStims/boxer_r.jpg,ドキ,CartoonStims/artist_r.jpg,left,CartoonStims/boxer_r.jpg,audio/doki.mp3,残念！ こちらが正しい画像です。,,,,,,,,,,,,,,,,,,,,,,,,,,,,,,,,,,,,,,,,,,,,,,,
,,,,,,,,,R_3sbpeXZ6cpDH6SI,2022-07-04_12h23.39.624,jpn_C02,2022.1.2,Win32,59.88023952,,,,,,,,,,,,,,,,,left,1,0.608,0,0,0,0,1,,,,,,,,,,,,,,,,,,,,,,,,,,,,,,,,,,,,,,,,,,,,,,,,,,,,,,,,,,,
,,,,,,,,,R_3sbpeXZ6cpDH6SI,2022-07-04_12h23.39.624,jpn_C02,2022.1.2,Win32,59.88023952,,,,,,,,,,,,,,,,,,,,,,,,,0,11,11,1,1,CartoonStims/burglar_r.jpg,ルピン,CartoonStims/chef_r.jpg,left,CartoonStims/burglar_r.jpg,audio/lupin.mp3,残念！ こちらが正しい画像です。,,,,,,,,,,,,,,,,,,,,,,,,,,,,,,,,,,,,,,,,,,,,,,,
,,,,,,,,,R_3sbpeXZ6cpDH6SI,2022-07-04_12h23.39.624,jpn_C02,2022.1.2,Win32,59.88023952,,,,,,,,,,,,,,,,,,,,,,,,,,,,,,,,,,,,,,,,,,space,5.863,シド,right,9.984,0,0,0,0,1,,,,,,,,,,,,,,,,,,,,,,,,,,,,,,,,
,,,,,,,,,R_3sbpeXZ6cpDH6SI,2022-07-04_12h23.39.624,jpn_C02,2022.1.2,Win32,59.88023952,,,,,,,,,,,,,CartoonStims/artist_r.jpg,audio/sido.mp3,,,,,,,,,,,,,,,,,,,,,,,,,,,,,,,,,,,,,,0,0,0,0,1,シド,,,,,,,,,,,,,,,,,,,,,,,,,,
,,,,,,,,,R_3sbpeXZ6cpDH6SI,2022-07-04_12h23.39.624,jpn_C02,2022.1.2,Win32,59.88023952,,,,,,,,,,,,,,,,,,,,,,,,,,,,,,,,,,,,,,,,,,,,ルピン,right,5.446,0,0,0,0,1,,,,,,,,,,,,,,,,,,,,,,,,,,,,,,,,
,,,,,,,,,R_3sbpeXZ6cpDH6SI,2022-07-04_12h23.39.624,jpn_C02,2022.1.2,Win32,59.88023952,,,,,,,,,,,,,CartoonStims/burglar_r.jpg,audio/lupin.mp3,,,,,,,,,,,,,,,,,,,,,,,,,,,,,,,,,,,,,,0,1,1,1,1,ルピン,,,,,,,,,,,,,,,,,,,,,,,,,,
,,,,,,,,,R_3sbpeXZ6cpDH6SI,2022-07-04_12h23.39.624,jpn_C02,2022.1.2,Win32,59.88023952,,,,,,,,,,,,,,,,,,,,,,,,,,,,,,,,,,,,,,,,,,,,ムク,right,12.223,0,0,0,0,1,,,,,,,,,,,,,,,,,,,,,,,,,,,,,,,,
,,,,,,,,,R_3sbpeXZ6cpDH6SI,2022-07-04_12h23.39.624,jpn_C02,2022.1.2,Win32,59.88023952,,,,,,,,,,,,,CartoonStims/cowboy_r.jpg,audio/muku.mp3,,,,,,,,,,,,,,,,,,,,,,,,,,,,,,,,,,,,,,0,2,2,3,1,ムク,,,,,,,,,,,,,,,,,,,,,,,,,,
,,,,,,,,,R_3sbpeXZ6cpDH6SI,2022-07-04_12h23.39.624,jpn_C02,2022.1.2,Win32,59.88023952,,,,,,,,,,,,,,,,,,,,,,,,,,,,,,,,,,,,,,,,,,,,ピポ,right,6.052,0,0,0,0,1,,,,,,,,,,,,,,,,,,,,,,,,,,,,,,,,
,,,,,,,,,R_3sbpeXZ6cpDH6SI,2022-07-04_12h23.39.624,jpn_C02,2022.1.2,Win32,59.88023952,,,,,,,,,,,,,CartoonStims/doctor_r.jpg,audio/pipo.mp3,,,,,,,,,,,,,,,,,,,,,,,,,,,,,,,,,,,,,,0,3,3,4,1,ピポ,,,,,,,,,,,,,,,,,,,,,,,,,,
,,,,,,,,,R_3sbpeXZ6cpDH6SI,2022-07-04_12h23.39.624,jpn_C02,2022.1.2,Win32,59.88023952,,,,,,,,,,,,,,,,,,,,,,,,,,,,,,,,,,,,,,,,,,,,ドキ,right,6.03,0,0,0,0,1,,,,,,,,,,,,,,,,,,,,,,,,,,,,,,,,
,,,,,,,,,R_3sbpeXZ6cpDH6SI,2022-07-04_12h23.39.624,jpn_C02,2022.1.2,Win32,59.88023952,,,,,,,,,,,,,CartoonStims/boxer_r.jpg,audio/doki.mp3,,,,,,,,,,,,,,,,,,,,,,,,,,,,,,,,,,,,,,0,4,4,5,1,ドキ,,,,,,,,,,,,,,,,,,,,,,,,,,
,,,,,,,,,R_3sbpeXZ6cpDH6SI,2022-07-04_12h23.39.624,jpn_C02,2022.1.2,Win32,59.88023952,,,,,,,,,,,,,,,,,,,,,,,,,,,,,,,,,,,,,,,,,,,,ピポ,right,4.191,0,0,0,0,1,,,,,,,,,,,,,,,,,,,,,,,,,,,,,,,,
,,,,,,,,,R_3sbpeXZ6cpDH6SI,2022-07-04_12h23.39.624,jpn_C02,2022.1.2,Win32,59.88023952,,,,,,,,,,,,,CartoonStims/chef_r.jpg,audio/horeto.mp3,,,,,,,,,,,,,,,,,,,,,,,,,,,,,,,,,,,,,,0,5,5,2,1,ホレト,,,,,,,,,,,,,,,,,,,,,,,,,,
,,,,,,,,,R_3sbpeXZ6cpDH6SI,2022-07-04_12h23.39.624,jpn_C02,2022.1.2,Win32,59.88023952,,,,,,,,,,,,,,,,,,,,,,,,,,,,,,,,,,,,,,,,,,,,ルピン,right,4.915,0,0,0,0,1,,,,,,,,,,,,,,,,,,,,,,,,,,,,,,,,
,,,,,,,,,R_3sbpeXZ6cpDH6SI,2022-07-04_12h23.39.624,jpn_C02,2022.1.2,Win32,59.88023952,,,,,,,,,,,,,CartoonStims/burglar_r.jpg,audio/lupin.mp3,,,,,,,,,,,,,,,,,,,,,,,,,,,,,,,,,,,,,,1,0,6,1,1,ルピン,,,,,,,,,,,,,,,,,,,,,,,,,,
,,,,,,,,,R_3sbpeXZ6cpDH6SI,2022-07-04_12h23.39.624,jpn_C02,2022.1.2,Win32,59.88023952,,,,,,,,,,,,,,,,,,,,,,,,,,,,,,,,,,,,,,,,,,,,ドキ,right,2.717,0,0,0,0,1,,,,,,,,,,,,,,,,,,,,,,,,,,,,,,,,
,,,,,,,,,R_3sbpeXZ6cpDH6SI,2022-07-04_12h23.39.624,jpn_C02,2022.1.2,Win32,59.88023952,,,,,,,,,,,,,CartoonStims/boxer_r.jpg,audio/doki.mp3,,,,,,,,,,,,,,,,,,,,,,,,,,,,,,,,,,,,,,1,1,7,5,1,ドキ,,,,,,,,,,,,,,,,,,,,,,,,,,
,,,,,,,,,R_3sbpeXZ6cpDH6SI,2022-07-04_12h23.39.624,jpn_C02,2022.1.2,Win32,59.88023952,,,,,,,,,,,,,,,,,,,,,,,,,,,,,,,,,,,,,,,,,,,,シド,right,3.035,0,0,0,0,1,,,,,,,,,,,,,,,,,,,,,,,,,,,,,,,,
,,,,,,,,,R_3sbpeXZ6cpDH6SI,2022-07-04_12h23.39.624,jpn_C02,2022.1.2,Win32,59.88023952,,,,,,,,,,,,,CartoonStims/artist_r.jpg,audio/sido.mp3,,,,,,,,,,,,,,,,,,,,,,,,,,,,,,,,,,,,,,1,2,8,0,1,シド,,,,,,,,,,,,,,,,,,,,,,,,,,
,,,,,,,,,R_3sbpeXZ6cpDH6SI,2022-07-04_12h23.39.624,jpn_C02,2022.1.2,Win32,59.88023952,,,,,,,,,,,,,,,,,,,,,,,,,,,,,,,,,,,,,,,,,,,,ムク,right,4.218,0,0,0,0,1,,,,,,,,,,,,,,,,,,,,,,,,,,,,,,,,
,,,,,,,,,R_3sbpeXZ6cpDH6SI,2022-07-04_12h23.39.624,jpn_C02,2022.1.2,Win32,59.88023952,,,,,,,,,,,,,CartoonStims/cowboy_r.jpg,audio/muku.mp3,,,,,,,,,,,,,,,,,,,,,,,,,,,,,,,,,,,,,,1,3,9,3,1,ムク,,,,,,,,,,,,,,,,,,,,,,,,,,
,,,,,,,,,R_3sbpeXZ6cpDH6SI,2022-07-04_12h23.39.624,jpn_C02,2022.1.2,Win32,59.88023952,,,,,,,,,,,,,,,,,,,,,,,,,,,,,,,,,,,,,,,,,,,,ピポ,right,3.843,0,0,0,0,1,,,,,,,,,,,,,,,,,,,,,,,,,,,,,,,,
,,,,,,,,,R_3sbpeXZ6cpDH6SI,2022-07-04_12h23.39.624,jpn_C02,2022.1.2,Win32,59.88023952,,,,,,,,,,,,,CartoonStims/doctor_r.jpg,audio/pipo.mp3,,,,,,,,,,,,,,,,,,,,,,,,,,,,,,,,,,,,,,1,4,10,4,1,ピポ,,,,,,,,,,,,,,,,,,,,,,,,,,
,,,,,,,,,R_3sbpeXZ6cpDH6SI,2022-07-04_12h23.39.624,jpn_C02,2022.1.2,Win32,59.88023952,,,,,,,,,,,,,,,,,,,,,,,,,,,,,,,,,,,,,,,,,,,,ホレト,right,3.164,0,0,0,0,1,,,,,,,,,,,,,,,,,,,,,,,,,,,,,,,,
,,,,,,,,,R_3sbpeXZ6cpDH6SI,2022-07-04_12h23.39.624,jpn_C02,2022.1.2,Win32,59.88023952,,,,,,,,,,,,,CartoonStims/chef_r.jpg,audio/horeto.mp3,,,,,,,,,,,,,,,,,,,,,,,,,,,,,,,,,,,,,,1,5,11,2,1,ホレト,,,,,,,,,,,,,,,,,,,,,,,,,,
,,,,,,,,,R_3sbpeXZ6cpDH6SI,2022-07-04_12h23.39.624,jpn_C02,2022.1.2,Win32,59.88023952,,,,,,,,,,,,,,,,,,,,,,,,,,,,,,,,,,,,,,,,,,,,,,,,,,,,,,,,,,,space,5.178,0,0,0,0,1,NounExposure.xlsx,"最初のトライアルでは、 画像が表示され、 その画像の下に単語が出てきます。 またこの単語の音も聞くことができます。 この音を大きな声で復唱してください。 そしてこの画像がどのような単語を示しているのか, 考えてみてください。 その後、 続きのボタンを押すと次の単語の学習が始まります。

スペースキーを押して、学習を始めましょう。",3,NounFCT.xlsx,ここから語彙のクイズが始まります。スクリーンに表示される単語に合う画像をキーボードの右と左の矢印キーを使って選択してください。,NounTest.xlsx,2,次に、これまで学習してきたことをアウトプットしていただきます。 表示される画像を描写していると思う単語を、テキストボックスにタイプしてください。,1,"ここまでが最初のトライアルです。ここで休憩をとっても構いません。

休憩が済みましたら、スペースキーを押して続きを始めましょう。",,,,,,,,
,,,,,,,,,R_3sbpeXZ6cpDH6SI,2022-07-04_12h23.39.624,jpn_C02,2022.1.2,Win32,59.88023952,space,7.463,space,10.59,0,0,0,41,1,プミ　ホレト　ルピン,,,CartoonStims/chef_punch_burglar_r.jpg,audio/pumihoretolupin.mp3,,,,,,,,,,,,,,,,,,,,,,,,,,,,,,,,,,,,,,,,,,,,,,,,,,,,,,,,,,,,,,,,,,,,,
,,,,,,,,,R_3sbpeXZ6cpDH6SI,2022-07-04_12h23.39.624,jpn_C02,2022.1.2,Win32,59.88023952,,,space,7.852,0,1,1,1,1,セル 　シド 　ホレト,,,CartoonStims/artist_kick_chef_r.jpg,audio/serusidohoreto.mp3,,,,,,,,,,,,,,,,,,,,,,,,,,,,,,,,,,,,,,,,,,,,,,,,,,,,,,,,,,,,,,,,,,,,,
,,,,,,,,,R_3sbpeXZ6cpDH6SI,2022-07-04_12h23.39.624,jpn_C02,2022.1.2,Win32,59.88023952,,,space,3.515,0,2,2,43,1,プミ　ムク　ホレト,,,CartoonStims/cowboy_punch_chef_r.jpg,audio/pumimukuhoreto.mp3,,,,,,,,,,,,,,,,,,,,,,,,,,,,,,,,,,,,,,,,,,,,,,,,,,,,,,,,,,,,,,,,,,,,,
,,,,,,,,,R_3sbpeXZ6cpDH6SI,2022-07-04_12h23.39.624,jpn_C02,2022.1.2,Win32,59.88023952,,,space,2.86,0,3,3,45,1,プミ　ピポ　ムク,,,CartoonStims/doctor_punch_cowboy_r.jpg,audio/pumipipomuku.mp3,,,,,,,,,,,,,,,,,,,,,,,,,,,,,,,,,,,,,,,,,,,,,,,,,,,,,,,,,,,,,,,,,,,,,
,,,,,,,,,R_3sbpeXZ6cpDH6SI,2022-07-04_12h23.39.624,jpn_C02,2022.1.2,Win32,59.88023952,,,space,3.447,0,4,4,14,1,トマ　ルピン　ムク,,,CartoonStims/burglar_point_cowboy_r.jpg,audio/tomalupinmuku.mp3,,,,,,,,,,,,,,,,,,,,,,,,,,,,,,,,,,,,,,,,,,,,,,,,,,,,,,,,,,,,,,,,,,,,,
,,,,,,,,,R_3sbpeXZ6cpDH6SI,2022-07-04_12h23.39.624,jpn_C02,2022.1.2,Win32,59.88023952,,,space,2.741,0,5,5,15,1,トマ　ルピン　ピポ,,,CartoonStims/burglar_point_doctor_r.jpg,audio/tomalupinpipo.mp3,,,,,,,,,,,,,,,,,,,,,,,,,,,,,,,,,,,,,,,,,,,,,,,,,,,,,,,,,,,,,,,,,,,,,
,,,,,,,,,R_3sbpeXZ6cpDH6SI,2022-07-04_12h23.39.624,jpn_C02,2022.1.2,Win32,59.88023952,,,space,4.399,0,6,6,20,1,トマ　ピポ　シド,,,CartoonStims/doctor_point_artist_r.jpg,audio/tomapiposido.mp3,,,,,,,,,,,,,,,,,,,,,,,,,,,,,,,,,,,,,,,,,,,,,,,,,,,,,,,,,,,,,,,,,,,,,
,,,,,,,,,R_3sbpeXZ6cpDH6SI,2022-07-04_12h23.39.624,jpn_C02,2022.1.2,Win32,59.88023952,,,space,3.574,0,7,7,27,1,パツ　ルピン　ドキ,,,CartoonStims/burglar_shoot_boxer_r.jpg,audio/patsulupindoki.mp3,,,,,,,,,,,,,,,,,,,,,,,,,,,,,,,,,,,,,,,,,,,,,,,,,,,,,,,,,,,,,,,,,,,,,
,,,,,,,,,R_3sbpeXZ6cpDH6SI,2022-07-04_12h23.39.624,jpn_C02,2022.1.2,Win32,59.88023952,,,space,1.871,0,8,8,37,1,プミ　シド　ドキ,,,CartoonStims/artist_punch_boxer_r.jpg,audio/pumisidodoki.mp3,,,,,,,,,,,,,,,,,,,,,,,,,,,,,,,,,,,,,,,,,,,,,,,,,,,,,,,,,,,,,,,,,,,,,
,,,,,,,,,R_3sbpeXZ6cpDH6SI,2022-07-04_12h23.39.624,jpn_C02,2022.1.2,Win32,59.88023952,,,space,1.947,0,9,9,12,1,トマ　シド　ホレト,,,CartoonStims/artist_point_chef_r.jpg,audio/tomasidohoreto.mp3,,,,,,,,,,,,,,,,,,,,,,,,,,,,,,,,,,,,,,,,,,,,,,,,,,,,,,,,,,,,,,,,,,,,,
,,,,,,,,,R_3sbpeXZ6cpDH6SI,2022-07-04_12h23.39.624,jpn_C02,2022.1.2,Win32,59.88023952,,,space,2.491,0,10,10,4,1,セル　ホレト　ムク,,,CartoonStims/chef_kick_cowboy_r.jpg,audio/seruhoretomuku.mp3,,,,,,,,,,,,,,,,,,,,,,,,,,,,,,,,,,,,,,,,,,,,,,,,,,,,,,,,,,,,,,,,,,,,,
,,,,,,,,,R_3sbpeXZ6cpDH6SI,2022-07-04_12h23.39.624,jpn_C02,2022.1.2,Win32,59.88023952,,,space,1.631,0,11,11,11,1,セル　ドキ　ルピン,,,CartoonStims/boxer_kick_burglar_r.jpg,audio/serudokilupin.mp3,,,,,,,,,,,,,,,,,,,,,,,,,,,,,,,,,,,,,,,,,,,,,,,,,,,,,,,,,,,,,,,,,,,,,
,,,,,,,,,R_3sbpeXZ6cpDH6SI,2022-07-04_12h23.39.624,jpn_C02,2022.1.2,Win32,59.88023952,,,space,1.604,0,12,12,38,1,プミ　ルピン　ドキ,,,CartoonStims/burglar_punch_boxer_r.jpg,audio/pumilupindoki.mp3,,,,,,,,,,,,,,,,,,,,,,,,,,,,,,,,,,,,,,,,,,,,,,,,,,,,,,,,,,,,,,,,,,,,,
,,,,,,,,,R_3sbpeXZ6cpDH6SI,2022-07-04_12h23.39.624,jpn_C02,2022.1.2,Win32,59.88023952,,,space,1.441,0,13,13,2,1,セル 　ルピン 　ホレト,,,CartoonStims/burglar_kick_chef_r.jpg,audio/serulupinhoreto.mp3,,,,,,,,,,,,,,,,,,,,,,,,,,,,,,,,,,,,,,,,,,,,,,,,,,,,,,,,,,,,,,,,,,,,,
,,,,,,,,,R_3sbpeXZ6cpDH6SI,2022-07-04_12h23.39.624,jpn_C02,2022.1.2,Win32,59.88023952,,,space,1.576,0,14,14,18,1,トマ　ムク　ドキ,,,CartoonStims/cowboy_point_boxer_r.jpg,audio/tomamukudoki.mp3,,,,,,,,,,,,,,,,,,,,,,,,,,,,,,,,,,,,,,,,,,,,,,,,,,,,,,,,,,,,,,,,,,,,,
,,,,,,,,,R_3sbpeXZ6cpDH6SI,2022-07-04_12h23.39.624,jpn_C02,2022.1.2,Win32,59.88023952,,,space,1.604,0,15,15,5,1,セル　ホレト　ピポ,,,CartoonStims/chef_kick_doctor_r.jpg,audio/seruhoretopipo.mp3,,,,,,,,,,,,,,,,,,,,,,,,,,,,,,,,,,,,,,,,,,,,,,,,,,,,,,,,,,,,,,,,,,,,,
,,,,,,,,,R_3sbpeXZ6cpDH6SI,2022-07-04_12h23.39.624,jpn_C02,2022.1.2,Win32,59.88023952,,,space,1.808,0,16,16,31,1,パツ　ムク　ルピン,,,CartoonStims/cowboy_shoot_burglar_r.jpg,audio/patsumukulupin.mp3,,,,,,,,,,,,,,,,,,,,,,,,,,,,,,,,,,,,,,,,,,,,,,,,,,,,,,,,,,,,,,,,,,,,,
,,,,,,,,,R_3sbpeXZ6cpDH6SI,2022-07-04_12h23.39.624,jpn_C02,2022.1.2,Win32,59.88023952,,,space,2.223,0,17,17,39,1,プミ　ルピン　シド,,,CartoonStims/burglar_punch_artist_r.jpg,audio/pumilupinsido.mp3,,,,,,,,,,,,,,,,,,,,,,,,,,,,,,,,,,,,,,,,,,,,,,,,,,,,,,,,,,,,,,,,,,,,,
,,,,,,,,,R_3sbpeXZ6cpDH6SI,2022-07-04_12h23.39.624,jpn_C02,2022.1.2,Win32,59.88023952,,,space,1.996,0,18,18,7,1,セル　ムク　ドキ,,,CartoonStims/cowboy_kick_boxer_r.jpg,audio/serumukudoki.mp3,,,,,,,,,,,,,,,,,,,,,,,,,,,,,,,,,,,,,,,,,,,,,,,,,,,,,,,,,,,,,,,,,,,,,
,,,,,,,,,R_3sbpeXZ6cpDH6SI,2022-07-04_12h23.39.624,jpn_C02,2022.1.2,Win32,59.88023952,,,space,1.507,0,19,19,32,1,パツ　ピポ　ルピン,,,CartoonStims/doctor_shoot_burglar_r.jpg,audio/patsupipolupin.mp3,,,,,,,,,,,,,,,,,,,,,,,,,,,,,,,,,,,,,,,,,,,,,,,,,,,,,,,,,,,,,,,,,,,,,
,,,,,,,,,R_3sbpeXZ6cpDH6SI,2022-07-04_12h23.39.624,jpn_C02,2022.1.2,Win32,59.88023952,,,space,1.542,0,20,20,22,1,トマ　ドキ　ルピン,,,CartoonStims/boxer_point_burglar_r.jpg,audio/tomadokilupin.mp3,,,,,,,,,,,,,,,,,,,,,,,,,,,,,,,,,,,,,,,,,,,,,,,,,,,,,,,,,,,,,,,,,,,,,
,,,,,,,,,R_3sbpeXZ6cpDH6SI,2022-07-04_12h23.39.624,jpn_C02,2022.1.2,Win32,59.88023952,,,space,1.29,0,21,21,0,1,セル　シド　ルピン,,,CartoonStims/artist_kick_burglar_r.jpg,audio/serusidolupin.mp3,,,,,,,,,,,,,,,,,,,,,,,,,,,,,,,,,,,,,,,,,,,,,,,,,,,,,,,,,,,,,,,,,,,,,
,,,,,,,,,R_3sbpeXZ6cpDH6SI,2022-07-04_12h23.39.624,jpn_C02,2022.1.2,Win32,59.88023952,,,space,2.273,0,22,22,23,1,トマ　ドキ　ホレト,,,CartoonStims/boxer_point_chef_r.jpg,audio/tomadokihoreto.mp3,,,,,,,,,,,,,,,,,,,,,,,,,,,,,,,,,,,,,,,,,,,,,,,,,,,,,,,,,,,,,,,,,,,,,
,,,,,,,,,R_3sbpeXZ6cpDH6SI,2022-07-04_12h23.39.624,jpn_C02,2022.1.2,Win32,59.88023952,,,space,1.663,0,23,23,10,1,セル　ドキ　シド,,,CartoonStims/boxer_kick_artist_r.jpg,audio/serudokisido.mp3,,,,,,,,,,,,,,,,,,,,,,,,,,,,,,,,,,,,,,,,,,,,,,,,,,,,,,,,,,,,,,,,,,,,,
,,,,,,,,,R_3sbpeXZ6cpDH6SI,2022-07-04_12h23.39.624,jpn_C02,2022.1.2,Win32,59.88023952,,,space,1.706,0,24,24,40,1,プミ　ホレト　シド,,,CartoonStims/chef_punch_artist_r.jpg,audio/pumihoretosido.mp3,,,,,,,,,,,,,,,,,,,,,,,,,,,,,,,,,,,,,,,,,,,,,,,,,,,,,,,,,,,,,,,,,,,,,
,,,,,,,,,R_3sbpeXZ6cpDH6SI,2022-07-04_12h23.39.624,jpn_C02,2022.1.2,Win32,59.88023952,,,space,1.943,0,25,25,6,1,セル　ムク　ピポ,,,CartoonStims/cowboy_kick_doctor_r.jpg,audio/serumukupipo.mp3,,,,,,,,,,,,,,,,,,,,,,,,,,,,,,,,,,,,,,,,,,,,,,,,,,,,,,,,,,,,,,,,,,,,,
,,,,,,,,,R_3sbpeXZ6cpDH6SI,2022-07-04_12h23.39.624,jpn_C02,2022.1.2,Win32,59.88023952,,,space,1.788,0,26,26,28,1,パツ　ホレト　ドキ,,,CartoonStims/chef_shoot_boxer_r.jpg,audio/patsuhoretodoki.mp3,,,,,,,,,,,,,,,,,,,,,,,,,,,,,,,,,,,,,,,,,,,,,,,,,,,,,,,,,,,,,,,,,,,,,
,,,,,,,,,R_3sbpeXZ6cpDH6SI,2022-07-04_12h23.39.624,jpn_C02,2022.1.2,Win32,59.88023952,,,space,1.446,0,27,27,17,1,トマ　ホレト　ドキ,,,CartoonStims/chef_point_boxer_r.jpg,audio/tomahoretodoki.mp3,,,,,,,,,,,,,,,,,,,,,,,,,,,,,,,,,,,,,,,,,,,,,,,,,,,,,,,,,,,,,,,,,,,,,
,,,,,,,,,R_3sbpeXZ6cpDH6SI,2022-07-04_12h23.39.624,jpn_C02,2022.1.2,Win32,59.88023952,,,space,1.109,0,28,28,42,1,プミ　ムク　ルピン,,,CartoonStims/cowboy_punch_burglar_r.jpg,audio/pumimukulupin.mp3,,,,,,,,,,,,,,,,,,,,,,,,,,,,,,,,,,,,,,,,,,,,,,,,,,,,,,,,,,,,,,,,,,,,,
,,,,,,,,,R_3sbpeXZ6cpDH6SI,2022-07-04_12h23.39.624,jpn_C02,2022.1.2,Win32,59.88023952,,,space,1.417,0,29,29,21,1,トマ　ピポ　ルピン,,,CartoonStims/doctor_point_burglar_r.jpg,audio/tomapipolupin.mp3,,,,,,,,,,,,,,,,,,,,,,,,,,,,,,,,,,,,,,,,,,,,,,,,,,,,,,,,,,,,,,,,,,,,,
,,,,,,,,,R_3sbpeXZ6cpDH6SI,2022-07-04_12h23.39.624,jpn_C02,2022.1.2,Win32,59.88023952,,,space,1.487,0,30,30,47,1,プミ　ドキ　ピポ,,,CartoonStims/boxer_punch_doctor_r.jpg,audio/pumidokipipo.mp3,,,,,,,,,,,,,,,,,,,,,,,,,,,,,,,,,,,,,,,,,,,,,,,,,,,,,,,,,,,,,,,,,,,,,
,,,,,,,,,R_3sbpeXZ6cpDH6SI,2022-07-04_12h23.39.624,jpn_C02,2022.1.2,Win32,59.88023952,,,space,1.18,0,31,31,24,1,パツ　シド　ムク,,,CartoonStims/artist_shoot_cowboy_r.jpg,audio/patsusidomuku.mp3,,,,,,,,,,,,,,,,,,,,,,,,,,,,,,,,,,,,,,,,,,,,,,,,,,,,,,,,,,,,,,,,,,,,,
,,,,,,,,,R_3sbpeXZ6cpDH6SI,2022-07-04_12h23.39.624,jpn_C02,2022.1.2,Win32,59.88023952,,,space,1.205,0,32,32,30,1,パツ　ムク　シド,,,CartoonStims/cowboy_shoot_artist_r.jpg,audio/patsumukusido.mp3,,,,,,,,,,,,,,,,,,,,,,,,,,,,,,,,,,,,,,,,,,,,,,,,,,,,,,,,,,,,,,,,,,,,,
,,,,,,,,,R_3sbpeXZ6cpDH6SI,2022-07-04_12h23.39.624,jpn_C02,2022.1.2,Win32,59.88023952,,,space,1.244,0,33,33,25,1,パツ　シド　ピポ,,,CartoonStims/artist_shoot_doctor_r.jpg,audio/patsusidopipo.mp3,,,,,,,,,,,,,,,,,,,,,,,,,,,,,,,,,,,,,,,,,,,,,,,,,,,,,,,,,,,,,,,,,,,,,
,,,,,,,,,R_3sbpeXZ6cpDH6SI,2022-07-04_12h23.39.624,jpn_C02,2022.1.2,Win32,59.88023952,,,space,0.979,0,34,34,13,1,トマ　シド　ムク,,,CartoonStims/artist_point_cowboy_r.jpg,audio/tomasidomuku.mp3,,,,,,,,,,,,,,,,,,,,,,,,,,,,,,,,,,,,,,,,,,,,,,,,,,,,,,,,,,,,,,,,,,,,,
,,,,,,,,,R_3sbpeXZ6cpDH6SI,2022-07-04_12h23.39.624,jpn_C02,2022.1.2,Win32,59.88023952,,,space,1.156,0,35,35,8,1,セル　ピポ　ドキ,,,CartoonStims/doctor_kick_boxer_r.jpg,audio/serupipodoki.mp3,,,,,,,,,,,,,,,,,,,,,,,,,,,,,,,,,,,,,,,,,,,,,,,,,,,,,,,,,,,,,,,,,,,,,
,,,,,,,,,R_3sbpeXZ6cpDH6SI,2022-07-04_12h23.39.624,jpn_C02,2022.1.2,Win32,59.88023952,,,space,1.355,0,36,36,33,1,パツ　ピポ　ホレト,,,CartoonStims/doctor_shoot_chef_r.jpg,audio/patsupipohoreto.mp3,,,,,,,,,,,,,,,,,,,,,,,,,,,,,,,,,,,,,,,,,,,,,,,,,,,,,,,,,,,,,,,,,,,,,
,,,,,,,,,R_3sbpeXZ6cpDH6SI,2022-07-04_12h23.39.624,jpn_C02,2022.1.2,Win32,59.88023952,,,space,1.22,0,37,37,19,1,トマ　ムク　シド,,,CartoonStims/cowboy_point_artist_r.jpg,audio/tomamukusido.mp3,,,,,,,,,,,,,,,,,,,,,,,,,,,,,,,,,,,,,,,,,,,,,,,,,,,,,,,,,,,,,,,,,,,,,
,,,,,,,,,R_3sbpeXZ6cpDH6SI,2022-07-04_12h23.39.624,jpn_C02,2022.1.2,Win32,59.88023952,,,space,1.126,0,38,38,9,1,セル　ピポ　シド,,,CartoonStims/doctor_kick_artist_r.jpg,audio/serupiposido.mp3,,,,,,,,,,,,,,,,,,,,,,,,,,,,,,,,,,,,,,,,,,,,,,,,,,,,,,,,,,,,,,,,,,,,,
,,,,,,,,,R_3sbpeXZ6cpDH6SI,2022-07-04_12h23.39.624,jpn_C02,2022.1.2,Win32,59.88023952,,,space,1.745,0,39,39,36,1,プミ　シド　ピポ,,,CartoonStims/artist_punch_doctor_r.jpg,audio/pumisidopipo.mp3,,,,,,,,,,,,,,,,,,,,,,,,,,,,,,,,,,,,,,,,,,,,,,,,,,,,,,,,,,,,,,,,,,,,,
,,,,,,,,,R_3sbpeXZ6cpDH6SI,2022-07-04_12h23.39.624,jpn_C02,2022.1.2,Win32,59.88023952,,,space,1.407,0,40,40,16,1,トマ　ホレト　ピポ,,,CartoonStims/chef_point_doctor_r.jpg,audio/tomahoretopipo.mp3,,,,,,,,,,,,,,,,,,,,,,,,,,,,,,,,,,,,,,,,,,,,,,,,,,,,,,,,,,,,,,,,,,,,,
,,,,,,,,,R_3sbpeXZ6cpDH6SI,2022-07-04_12h23.39.624,jpn_C02,2022.1.2,Win32,59.88023952,,,space,1.777,0,41,41,29,1,パツ　ホレト　シド,,,CartoonStims/chef_shoot_artist_r.jpg,audio/patsuhoretosido.mp3,,,,,,,,,,,,,,,,,,,,,,,,,,,,,,,,,,,,,,,,,,,,,,,,,,,,,,,,,,,,,,,,,,,,,
,,,,,,,,,R_3sbpeXZ6cpDH6SI,2022-07-04_12h23.39.624,jpn_C02,2022.1.2,Win32,59.88023952,,,space,1.329,0,42,42,44,1,プミ　ピポ　ホレト,,,CartoonStims/doctor_punch_chef_r.jpg,audio/pumipipohoreto.mp3,,,,,,,,,,,,,,,,,,,,,,,,,,,,,,,,,,,,,,,,,,,,,,,,,,,,,,,,,,,,,,,,,,,,,
,,,,,,,,,R_3sbpeXZ6cpDH6SI,2022-07-04_12h23.39.624,jpn_C02,2022.1.2,Win32,59.88023952,,,space,1.013,0,43,43,46,1,プミ　ドキ　ムク,,,CartoonStims/boxer_punch_cowboy_r.jpg,audio/pumidokimuku.mp3,,,,,,,,,,,,,,,,,,,,,,,,,,,,,,,,,,,,,,,,,,,,,,,,,,,,,,,,,,,,,,,,,,,,,
,,,,,,,,,R_3sbpeXZ6cpDH6SI,2022-07-04_12h23.39.624,jpn_C02,2022.1.2,Win32,59.88023952,,,space,1.373,0,44,44,3,1,セル　ルピン　ムク,,,CartoonStims/burglar_kick_cowboy_r.jpg,audio/serulupinmuku.mp3,,,,,,,,,,,,,,,,,,,,,,,,,,,,,,,,,,,,,,,,,,,,,,,,,,,,,,,,,,,,,,,,,,,,,
,,,,,,,,,R_3sbpeXZ6cpDH6SI,2022-07-04_12h23.39.624,jpn_C02,2022.1.2,Win32,59.88023952,,,space,1.02,0,45,45,35,1,パツ　ドキ　ムク,,,CartoonStims/boxer_shoot_cowboy_r.jpg,audio/patsudokimuku.mp3,,,,,,,,,,,,,,,,,,,,,,,,,,,,,,,,,,,,,,,,,,,,,,,,,,,,,,,,,,,,,,,,,,,,,
,,,,,,,,,R_3sbpeXZ6cpDH6SI,2022-07-04_12h23.39.624,jpn_C02,2022.1.2,Win32,59.88023952,,,space,1.262,0,46,46,34,1,パツ　ドキ　ホレト,,,CartoonStims/boxer_shoot_chef_r.jpg,audio/patsudokihoreto.mp3,,,,,,,,,,,,,,,,,,,,,,,,,,,,,,,,,,,,,,,,,,,,,,,,,,,,,,,,,,,,,,,,,,,,,
,,,,,,,,,R_3sbpeXZ6cpDH6SI,2022-07-04_12h23.39.624,jpn_C02,2022.1.2,Win32,59.88023952,,,space,1.162,0,47,47,26,1,パツ　ルピン　ピポ,,,CartoonStims/burglar_shoot_doctor_r.jpg,audio/patsulupinpipo.mp3,,,,,,,,,,,,,,,,,,,,,,,,,,,,,,,,,,,,,,,,,,,,,,,,,,,,,,,,,,,,,,,,,,,,,
,,,,,,,,,R_3sbpeXZ6cpDH6SI,2022-07-04_12h23.39.624,jpn_C02,2022.1.2,Win32,59.88023952,,,,,,,,,,,,,,,space,0.553,right,0,7.835,,,,,,,,,,,,,,,,,,,,,,,,,,,,,,,,,,,,,,,,,,,,,,,,,,,,,,,,,0,0,0,0,1,,,
,,,,,,,,,R_3sbpeXZ6cpDH6SI,2022-07-04_12h23.39.624,jpn_C02,2022.1.2,Win32,59.88023952,,,,,,,,,,,,,,,,,,,,,,,,,0,0,0,6,1,CartoonStims/doctor_punch_boxer_r.jpg,プミ　ピポ　ドキ,CartoonStims/doctor_shoot_boxer_r.jpg,left,CartoonStims/doctor_punch_boxer_r.jpg,audio/pumipipodoki.mp3,残念！ こちらが正しい画像です。,,,,,,,,,,,,,,,,,,,,,,,,,,,,,,,,,,,,,,,,,,,,,,,
,,,,,,,,,R_3sbpeXZ6cpDH6SI,2022-07-04_12h23.39.624,jpn_C02,2022.1.2,Win32,59.88023952,,,,,,,,,,,,,,,,,right,1,4.563,,,,,,,,,,,,,,,,,,0,0,0,0,1,,,,,,,,,,,,,,,,,,,,,,,,,,,,,,,,,,,,,,,,,,
,,,,,,,,,R_3sbpeXZ6cpDH6SI,2022-07-04_12h23.39.624,jpn_C02,2022.1.2,Win32,59.88023952,,,,,,,,,,,,,,,,,,,,,,,,,0,1,1,5,1,CartoonStims/cowboy_point_chef_r.jpg,パツ　ムク　ホレト,CartoonStims/cowboy_shoot_chef_r.jpg,right,CartoonStims/cowboy_shoot_chef_r.jpg,audio/patsumukuhoreto.mp3,残念！ こちらが正しい画像です。,,,,,,,,,,,,,,,,,,,,,,,,,,,,,,,,,,,,,,,,,,,,,,,
,,,,,,,,,R_3sbpeXZ6cpDH6SI,2022-07-04_12h23.39.624,jpn_C02,2022.1.2,Win32,59.88023952,,,,,,,,,,,,,,,,,right,1,3.793,,,,,,,,,,,,,,,,,,0,0,0,0,1,,,,,,,,,,,,,,,,,,,,,,,,,,,,,,,,,,,,,,,,,,
,,,,,,,,,R_3sbpeXZ6cpDH6SI,2022-07-04_12h23.39.624,jpn_C02,2022.1.2,Win32,59.88023952,,,,,,,,,,,,,,,,,,,,,,,,,0,2,2,1,1,CartoonStims/chef_point_burglar_r.jpg,トマ　ホレト　シド,CartoonStims/chef_point_artist_r.jpg,right,CartoonStims/chef_point_artist_r.jpg,audio/tomahoretosido.mp3,残念！ こちらが正しい画像です。,,,,,,,,,,,,,,,,,,,,,,,,,,,,,,,,,,,,,,,,,,,,,,,
,,,,,,,,,R_3sbpeXZ6cpDH6SI,2022-07-04_12h23.39.624,jpn_C02,2022.1.2,Win32,59.88023952,,,,,,,,,,,,,,,,,right,1,4.819,,,,,,,,,,,,,,,,,,0,0,0,0,1,,,,,,,,,,,,,,,,,,,,,,,,,,,,,,,,,,,,,,,,,,
,,,,,,,,,R_3sbpeXZ6cpDH6SI,2022-07-04_12h23.39.624,jpn_C02,2022.1.2,Win32,59.88023952,,,,,,,,,,,,,,,,,,,,,,,,,0,3,3,9,1,CartoonStims/chef_kick_artist_r.jpg,セル　ムク　シド,CartoonStims/cowboy_kick_artist_r.jpg,right,CartoonStims/cowboy_kick_artist_r.jpg,audio/serumukusido.mp3,残念！ こちらが正しい画像です。,,,,,,,,,,,,,,,,,,,,,,,,,,,,,,,,,,,,,,,,,,,,,,,
,,,,,,,,,R_3sbpeXZ6cpDH6SI,2022-07-04_12h23.39.624,jpn_C02,2022.1.2,Win32,59.88023952,,,,,,,,,,,,,,,,,right,1,4.584,,,,,,,,,,,,,,,,,,0,0,0,0,1,,,,,,,,,,,,,,,,,,,,,,,,,,,,,,,,,,,,,,,,,,
,,,,,,,,,R_3sbpeXZ6cpDH6SI,2022-07-04_12h23.39.624,jpn_C02,2022.1.2,Win32,59.88023952,,,,,,,,,,,,,,,,,,,,,,,,,0,4,4,11,1,CartoonStims/burglar_punch_cowboy_r.jpg,プミ　ホレト　ムク,CartoonStims/chef_punch_cowboy_r.jpg,right,CartoonStims/chef_punch_cowboy_r.jpg,audio/pumihoretomuku.mp3,残念！ こちらが正しい画像です。,,,,,,,,,,,,,,,,,,,,,,,,,,,,,,,,,,,,,,,,,,,,,,,
,,,,,,,,,R_3sbpeXZ6cpDH6SI,2022-07-04_12h23.39.624,jpn_C02,2022.1.2,Win32,59.88023952,,,,,,,,,,,,,,,,,left,1,3.425,0,0,0,0,1,,,,,,,,,,,,,,,,,,,,,,,,,,,,,,,,,,,,,,,,,,,,,,,,,,,,,,,,,,,
,,,,,,,,,R_3sbpeXZ6cpDH6SI,2022-07-04_12h23.39.624,jpn_C02,2022.1.2,Win32,59.88023952,,,,,,,,,,,,,,,,,,,,,,,,,0,5,5,8,1,CartoonStims/doctor_point_cowboy_r.jpg,トマ　ピポ　ムク,CartoonStims/boxer_point_cowboy_r.jpg,left,CartoonStims/doctor_point_cowboy_r.jpg,audio/tomapipomuku.mp3,残念！ こちらが正しい画像です。,,,,,,,,,,,,,,,,,,,,,,,,,,,,,,,,,,,,,,,,,,,,,,,
,,,,,,,,,R_3sbpeXZ6cpDH6SI,2022-07-04_12h23.39.624,jpn_C02,2022.1.2,Win32,59.88023952,,,,,,,,,,,,,,,,,left,1,1.255,0,0,0,0,1,,,,,,,,,,,,,,,,,,,,,,,,,,,,,,,,,,,,,,,,,,,,,,,,,,,,,,,,,,,
,,,,,,,,,R_3sbpeXZ6cpDH6SI,2022-07-04_12h23.39.624,jpn_C02,2022.1.2,Win32,59.88023952,,,,,,,,,,,,,,,,,,,,,,,,,0,6,6,0,1,CartoonStims/doctor_kick_burglar_r.jpg,セル　ピポ　ルピン,CartoonStims/doctor_kick_chef_r.jpg,left,CartoonStims/doctor_kick_burglar_r.jpg,audio/serupipolupin.mp3,残念！ こちらが正しい画像です。,,,,,,,,,,,,,,,,,,,,,,,,,,,,,,,,,,,,,,,,,,,,,,,
,,,,,,,,,R_3sbpeXZ6cpDH6SI,2022-07-04_12h23.39.624,jpn_C02,2022.1.2,Win32,59.88023952,,,,,,,,,,,,,,,,,left,1,2.692,0,0,0,0,1,,,,,,,,,,,,,,,,,,,,,,,,,,,,,,,,,,,,,,,,,,,,,,,,,,,,,,,,,,,
,,,,,,,,,R_3sbpeXZ6cpDH6SI,2022-07-04_12h23.39.624,jpn_C02,2022.1.2,Win32,59.88023952,,,,,,,,,,,,,,,,,,,,,,,,,0,7,7,4,1,CartoonStims/burglar_point_boxer_r.jpg,トマ　ルピン　ドキ,CartoonStims/burglar_kick_boxer_r.jpg,left,CartoonStims/burglar_point_boxer_r.jpg,audio/tomalupindoki.mp3,残念！ こちらが正しい画像です。,,,,,,,,,,,,,,,,,,,,,,,,,,,,,,,,,,,,,,,,,,,,,,,
,,,,,,,,,R_3sbpeXZ6cpDH6SI,2022-07-04_12h23.39.624,jpn_C02,2022.1.2,Win32,59.88023952,,,,,,,,,,,,,,,,,right,1,4.813,,,,,,,,,,,,,,,,,,0,0,0,0,1,,,,,,,,,,,,,,,,,,,,,,,,,,,,,,,,,,,,,,,,,,
,,,,,,,,,R_3sbpeXZ6cpDH6SI,2022-07-04_12h23.39.624,jpn_C02,2022.1.2,Win32,59.88023952,,,,,,,,,,,,,,,,,,,,,,,,,0,8,8,7,1,CartoonStims/artist_punch_cowboy_r.jpg,セル　シド　ムク,CartoonStims/artist_kick_cowboy_r.jpg,right,CartoonStims/artist_kick_cowboy_r.jpg,audio/serusidomuku.mp3,残念！ こちらが正しい画像です。,,,,,,,,,,,,,,,,,,,,,,,,,,,,,,,,,,,,,,,,,,,,,,,
,,,,,,,,,R_3sbpeXZ6cpDH6SI,2022-07-04_12h23.39.624,jpn_C02,2022.1.2,Win32,59.88023952,,,,,,,,,,,,,,,,,left,1,4.243,0,0,0,0,1,,,,,,,,,,,,,,,,,,,,,,,,,,,,,,,,,,,,,,,,,,,,,,,,,,,,,,,,,,,
,,,,,,,,,R_3sbpeXZ6cpDH6SI,2022-07-04_12h23.39.624,jpn_C02,2022.1.2,Win32,59.88023952,,,,,,,,,,,,,,,,,,,,,,,,,0,9,9,10,1,CartoonStims/artist_shoot_burglar_r.jpg,パツ　シド　ルピン,CartoonStims/chef_shoot_burglar_r.jpg,left,CartoonStims/artist_shoot_burglar_r.jpg,audio/patsusidolupin.mp3,残念！ こちらが正しい画像です。,,,,,,,,,,,,,,,,,,,,,,,,,,,,,,,,,,,,,,,,,,,,,,,
,,,,,,,,,R_3sbpeXZ6cpDH6SI,2022-07-04_12h23.39.624,jpn_C02,2022.1.2,Win32,59.88023952,,,,,,,,,,,,,,,,,left,1,2.403,0,0,0,0,1,,,,,,,,,,,,,,,,,,,,,,,,,,,,,,,,,,,,,,,,,,,,,,,,,,,,,,,,,,,
,,,,,,,,,R_3sbpeXZ6cpDH6SI,2022-07-04_12h23.39.624,jpn_C02,2022.1.2,Win32,59.88023952,,,,,,,,,,,,,,,,,,,,,,,,,0,10,10,2,1,CartoonStims/boxer_shoot_doctor_r.jpg,パツ　ドキ　ピポ,CartoonStims/boxer_shoot_artist_r.jpg,left,CartoonStims/boxer_shoot_doctor_r.jpg,audio/patsudokipipo.mp3,残念！ こちらが正しい画像です。,,,,,,,,,,,,,,,,,,,,,,,,,,,,,,,,,,,,,,,,,,,,,,,
,,,,,,,,,R_3sbpeXZ6cpDH6SI,2022-07-04_12h23.39.624,jpn_C02,2022.1.2,Win32,59.88023952,,,,,,,,,,,,,,,,,right,1,3.329,,,,,,,,,,,,,,,,,,0,0,0,0,1,,,,,,,,,,,,,,,,,,,,,,,,,,,,,,,,,,,,,,,,,,
,,,,,,,,,R_3sbpeXZ6cpDH6SI,2022-07-04_12h23.39.624,jpn_C02,2022.1.2,Win32,59.88023952,,,,,,,,,,,,,,,,,,,,,,,,,0,11,11,3,1,CartoonStims/cowboy_punch_doctor_r.jpg,プミ　ムク　ドキ,CartoonStims/cowboy_punch_boxer_r.jpg,right,CartoonStims/cowboy_punch_boxer_r.jpg,audio/pumimukudoki.mp3,残念！ こちらが正しい画像です。,,,,,,,,,,,,,,,,,,,,,,,,,,,,,,,,,,,,,,,,,,,,,,,
,,,,,,,,,R_3sbpeXZ6cpDH6SI,2022-07-04_12h23.39.624,jpn_C02,2022.1.2,Win32,59.88023952,,,,,,,,,,,,,,,,,,,,,,,,,,,,,,,,,,,,,,,,,,space,3.993,セル　ピポ　ホレト,right,20.005,0,0,0,0,1,,,,,,,,,,,,,,,,,,,,,,,,,,,,,,,,
,,,,,,,,,R_3sbpeXZ6cpDH6SI,2022-07-04_12h23.39.624,jpn_C02,2022.1.2,Win32,59.88023952,,,,,,,,,,,,,CartoonStims/doctor_kick_chef_r.jpg,audio/serupipohoreto.mp3,,,,,,,,,,,,,,,,,,,,,,,,,,,,,,,,,,,,,,0,0,0,1,1,セル　ピポ　ホレト,,,,,,,,,,,,,,,,,,,,,,,,,,
,,,,,,,,,R_3sbpeXZ6cpDH6SI,2022-07-04_12h23.39.624,jpn_C02,2022.1.2,Win32,59.88023952,,,,,,,,,,,,,,,,,,,,,,,,,,,,,,,,,,,,,,,,,,,,パツ　ルピン　ホレト,right,14.29,0,0,0,0,1,,,,,,,,,,,,,,,,,,,,,,,,,,,,,,,,
,,,,,,,,,R_3sbpeXZ6cpDH6SI,2022-07-04_12h23.39.624,jpn_C02,2022.1.2,Win32,59.88023952,,,,,,,,,,,,,CartoonStims/burglar_shoot_chef_r.jpg,audio/patsulupinhoreto.mp3,,,,,,,,,,,,,,,,,,,,,,,,,,,,,,,,,,,,,,0,1,1,6,1,パツ　ルピン　ホレト,,,,,,,,,,,,,,,,,,,,,,,,,,
,,,,,,,,,R_3sbpeXZ6cpDH6SI,2022-07-04_12h23.39.624,jpn_C02,2022.1.2,Win32,59.88023952,,,,,,,,,,,,,,,,,,,,,,,,,,,,,,,,,,,,,,,,,,,,パツ　ホレト　ムク,right,12.821,0,0,0,0,1,,,,,,,,,,,,,,,,,,,,,,,,,,,,,,,,
,,,,,,,,,R_3sbpeXZ6cpDH6SI,2022-07-04_12h23.39.624,jpn_C02,2022.1.2,Win32,59.88023952,,,,,,,,,,,,,CartoonStims/chef_shoot_cowboy_r.jpg,audio/patsuhoretomuku.mp3,,,,,,,,,,,,,,,,,,,,,,,,,,,,,,,,,,,,,,0,2,2,7,1,パツ　ホレト　ムク,,,,,,,,,,,,,,,,,,,,,,,,,,
,,,,,,,,,R_3sbpeXZ6cpDH6SI,2022-07-04_12h23.39.624,jpn_C02,2022.1.2,Win32,59.88023952,,,,,,,,,,,,,,,,,,,,,,,,,,,,,,,,,,,,,,,,,,,,プミ　シド　ルピン,right,13.315,0,0,0,0,1,,,,,,,,,,,,,,,,,,,,,,,,,,,,,,,,
,,,,,,,,,R_3sbpeXZ6cpDH6SI,2022-07-04_12h23.39.624,jpn_C02,2022.1.2,Win32,59.88023952,,,,,,,,,,,,,CartoonStims/artist_punch_burglar_r.jpg,audio/pumisidolupin.mp3,,,,,,,,,,,,,,,,,,,,,,,,,,,,,,,,,,,,,,0,3,3,9,1,プミ　シド　ルピン,,,,,,,,,,,,,,,,,,,,,,,,,,
,,,,,,,,,R_3sbpeXZ6cpDH6SI,2022-07-04_12h23.39.624,jpn_C02,2022.1.2,Win32,59.88023952,,,,,,,,,,,,,,,,,,,,,,,,,,,,,,,,,,,,,,,,,,,,パツ　ムク　ピポ,right,16.428,0,0,0,0,1,,,,,,,,,,,,,,,,,,,,,,,,,,,,,,,,
,,,,,,,,,R_3sbpeXZ6cpDH6SI,2022-07-04_12h23.39.624,jpn_C02,2022.1.2,Win32,59.88023952,,,,,,,,,,,,,CartoonStims/cowboy_shoot_doctor_r.jpg,audio/patsumukupipo.mp3,,,,,,,,,,,,,,,,,,,,,,,,,,,,,,,,,,,,,,0,4,4,8,1,パツ　ムク　ピポ,,,,,,,,,,,,,,,,,,,,,,,,,,
,,,,,,,,,R_3sbpeXZ6cpDH6SI,2022-07-04_12h23.39.624,jpn_C02,2022.1.2,Win32,59.88023952,,,,,,,,,,,,,,,,,,,,,,,,,,,,,,,,,,,,,,,,,,,,セル　ムク　ルピン,right,10.407,0,0,0,0,1,,,,,,,,,,,,,,,,,,,,,,,,,,,,,,,,
,,,,,,,,,R_3sbpeXZ6cpDH6SI,2022-07-04_12h23.39.624,jpn_C02,2022.1.2,Win32,59.88023952,,,,,,,,,,,,,CartoonStims/cowboy_kick_burglar_r.jpg,audio/serumukulupin.mp3,,,,,,,,,,,,,,,,,,,,,,,,,,,,,,,,,,,,,,0,5,5,0,1,セル　ムク　ルピン,,,,,,,,,,,,,,,,,,,,,,,,,,
,,,,,,,,,R_3sbpeXZ6cpDH6SI,2022-07-04_12h23.39.624,jpn_C02,2022.1.2,Win32,59.88023952,,,,,,,,,,,,,,,,,,,,,,,,,,,,,,,,,,,,,,,,,,,,わからん,right,23.722,0,0,0,0,1,,,,,,,,,,,,,,,,,,,,,,,,,,,,,,,,
,,,,,,,,,R_3sbpeXZ6cpDH6SI,2022-07-04_12h23.39.624,jpn_C02,2022.1.2,Win32,59.88023952,,,,,,,,,,,,,CartoonStims/artist_point_boxer_r.jpg,audio/tomasidodoki.mp3,,,,,,,,,,,,,,,,,,,,,,,,,,,,,,,,,,,,,,0,6,6,3,1,トマ　シド　ドキ,,,,,,,,,,,,,,,,,,,,,,,,,,
,,,,,,,,,R_3sbpeXZ6cpDH6SI,2022-07-04_12h23.39.624,jpn_C02,2022.1.2,Win32,59.88023952,,,,,,,,,,,,,,,,,,,,,,,,,,,,,,,,,,,,,,,,,,,,トマ　ホレト　ルピン,right,11.336,0,0,0,0,1,,,,,,,,,,,,,,,,,,,,,,,,,,,,,,,,
,,,,,,,,,R_3sbpeXZ6cpDH6SI,2022-07-04_12h23.39.624,jpn_C02,2022.1.2,Win32,59.88023952,,,,,,,,,,,,,CartoonStims/chef_point_burglar_r.jpg,audio/tomahoretolupin.mp3,,,,,,,,,,,,,,,,,,,,,,,,,,,,,,,,,,,,,,0,7,7,5,1,トマ　ホレト　ルピン,,,,,,,,,,,,,,,,,,,,,,,,,,
,,,,,,,,,R_3sbpeXZ6cpDH6SI,2022-07-04_12h23.39.624,jpn_C02,2022.1.2,Win32,59.88023952,,,,,,,,,,,,,,,,,,,,,,,,,,,,,,,,,,,,,,,,,,,,プミ　ドキ　シド,right,15.829,0,0,0,0,1,,,,,,,,,,,,,,,,,,,,,,,,,,,,,,,,
,,,,,,,,,R_3sbpeXZ6cpDH6SI,2022-07-04_12h23.39.624,jpn_C02,2022.1.2,Win32,59.88023952,,,,,,,,,,,,,CartoonStims/boxer_punch_artist_r.jpg,audio/pumidokisido.mp3,,,,,,,,,,,,,,,,,,,,,,,,,,,,,,,,,,,,,,0,8,8,11,1,プミ　ドキ　シド,,,,,,,,,,,,,,,,,,,,,,,,,,
,,,,,,,,,R_3sbpeXZ6cpDH6SI,2022-07-04_12h23.39.624,jpn_C02,2022.1.2,Win32,59.88023952,,,,,,,,,,,,,,,,,,,,,,,,,,,,,,,,,,,,,,,,,,,,セル　ドキ　ムク,right,10.723,0,0,0,0,1,,,,,,,,,,,,,,,,,,,,,,,,,,,,,,,,
,,,,,,,,,R_3sbpeXZ6cpDH6SI,2022-07-04_12h23.39.624,jpn_C02,2022.1.2,Win32,59.88023952,,,,,,,,,,,,,CartoonStims/boxer_kick_cowboy_r.jpg,audio/serudokimuku.mp3,,,,,,,,,,,,,,,,,,,,,,,,,,,,,,,,,,,,,,0,9,9,2,1,セル　ドキ　ムク,,,,,,,,,,,,,,,,,,,,,,,,,,
,,,,,,,,,R_3sbpeXZ6cpDH6SI,2022-07-04_12h23.39.624,jpn_C02,2022.1.2,Win32,59.88023952,,,,,,,,,,,,,,,,,,,,,,,,,,,,,,,,,,,,,,,,,,,,プミ　ピポ　ドキ,right,11.53,0,0,0,0,1,,,,,,,,,,,,,,,,,,,,,,,,,,,,,,,,
,,,,,,,,,R_3sbpeXZ6cpDH6SI,2022-07-04_12h23.39.624,jpn_C02,2022.1.2,Win32,59.88023952,,,,,,,,,,,,,CartoonStims/doctor_punch_boxer_r.jpg,audio/pumipipodoki.mp3,,,,,,,,,,,,,,,,,,,,,,,,,,,,,,,,,,,,,,0,10,10,10,1,プミ　ピポ　ドキ,,,,,,,,,,,,,,,,,,,,,,,,,,
,,,,,,,,,R_3sbpeXZ6cpDH6SI,2022-07-04_12h23.39.624,jpn_C02,2022.1.2,Win32,59.88023952,,,,,,,,,,,,,,,,,,,,,,,,,,,,,,,,,,,,,,,,,,,,トマ　ルピン　シド,right,10.317,0,0,0,0,1,,,,,,,,,,,,,,,,,,,,,,,,,,,,,,,,
,,,,,,,,,R_3sbpeXZ6cpDH6SI,2022-07-04_12h23.39.624,jpn_C02,2022.1.2,Win32,59.88023952,,,,,,,,,,,,,CartoonStims/burglar_point_artist_r.jpg,audio/tomalupinsido.mp3,,,,,,,,,,,,,,,,,,,,,,,,,,,,,,,,,,,,,,0,11,11,4,1,トマ　ルピン　シド,,,,,,,,,,,,,,,,,,,,,,,,,,
,,,,,,,,,R_3sbpeXZ6cpDH6SI,2022-07-04_12h23.39.624,jpn_C02,2022.1.2,Win32,59.88023952,,,,,,,,,,,,,,,,,,,,,,,,,,,,,,,,,,,,,,,,,,,,,,,,,,,,,,,,,,,space,4.928,0,1,1,1,1,AffExposure.xlsx,"第二のトライアルの学習では、この言語で書かれた文を見ていただきます。引き続き注意して、 聞こえた音を復唱してください。


スペースキーを押してください。",1,AffFCT.xlsx,ここからクイズが始まります。 スクリーンに表示されるテキストに合う画像を選んでください。,AffTest.xlsx,1,次にここまで学んだことをアウトプットしていただきます。 表示される画像を描写していると思う単語を、テキストボックスにタイプしてください。 答えを提出したあとに正しい正解が少しの間画面に写ります。,1,"これで第二のトライアルが終了しました。 ここで休憩をとっていただいても構いません。

休憩が終わりましたら、 スペースキーを押して続きの学習を行いましょう。",,,,,,,,
,,,,,,,,,R_3sbpeXZ6cpDH6SI,2022-07-04_12h23.39.624,jpn_C02,2022.1.2,Win32,59.88023952,space,2.572,space,10.086,0,0,0,44,1,プミ　ピク　ピポ　ホレト,,,CartoonStims/doctor_punch_chef_r_no.jpg,audio/pumipikupipohoreto.mp3,,,,,,,,,,,,,,,,,,,,,,,,,,,,,,,,,,,,,,,,,,,,,,,,,,,,,,,,,,,,,,,,,,,,,
,,,,,,,,,R_3sbpeXZ6cpDH6SI,2022-07-04_12h23.39.624,jpn_C02,2022.1.2,Win32,59.88023952,,,space,6.335,0,1,1,40,1,ピク　プミ　ホレト　シド,,,CartoonStims/chef_punch_artist_r_no.jpg,audio/pikupumihoretosido.mp3,,,,,,,,,,,,,,,,,,,,,,,,,,,,,,,,,,,,,,,,,,,,,,,,,,,,,,,,,,,,,,,,,,,,,
,,,,,,,,,R_3sbpeXZ6cpDH6SI,2022-07-04_12h23.39.624,jpn_C02,2022.1.2,Win32,59.88023952,,,space,2.106,0,2,2,38,1,ピク　プミ　ルピン　ドキ,,,CartoonStims/burglar_punch_boxer_r_no.jpg,audio/pikupumilupindoki.mp3,,,,,,,,,,,,,,,,,,,,,,,,,,,,,,,,,,,,,,,,,,,,,,,,,,,,,,,,,,,,,,,,,,,,,
,,,,,,,,,R_3sbpeXZ6cpDH6SI,2022-07-04_12h23.39.624,jpn_C02,2022.1.2,Win32,59.88023952,,,space,1.676,0,3,3,3,1,ピク　セル　ルピン　ムク,,,CartoonStims/burglar_kick_cowboy_r_no.jpg,audio/pikuserulupinmuku.mp3,,,,,,,,,,,,,,,,,,,,,,,,,,,,,,,,,,,,,,,,,,,,,,,,,,,,,,,,,,,,,,,,,,,,,
,,,,,,,,,R_3sbpeXZ6cpDH6SI,2022-07-04_12h23.39.624,jpn_C02,2022.1.2,Win32,59.88023952,,,space,1.778,0,4,4,31,1,ピク　パツ　ムク　ルピン,,,CartoonStims/cowboy_shoot_burglar_r_no.jpg,audio/pikupatsumukulupin.mp3,,,,,,,,,,,,,,,,,,,,,,,,,,,,,,,,,,,,,,,,,,,,,,,,,,,,,,,,,,,,,,,,,,,,,
,,,,,,,,,R_3sbpeXZ6cpDH6SI,2022-07-04_12h23.39.624,jpn_C02,2022.1.2,Win32,59.88023952,,,space,1.147,0,5,5,22,1,ピク　トマ　ドキ　ルピン,,,CartoonStims/boxer_point_burglar_r_no.jpg,audio/pikutomadokilupin.mp3,,,,,,,,,,,,,,,,,,,,,,,,,,,,,,,,,,,,,,,,,,,,,,,,,,,,,,,,,,,,,,,,,,,,,
,,,,,,,,,R_3sbpeXZ6cpDH6SI,2022-07-04_12h23.39.624,jpn_C02,2022.1.2,Win32,59.88023952,,,space,1.138,0,6,6,30,1,ピク　パツ　ムク　シド,,,CartoonStims/cowboy_shoot_artist_r_no.jpg,audio/pikupatsumukusido.mp3,,,,,,,,,,,,,,,,,,,,,,,,,,,,,,,,,,,,,,,,,,,,,,,,,,,,,,,,,,,,,,,,,,,,,
,,,,,,,,,R_3sbpeXZ6cpDH6SI,2022-07-04_12h23.39.624,jpn_C02,2022.1.2,Win32,59.88023952,,,space,7.798,0,7,7,27,1,パツ　ピク　ルピン　ドキ,,,CartoonStims/burglar_shoot_boxer_r_no.jpg,audio/patsupikulupindoki.mp3,,,,,,,,,,,,,,,,,,,,,,,,,,,,,,,,,,,,,,,,,,,,,,,,,,,,,,,,,,,,,,,,,,,,,
,,,,,,,,,R_3sbpeXZ6cpDH6SI,2022-07-04_12h23.39.624,jpn_C02,2022.1.2,Win32,59.88023952,,,space,1.554,0,8,8,25,1,パツ　ピク　シド　ピポ,,,CartoonStims/artist_shoot_doctor_r_no.jpg,audio/patsupikusidopipo.mp3,,,,,,,,,,,,,,,,,,,,,,,,,,,,,,,,,,,,,,,,,,,,,,,,,,,,,,,,,,,,,,,,,,,,,
,,,,,,,,,R_3sbpeXZ6cpDH6SI,2022-07-04_12h23.39.624,jpn_C02,2022.1.2,Win32,59.88023952,,,space,1.744,0,9,9,21,1,ピク　トマ　ピポ　ルピン,,,CartoonStims/doctor_point_burglar_r_no.jpg,audio/pikutomapipolupin.mp3,,,,,,,,,,,,,,,,,,,,,,,,,,,,,,,,,,,,,,,,,,,,,,,,,,,,,,,,,,,,,,,,,,,,,
,,,,,,,,,R_3sbpeXZ6cpDH6SI,2022-07-04_12h23.39.624,jpn_C02,2022.1.2,Win32,59.88023952,,,space,2.572,0,10,10,19,1,トマ　ピク　ムク　シド,,,CartoonStims/cowboy_point_artist_r_no.jpg,audio/tomapikumukusido.mp3,,,,,,,,,,,,,,,,,,,,,,,,,,,,,,,,,,,,,,,,,,,,,,,,,,,,,,,,,,,,,,,,,,,,,
,,,,,,,,,R_3sbpeXZ6cpDH6SI,2022-07-04_12h23.39.624,jpn_C02,2022.1.2,Win32,59.88023952,,,space,1.436,0,11,11,13,1,ピク　トマ　シド　ムク,,,CartoonStims/artist_point_cowboy_r_no.jpg,audio/pikutomasidomuku.mp3,,,,,,,,,,,,,,,,,,,,,,,,,,,,,,,,,,,,,,,,,,,,,,,,,,,,,,,,,,,,,,,,,,,,,
,,,,,,,,,R_3sbpeXZ6cpDH6SI,2022-07-04_12h23.39.624,jpn_C02,2022.1.2,Win32,59.88023952,,,space,1.522,0,12,12,5,1,ピク　セル　ホレト　ピポ,,,CartoonStims/chef_kick_doctor_r_no.jpg,audio/pikuseruhoretopipo.mp3,,,,,,,,,,,,,,,,,,,,,,,,,,,,,,,,,,,,,,,,,,,,,,,,,,,,,,,,,,,,,,,,,,,,,
,,,,,,,,,R_3sbpeXZ6cpDH6SI,2022-07-04_12h23.39.624,jpn_C02,2022.1.2,Win32,59.88023952,,,space,1.003,0,13,13,18,1,ピク　トマ　ムク　ドキ,,,CartoonStims/cowboy_point_boxer_r_no.jpg,audio/pikutomamukudoki.mp3,,,,,,,,,,,,,,,,,,,,,,,,,,,,,,,,,,,,,,,,,,,,,,,,,,,,,,,,,,,,,,,,,,,,,
,,,,,,,,,R_3sbpeXZ6cpDH6SI,2022-07-04_12h23.39.624,jpn_C02,2022.1.2,Win32,59.88023952,,,space,1.706,0,14,14,8,1,セル　ピク　ピポ　ドキ,,,CartoonStims/doctor_kick_boxer_r_no.jpg,audio/serupikupipodoki.mp3,,,,,,,,,,,,,,,,,,,,,,,,,,,,,,,,,,,,,,,,,,,,,,,,,,,,,,,,,,,,,,,,,,,,,
,,,,,,,,,R_3sbpeXZ6cpDH6SI,2022-07-04_12h23.39.624,jpn_C02,2022.1.2,Win32,59.88023952,,,space,1.187,0,15,15,0,1,セル　ピク　シド　ルピン,,,CartoonStims/artist_kick_burglar_r_no.jpg,audio/serupikusidolupin.mp3,,,,,,,,,,,,,,,,,,,,,,,,,,,,,,,,,,,,,,,,,,,,,,,,,,,,,,,,,,,,,,,,,,,,,
,,,,,,,,,R_3sbpeXZ6cpDH6SI,2022-07-04_12h23.39.624,jpn_C02,2022.1.2,Win32,59.88023952,,,space,1.856,0,16,16,26,1,ピク　パツ　ルピン　ピポ,,,CartoonStims/burglar_shoot_doctor_r_no.jpg,audio/pikupatsulupinpipo.mp3,,,,,,,,,,,,,,,,,,,,,,,,,,,,,,,,,,,,,,,,,,,,,,,,,,,,,,,,,,,,,,,,,,,,,
,,,,,,,,,R_3sbpeXZ6cpDH6SI,2022-07-04_12h23.39.624,jpn_C02,2022.1.2,Win32,59.88023952,,,space,1.087,0,17,17,7,1,ピク　セル　ムク　ドキ,,,CartoonStims/cowboy_kick_boxer_r_no.jpg,audio/pikuserumukudoki.mp3,,,,,,,,,,,,,,,,,,,,,,,,,,,,,,,,,,,,,,,,,,,,,,,,,,,,,,,,,,,,,,,,,,,,,
,,,,,,,,,R_3sbpeXZ6cpDH6SI,2022-07-04_12h23.39.624,jpn_C02,2022.1.2,Win32,59.88023952,,,space,1.421,0,18,18,29,1,パツ　ピク　ホレト　シド,,,CartoonStims/chef_shoot_artist_r_no.jpg,audio/patsupikuhoretosido.mp3,,,,,,,,,,,,,,,,,,,,,,,,,,,,,,,,,,,,,,,,,,,,,,,,,,,,,,,,,,,,,,,,,,,,,
,,,,,,,,,R_3sbpeXZ6cpDH6SI,2022-07-04_12h23.39.624,jpn_C02,2022.1.2,Win32,59.88023952,,,space,1.302,0,19,19,39,1,ピク　プミ　ルピン　シド,,,CartoonStims/burglar_punch_artist_r_no.jpg,audio/pikupumilupinsido.mp3,,,,,,,,,,,,,,,,,,,,,,,,,,,,,,,,,,,,,,,,,,,,,,,,,,,,,,,,,,,,,,,,,,,,,
,,,,,,,,,R_3sbpeXZ6cpDH6SI,2022-07-04_12h23.39.624,jpn_C02,2022.1.2,Win32,59.88023952,,,space,1.178,0,20,20,47,1,ピク　プミ　ドキ　ピポ,,,CartoonStims/boxer_punch_doctor_r_no.jpg,audio/pikupumidokipipo.mp3,,,,,,,,,,,,,,,,,,,,,,,,,,,,,,,,,,,,,,,,,,,,,,,,,,,,,,,,,,,,,,,,,,,,,
,,,,,,,,,R_3sbpeXZ6cpDH6SI,2022-07-04_12h23.39.624,jpn_C02,2022.1.2,Win32,59.88023952,,,space,1.612,0,21,21,33,1,ピク　パツ　ピポ　ホレト,,,CartoonStims/doctor_shoot_chef_r_no.jpg,audio/pikupatsupipohoreto.mp3,,,,,,,,,,,,,,,,,,,,,,,,,,,,,,,,,,,,,,,,,,,,,,,,,,,,,,,,,,,,,,,,,,,,,
,,,,,,,,,R_3sbpeXZ6cpDH6SI,2022-07-04_12h23.39.624,jpn_C02,2022.1.2,Win32,59.88023952,,,space,1.12,0,22,22,24,1,ピク　パツ　シド　ムク,,,CartoonStims/artist_shoot_cowboy_r_no.jpg,audio/pikupatsusidomuku.mp3,,,,,,,,,,,,,,,,,,,,,,,,,,,,,,,,,,,,,,,,,,,,,,,,,,,,,,,,,,,,,,,,,,,,,
,,,,,,,,,R_3sbpeXZ6cpDH6SI,2022-07-04_12h23.39.624,jpn_C02,2022.1.2,Win32,59.88023952,,,space,1.121,0,23,23,35,1,ピク　パツ　ドキ　ムク,,,CartoonStims/boxer_shoot_cowboy_r_no.jpg,audio/pikupatsudokimuku.mp3,,,,,,,,,,,,,,,,,,,,,,,,,,,,,,,,,,,,,,,,,,,,,,,,,,,,,,,,,,,,,,,,,,,,,
,,,,,,,,,R_3sbpeXZ6cpDH6SI,2022-07-04_12h23.39.624,jpn_C02,2022.1.2,Win32,59.88023952,,,space,1.02,0,24,24,46,1,プミ　ピク　ドキ　ムク,,,CartoonStims/boxer_punch_cowboy_r_no.jpg,audio/pumipikudokimuku.mp3,,,,,,,,,,,,,,,,,,,,,,,,,,,,,,,,,,,,,,,,,,,,,,,,,,,,,,,,,,,,,,,,,,,,,
,,,,,,,,,R_3sbpeXZ6cpDH6SI,2022-07-04_12h23.39.624,jpn_C02,2022.1.2,Win32,59.88023952,,,space,1.121,0,25,25,10,1,ピク　セル　ドキ　シド,,,CartoonStims/boxer_kick_artist_r_no.jpg,audio/pikuserudokisido.mp3,,,,,,,,,,,,,,,,,,,,,,,,,,,,,,,,,,,,,,,,,,,,,,,,,,,,,,,,,,,,,,,,,,,,,
,,,,,,,,,R_3sbpeXZ6cpDH6SI,2022-07-04_12h23.39.624,jpn_C02,2022.1.2,Win32,59.88023952,,,space,1.122,0,26,26,20,1,ピク　トマ　ピポ　シド,,,CartoonStims/doctor_point_artist_r_no.jpg,audio/pikutomapiposido.mp3,,,,,,,,,,,,,,,,,,,,,,,,,,,,,,,,,,,,,,,,,,,,,,,,,,,,,,,,,,,,,,,,,,,,,
,,,,,,,,,R_3sbpeXZ6cpDH6SI,2022-07-04_12h23.39.624,jpn_C02,2022.1.2,Win32,59.88023952,,,space,1.098,0,27,27,36,1,ピク　プミ　シド　ピポ,,,CartoonStims/artist_punch_doctor_r_no.jpg,audio/pikupumisidopipo.mp3,,,,,,,,,,,,,,,,,,,,,,,,,,,,,,,,,,,,,,,,,,,,,,,,,,,,,,,,,,,,,,,,,,,,,
,,,,,,,,,R_3sbpeXZ6cpDH6SI,2022-07-04_12h23.39.624,jpn_C02,2022.1.2,Win32,59.88023952,,,space,1.243,0,28,28,28,1,ピク　パツ　ホレト　ドキ,,,CartoonStims/chef_shoot_boxer_r_no.jpg,audio/pikupatsuhoretodoki.mp3,,,,,,,,,,,,,,,,,,,,,,,,,,,,,,,,,,,,,,,,,,,,,,,,,,,,,,,,,,,,,,,,,,,,,
,,,,,,,,,R_3sbpeXZ6cpDH6SI,2022-07-04_12h23.39.624,jpn_C02,2022.1.2,Win32,59.88023952,,,space,1.236,0,29,29,45,1,ピク　プミ　ピポ　ムク,,,CartoonStims/doctor_punch_cowboy_r_no.jpg,audio/pikupumipipomuku.mp3,,,,,,,,,,,,,,,,,,,,,,,,,,,,,,,,,,,,,,,,,,,,,,,,,,,,,,,,,,,,,,,,,,,,,
,,,,,,,,,R_3sbpeXZ6cpDH6SI,2022-07-04_12h23.39.624,jpn_C02,2022.1.2,Win32,59.88023952,,,space,1.237,0,30,30,2,1,ピク　セル　ルピン　ホレト,,,CartoonStims/burglar_kick_chef_r_no.jpg,audio/pikuserulupinhoreto.mp3,,,,,,,,,,,,,,,,,,,,,,,,,,,,,,,,,,,,,,,,,,,,,,,,,,,,,,,,,,,,,,,,,,,,,
,,,,,,,,,R_3sbpeXZ6cpDH6SI,2022-07-04_12h23.39.624,jpn_C02,2022.1.2,Win32,59.88023952,,,space,0.987,0,31,31,6,1,ピク　セル　ムク　ピポ,,,CartoonStims/cowboy_kick_doctor_r_no.jpg,audio/pikuserumukupipo.mp3,,,,,,,,,,,,,,,,,,,,,,,,,,,,,,,,,,,,,,,,,,,,,,,,,,,,,,,,,,,,,,,,,,,,,
,,,,,,,,,R_3sbpeXZ6cpDH6SI,2022-07-04_12h23.39.624,jpn_C02,2022.1.2,Win32,59.88023952,,,space,1.087,0,32,32,1,1,ピク　セル　シド　ホレト,,,CartoonStims/artist_kick_chef_r_no.jpg,audio/pikuserusidohoreto.mp3,,,,,,,,,,,,,,,,,,,,,,,,,,,,,,,,,,,,,,,,,,,,,,,,,,,,,,,,,,,,,,,,,,,,,
,,,,,,,,,R_3sbpeXZ6cpDH6SI,2022-07-04_12h23.39.624,jpn_C02,2022.1.2,Win32,59.88023952,,,space,1.771,0,33,33,16,1,ピク　トマ　ホレト　ピポ,,,CartoonStims/chef_point_doctor_r_no.jpg,audio/pikutomahoretopipo.mp3,,,,,,,,,,,,,,,,,,,,,,,,,,,,,,,,,,,,,,,,,,,,,,,,,,,,,,,,,,,,,,,,,,,,,
,,,,,,,,,R_3sbpeXZ6cpDH6SI,2022-07-04_12h23.39.624,jpn_C02,2022.1.2,Win32,59.88023952,,,space,1.181,0,34,34,43,1,ピク　プミ　ムク　ホレト,,,CartoonStims/cowboy_punch_chef_r_no.jpg,audio/pikupumimukuhoreto.mp3,,,,,,,,,,,,,,,,,,,,,,,,,,,,,,,,,,,,,,,,,,,,,,,,,,,,,,,,,,,,,,,,,,,,,
,,,,,,,,,R_3sbpeXZ6cpDH6SI,2022-07-04_12h23.39.624,jpn_C02,2022.1.2,Win32,59.88023952,,,space,1.139,0,35,35,42,1,プミ　ピク　ムク　ルピン,,,CartoonStims/cowboy_punch_burglar_r_no.jpg,audio/pumipikumukulupin.mp3,,,,,,,,,,,,,,,,,,,,,,,,,,,,,,,,,,,,,,,,,,,,,,,,,,,,,,,,,,,,,,,,,,,,,
,,,,,,,,,R_3sbpeXZ6cpDH6SI,2022-07-04_12h23.39.624,jpn_C02,2022.1.2,Win32,59.88023952,,,space,1.204,0,36,36,37,1,ピク　プミ　シド　ドキ,,,CartoonStims/artist_punch_boxer_r_no.jpg,audio/pikupumisidodoki.mp3,,,,,,,,,,,,,,,,,,,,,,,,,,,,,,,,,,,,,,,,,,,,,,,,,,,,,,,,,,,,,,,,,,,,,
,,,,,,,,,R_3sbpeXZ6cpDH6SI,2022-07-04_12h23.39.624,jpn_C02,2022.1.2,Win32,59.88023952,,,space,1.16,0,37,37,17,1,ピク　トマ　ホレト　ドキ,,,CartoonStims/chef_point_boxer_r_no.jpg,audio/pikutomahoretodoki.mp3,,,,,,,,,,,,,,,,,,,,,,,,,,,,,,,,,,,,,,,,,,,,,,,,,,,,,,,,,,,,,,,,,,,,,
,,,,,,,,,R_3sbpeXZ6cpDH6SI,2022-07-04_12h23.39.624,jpn_C02,2022.1.2,Win32,59.88023952,,,space,1.321,0,38,38,9,1,ピク　セル　ピポ　シド,,,CartoonStims/doctor_kick_artist_r_no.jpg,audio/pikuserupiposido.mp3,,,,,,,,,,,,,,,,,,,,,,,,,,,,,,,,,,,,,,,,,,,,,,,,,,,,,,,,,,,,,,,,,,,,,
,,,,,,,,,R_3sbpeXZ6cpDH6SI,2022-07-04_12h23.39.624,jpn_C02,2022.1.2,Win32,59.88023952,,,space,1.139,0,39,39,11,1,ピク　セル　ドキ　ルピン,,,CartoonStims/boxer_kick_burglar_r_no.jpg,audio/pikuserudokilupin.mp3,,,,,,,,,,,,,,,,,,,,,,,,,,,,,,,,,,,,,,,,,,,,,,,,,,,,,,,,,,,,,,,,,,,,,
,,,,,,,,,R_3sbpeXZ6cpDH6SI,2022-07-04_12h23.39.624,jpn_C02,2022.1.2,Win32,59.88023952,,,space,1.208,0,40,40,12,1,ピク　トマ　シド　ホレト,,,CartoonStims/artist_point_chef_r_no.jpg,audio/pikutomasidohoreto.mp3,,,,,,,,,,,,,,,,,,,,,,,,,,,,,,,,,,,,,,,,,,,,,,,,,,,,,,,,,,,,,,,,,,,,,
,,,,,,,,,R_3sbpeXZ6cpDH6SI,2022-07-04_12h23.39.624,jpn_C02,2022.1.2,Win32,59.88023952,,,space,1.455,0,41,41,15,1,トマ　ピク　ルピン　ピポ,,,CartoonStims/burglar_point_doctor_r_no.jpg,audio/tomapikulupinpipo.mp3,,,,,,,,,,,,,,,,,,,,,,,,,,,,,,,,,,,,,,,,,,,,,,,,,,,,,,,,,,,,,,,,,,,,,
,,,,,,,,,R_3sbpeXZ6cpDH6SI,2022-07-04_12h23.39.624,jpn_C02,2022.1.2,Win32,59.88023952,,,space,1.612,0,42,42,32,1,ピク　パツ　ピポ　ルピン,,,CartoonStims/doctor_shoot_burglar_r_no.jpg,audio/pikupatsupipolupin.mp3,,,,,,,,,,,,,,,,,,,,,,,,,,,,,,,,,,,,,,,,,,,,,,,,,,,,,,,,,,,,,,,,,,,,,
,,,,,,,,,R_3sbpeXZ6cpDH6SI,2022-07-04_12h23.39.624,jpn_C02,2022.1.2,Win32,59.88023952,,,space,1.338,0,43,43,4,1,セル　ピク　ホレト　ムク,,,CartoonStims/chef_kick_cowboy_r_no.jpg,audio/serupikuhoretomuku.mp3,,,,,,,,,,,,,,,,,,,,,,,,,,,,,,,,,,,,,,,,,,,,,,,,,,,,,,,,,,,,,,,,,,,,,
,,,,,,,,,R_3sbpeXZ6cpDH6SI,2022-07-04_12h23.39.624,jpn_C02,2022.1.2,Win32,59.88023952,,,space,1.171,0,44,44,34,1,ピク　パツ　ドキ　ホレト,,,CartoonStims/boxer_shoot_chef_r_no.jpg,audio/pikupatsudokihoreto.mp3,,,,,,,,,,,,,,,,,,,,,,,,,,,,,,,,,,,,,,,,,,,,,,,,,,,,,,,,,,,,,,,,,,,,,
,,,,,,,,,R_3sbpeXZ6cpDH6SI,2022-07-04_12h23.39.624,jpn_C02,2022.1.2,Win32,59.88023952,,,space,0.969,0,45,45,14,1,ピク　トマ　ルピン　ムク,,,CartoonStims/burglar_point_cowboy_r_no.jpg,audio/pikutomalupinmuku.mp3,,,,,,,,,,,,,,,,,,,,,,,,,,,,,,,,,,,,,,,,,,,,,,,,,,,,,,,,,,,,,,,,,,,,,
,,,,,,,,,R_3sbpeXZ6cpDH6SI,2022-07-04_12h23.39.624,jpn_C02,2022.1.2,Win32,59.88023952,,,space,1.458,0,46,46,23,1,トマ　ピク　ドキ　ホレト,,,CartoonStims/boxer_point_chef_r_no.jpg,audio/tomapikudokihoreto.mp3,,,,,,,,,,,,,,,,,,,,,,,,,,,,,,,,,,,,,,,,,,,,,,,,,,,,,,,,,,,,,,,,,,,,,
,,,,,,,,,R_3sbpeXZ6cpDH6SI,2022-07-04_12h23.39.624,jpn_C02,2022.1.2,Win32,59.88023952,,,space,1.576,0,47,47,41,1,ピク　プミ　ホレト　ルピン,,,CartoonStims/chef_punch_burglar_r_no.jpg,audio/pikupumihoretolupin.mp3,,,,,,,,,,,,,,,,,,,,,,,,,,,,,,,,,,,,,,,,,,,,,,,,,,,,,,,,,,,,,,,,,,,,,
,,,,,,,,,R_3sbpeXZ6cpDH6SI,2022-07-04_12h23.39.624,jpn_C02,2022.1.2,Win32,59.88023952,,,,,,,,,,,,,,,space,0.224,left,1,8.584,0,0,0,0,1,,,,,,,,,,,,,,,,,,,,,,,,,,,,,,,,,,,,,,,,,,,,,,,,,,,,,,,,,,,
,,,,,,,,,R_3sbpeXZ6cpDH6SI,2022-07-04_12h23.39.624,jpn_C02,2022.1.2,Win32,59.88023952,,,,,,,,,,,,,,,,,,,,,,,,,0,0,0,2,1,CartoonStims/doctor_point_boxer_r.jpg,ピク　プミ　ピポ　ドキ,CartoonStims/doctor_punch_boxer_r.jpg,left,CartoonStims/doctor_point_boxer_r.jpg,audio/pikupumipipodoki.mp3,"残念！ こちらが正しい画像です。

否定文は起きていないことを示しているのを思い出してください。",,,,,,,,,,,,,,,,,,,,,,,,,,,,,,,,,,,,,,,,,,,,,,,
,,,,,,,,,R_3sbpeXZ6cpDH6SI,2022-07-04_12h23.39.624,jpn_C02,2022.1.2,Win32,59.88023952,,,,,,,,,,,,,,,,,left,1,6.217,0,0,0,0,1,,,,,,,,,,,,,,,,,,,,,,,,,,,,,,,,,,,,,,,,,,,,,,,,,,,,,,,,,,,
,,,,,,,,,R_3sbpeXZ6cpDH6SI,2022-07-04_12h23.39.624,jpn_C02,2022.1.2,Win32,59.88023952,,,,,,,,,,,,,,,,,,,,,,,,,0,1,1,0,1,CartoonStims/artist_shoot_burglar_r.jpg,プミ　ピク　シド　ルピン,CartoonStims/artist_punch_burglar_r.jpg,left,CartoonStims/artist_shoot_burglar_r.jpg,audio/pumipikusidolupin.mp3,"残念！ こちらが正しい画像です。

否定文は起きていないことを示しているのを思い出してください。",,,,,,,,,,,,,,,,,,,,,,,,,,,,,,,,,,,,,,,,,,,,,,,
,,,,,,,,,R_3sbpeXZ6cpDH6SI,2022-07-04_12h23.39.624,jpn_C02,2022.1.2,Win32,59.88023952,,,,,,,,,,,,,,,,,right,1,1.605,,,,,,,,,,,,,,,,,,0,0,0,0,1,,,,,,,,,,,,,,,,,,,,,,,,,,,,,,,,,,,,,,,,,,
,,,,,,,,,R_3sbpeXZ6cpDH6SI,2022-07-04_12h23.39.624,jpn_C02,2022.1.2,Win32,59.88023952,,,,,,,,,,,,,,,,,,,,,,,,,0,2,2,11,1,CartoonStims/chef_shoot_burglar_r.jpg,ピク　パツ　ホレト　ルピン,CartoonStims/chef_kick_burglar_r.jpg,right,CartoonStims/chef_kick_burglar_r.jpg,audio/pikupatsuhoretolupin.mp3,"残念！ こちらが正しい画像です。

否定文は起きていないことを示しているのを思い出してください。",,,,,,,,,,,,,,,,,,,,,,,,,,,,,,,,,,,,,,,,,,,,,,,
,,,,,,,,,R_3sbpeXZ6cpDH6SI,2022-07-04_12h23.39.624,jpn_C02,2022.1.2,Win32,59.88023952,,,,,,,,,,,,,,,,,left,1,1.706,0,0,0,0,1,,,,,,,,,,,,,,,,,,,,,,,,,,,,,,,,,,,,,,,,,,,,,,,,,,,,,,,,,,,
,,,,,,,,,R_3sbpeXZ6cpDH6SI,2022-07-04_12h23.39.624,jpn_C02,2022.1.2,Win32,59.88023952,,,,,,,,,,,,,,,,,,,,,,,,,0,3,3,8,1,CartoonStims/burglar_punch_artist_r.jpg,ピク　トマ　ルピン　シド,CartoonStims/burglar_point_artist_r.jpg,left,CartoonStims/burglar_punch_artist_r.jpg,audio/pikutomalupinsido.mp3,"残念！ こちらが正しい画像です。

否定文は起きていないことを示しているのを思い出してください。",,,,,,,,,,,,,,,,,,,,,,,,,,,,,,,,,,,,,,,,,,,,,,,
,,,,,,,,,R_3sbpeXZ6cpDH6SI,2022-07-04_12h23.39.624,jpn_C02,2022.1.2,Win32,59.88023952,,,,,,,,,,,,,,,,,right,1,0.711,,,,,,,,,,,,,,,,,,0,0,0,0,1,,,,,,,,,,,,,,,,,,,,,,,,,,,,,,,,,,,,,,,,,,
,,,,,,,,,R_3sbpeXZ6cpDH6SI,2022-07-04_12h23.39.624,jpn_C02,2022.1.2,Win32,59.88023952,,,,,,,,,,,,,,,,,,,,,,,,,0,4,4,5,1,CartoonStims/boxer_kick_cowboy_r.jpg,ピク　セル　ドキ　ムク,CartoonStims/boxer_punch_cowboy_r.jpg,right,CartoonStims/boxer_punch_cowboy_r.jpg,audio/pikuserudokimuku.mp3,"残念！ こちらが正しい画像です。

否定文は起きていないことを示しているのを思い出してください。",,,,,,,,,,,,,,,,,,,,,,,,,,,,,,,,,,,,,,,,,,,,,,,
,,,,,,,,,R_3sbpeXZ6cpDH6SI,2022-07-04_12h23.39.624,jpn_C02,2022.1.2,Win32,59.88023952,,,,,,,,,,,,,,,,,right,1,1.236,,,,,,,,,,,,,,,,,,0,0,0,0,1,,,,,,,,,,,,,,,,,,,,,,,,,,,,,,,,,,,,,,,,,,
,,,,,,,,,R_3sbpeXZ6cpDH6SI,2022-07-04_12h23.39.624,jpn_C02,2022.1.2,Win32,59.88023952,,,,,,,,,,,,,,,,,,,,,,,,,0,5,5,1,1,CartoonStims/chef_punch_cowboy_r.jpg,ピク　プミ　ホレト　ムク,CartoonStims/chef_kick_cowboy_r.jpg,right,CartoonStims/chef_kick_cowboy_r.jpg,audio/pikupumihoretomuku.mp3,"残念！ こちらが正しい画像です。

否定文は起きていないことを示しているのを思い出してください。",,,,,,,,,,,,,,,,,,,,,,,,,,,,,,,,,,,,,,,,,,,,,,,
,,,,,,,,,R_3sbpeXZ6cpDH6SI,2022-07-04_12h23.39.624,jpn_C02,2022.1.2,Win32,59.88023952,,,,,,,,,,,,,,,,,right,1,0.636,,,,,,,,,,,,,,,,,,0,0,0,0,1,,,,,,,,,,,,,,,,,,,,,,,,,,,,,,,,,,,,,,,,,,
,,,,,,,,,R_3sbpeXZ6cpDH6SI,2022-07-04_12h23.39.624,jpn_C02,2022.1.2,Win32,59.88023952,,,,,,,,,,,,,,,,,,,,,,,,,0,6,6,9,1,CartoonStims/boxer_shoot_doctor_r.jpg,ピク　パツ　ドキ　ピポ,CartoonStims/boxer_point_doctor_r.jpg,right,CartoonStims/boxer_point_doctor_r.jpg,audio/pikupatsudokipipo.mp3,"残念！ こちらが正しい画像です。

否定文は起きていないことを示しているのを思い出してください。",,,,,,,,,,,,,,,,,,,,,,,,,,,,,,,,,,,,,,,,,,,,,,,
,,,,,,,,,R_3sbpeXZ6cpDH6SI,2022-07-04_12h23.39.624,jpn_C02,2022.1.2,Win32,59.88023952,,,,,,,,,,,,,,,,,left,1,4.166,0,0,0,0,1,,,,,,,,,,,,,,,,,,,,,,,,,,,,,,,,,,,,,,,,,,,,,,,,,,,,,,,,,,,
,,,,,,,,,R_3sbpeXZ6cpDH6SI,2022-07-04_12h23.39.624,jpn_C02,2022.1.2,Win32,59.88023952,,,,,,,,,,,,,,,,,,,,,,,,,0,7,7,6,1,CartoonStims/artist_shoot_boxer_r.jpg,ピク　トマ　シド　ドキ,CartoonStims/artist_point_boxer_r.jpg,left,CartoonStims/artist_shoot_boxer_r.jpg,audio/pikutomasidodoki.mp3,"残念！ こちらが正しい画像です。

否定文は起きていないことを示しているのを思い出してください。",,,,,,,,,,,,,,,,,,,,,,,,,,,,,,,,,,,,,,,,,,,,,,,
,,,,,,,,,R_3sbpeXZ6cpDH6SI,2022-07-04_12h23.39.624,jpn_C02,2022.1.2,Win32,59.88023952,,,,,,,,,,,,,,,,,left,1,1.021,0,0,0,0,1,,,,,,,,,,,,,,,,,,,,,,,,,,,,,,,,,,,,,,,,,,,,,,,,,,,,,,,,,,,
,,,,,,,,,R_3sbpeXZ6cpDH6SI,2022-07-04_12h23.39.624,jpn_C02,2022.1.2,Win32,59.88023952,,,,,,,,,,,,,,,,,,,,,,,,,0,8,8,4,1,CartoonStims/burglar_shoot_doctor_r.jpg,ピク　セル　ルピン　ピポ,CartoonStims/burglar_kick_doctor_r.jpg,left,CartoonStims/burglar_shoot_doctor_r.jpg,audio/pikuserulupinpipo.mp3,"残念！ こちらが正しい画像です。

否定文は起きていないことを示しているのを思い出してください。",,,,,,,,,,,,,,,,,,,,,,,,,,,,,,,,,,,,,,,,,,,,,,,
,,,,,,,,,R_3sbpeXZ6cpDH6SI,2022-07-04_12h23.39.624,jpn_C02,2022.1.2,Win32,59.88023952,,,,,,,,,,,,,,,,,right,1,1.857,,,,,,,,,,,,,,,,,,0,0,0,0,1,,,,,,,,,,,,,,,,,,,,,,,,,,,,,,,,,,,,,,,,,,
,,,,,,,,,R_3sbpeXZ6cpDH6SI,2022-07-04_12h23.39.624,jpn_C02,2022.1.2,Win32,59.88023952,,,,,,,,,,,,,,,,,,,,,,,,,0,9,9,7,1,CartoonStims/cowboy_point_chef_r.jpg,トマ　ピク　ムク　ホレト,CartoonStims/cowboy_kick_chef_r.jpg,right,CartoonStims/cowboy_kick_chef_r.jpg,audio/tomapikumukuhoreto.mp3,"残念！ こちらが正しい画像です。

否定文は起きていないことを示しているのを思い出してください。",,,,,,,,,,,,,,,,,,,,,,,,,,,,,,,,,,,,,,,,,,,,,,,
,,,,,,,,,R_3sbpeXZ6cpDH6SI,2022-07-04_12h23.39.624,jpn_C02,2022.1.2,Win32,59.88023952,,,,,,,,,,,,,,,,,left,1,0.653,0,0,0,0,1,,,,,,,,,,,,,,,,,,,,,,,,,,,,,,,,,,,,,,,,,,,,,,,,,,,,,,,,,,,
,,,,,,,,,R_3sbpeXZ6cpDH6SI,2022-07-04_12h23.39.624,jpn_C02,2022.1.2,Win32,59.88023952,,,,,,,,,,,,,,,,,,,,,,,,,0,10,10,10,1,CartoonStims/doctor_punch_cowboy_r.jpg,パツ　ピク　ピポ　ムク,CartoonStims/doctor_shoot_cowboy_r.jpg,left,CartoonStims/doctor_punch_cowboy_r.jpg,audio/patsupikupipomuku.mp3,"残念！ こちらが正しい画像です。

否定文は起きていないことを示しているのを思い出してください。",,,,,,,,,,,,,,,,,,,,,,,,,,,,,,,,,,,,,,,,,,,,,,,
,,,,,,,,,R_3sbpeXZ6cpDH6SI,2022-07-04_12h23.39.624,jpn_C02,2022.1.2,Win32,59.88023952,,,,,,,,,,,,,,,,,right,1,1.341,,,,,,,,,,,,,,,,,,0,0,0,0,1,,,,,,,,,,,,,,,,,,,,,,,,,,,,,,,,,,,,,,,,,,
,,,,,,,,,R_3sbpeXZ6cpDH6SI,2022-07-04_12h23.39.624,jpn_C02,2022.1.2,Win32,59.88023952,,,,,,,,,,,,,,,,,,,,,,,,,0,11,11,3,1,CartoonStims/chef_kick_artist_r.jpg,セル　ピク　ホレト　シド,CartoonStims/chef_point_artist_r.jpg,right,CartoonStims/chef_point_artist_r.jpg,audio/serupikuhoretosido.mp3,"残念！ こちらが正しい画像です。

否定文は起きていないことを示しているのを思い出してください。",,,,,,,,,,,,,,,,,,,,,,,,,,,,,,,,,,,,,,,,,,,,,,,
,,,,,,,,,R_3sbpeXZ6cpDH6SI,2022-07-04_12h23.39.624,jpn_C02,2022.1.2,Win32,59.88023952,,,,,,,,,,,,,CartoonStims/artist_punch_burglar_r.jpg,,,,,,,,,,,,,,,,,,,,,,,,,,,,,space,6.665,プミ　シド　ルピン,right,25.433,,,,,,0,0,0,33,1,,,,,,,,,,,,,,,,,,,,,,,,,プミ　シド　ルピン,プミ　シド　ルピン,0
,,,,,,,,,R_3sbpeXZ6cpDH6SI,2022-07-04_12h23.39.624,jpn_C02,2022.1.2,Win32,59.88023952,,,,,,,,,,,,,CartoonStims/doctor_point_boxer_r_no.jpg,,,,,,,,,,,,,,,,,,,,,,,,,,,,,,,トマ　ピク　ピポ,right,14.381,,,,,,0,1,1,10,1,,,,,,,,,,,,,,,,,,,,,,,,,ピク　トマ　ピポ　ドキ,トマ　ピク　ピポ　ドキ,1
,,,,,,,,,R_3sbpeXZ6cpDH6SI,2022-07-04_12h23.39.624,jpn_C02,2022.1.2,Win32,59.88023952,,,,,,,,,,,,,CartoonStims/doctor_kick_chef_r.jpg,,,,,,,,,,,,,,,,,,,,,,,,,,,,,,,,right,0.145,,,,,,0,2,2,25,1,,,,,,,,,,,,,,,,,,,,,,,,,セル　ピポ　ホレト,セル　ピポ　ホレト,0
,,,,,,,,,R_3sbpeXZ6cpDH6SI,2022-07-04_12h23.39.624,jpn_C02,2022.1.2,Win32,59.88023952,,,,,,,,,,,,,CartoonStims/artist_shoot_chef_r_no.jpg,,,,,,,,,,,,,,,,,,,,,,,,,,,,,,,パツ　ピク　シド　ホレト,right,20.689,,,,,,0,3,3,12,1,,,,,,,,,,,,,,,,,,,,,,,,,ピク　パツ　シド　ホレト,パツ　ピク　シド　ホレト,1
,,,,,,,,,R_3sbpeXZ6cpDH6SI,2022-07-04_12h23.39.624,jpn_C02,2022.1.2,Win32,59.88023952,,,,,,,,,,,,,CartoonStims/cowboy_kick_burglar_r.jpg,,,,,,,,,,,,,,,,,,,,,,,,,,,,,,,セル　ピク　シド　ルピン,right,25.015,,,,,,0,4,4,24,1,,,,,,,,,,,,,,,,,,,,,,,,,セル　ムク　ルピン,セル　ムク　ルピン,0
,,,,,,,,,R_3sbpeXZ6cpDH6SI,2022-07-04_12h23.39.624,jpn_C02,2022.1.2,Win32,59.88023952,,,,,,,,,,,,,CartoonStims/artist_punch_cowboy_r_no.jpg,,,,,,,,,,,,,,,,,,,,,,,,,,,,,,,プミ　ピク　シド　ムク,right,27.395,,,,,,0,5,5,18,1,,,,,,,,,,,,,,,,,,,,,,,,,ピク　プミ　シド　ムク,プミ　ピク　シド　ムク,1
,,,,,,,,,R_3sbpeXZ6cpDH6SI,2022-07-04_12h23.39.624,jpn_C02,2022.1.2,Win32,59.88023952,,,,,,,,,,,,,CartoonStims/boxer_point_artist_r_no.jpg,,,,,,,,,,,,,,,,,,,,,,,,,,,,,,,トマ　ピク　ドキ　シド,right,23.583,,,,,,0,6,6,11,1,,,,,,,,,,,,,,,,,,,,,,,,,ピク　トマ　ドキ　シド,トマ　ピク　ドキ　シド,1
,,,,,,,,,R_3sbpeXZ6cpDH6SI,2022-07-04_12h23.39.624,jpn_C02,2022.1.2,Win32,59.88023952,,,,,,,,,,,,,CartoonStims/burglar_point_artist_r.jpg,,,,,,,,,,,,,,,,,,,,,,,,,,,,,,,トマ　ルピン　シド,right,10.291,,,,,,0,7,7,28,1,,,,,,,,,,,,,,,,,,,,,,,,,トマ　ルピン　シド,トマ　ルピン　シド,0
,,,,,,,,,R_3sbpeXZ6cpDH6SI,2022-07-04_12h23.39.624,jpn_C02,2022.1.2,Win32,59.88023952,,,,,,,,,,,,,CartoonStims/boxer_punch_artist_r.jpg,,,,,,,,,,,,,,,,,,,,,,,,,,,,,,,プミ　ドキ　シド,right,15.46,,,,,,0,8,8,35,1,,,,,,,,,,,,,,,,,,,,,,,,,プミ　ドキ　シド,プミ　ドキ　シド,0
,,,,,,,,,R_3sbpeXZ6cpDH6SI,2022-07-04_12h23.39.624,jpn_C02,2022.1.2,Win32,59.88023952,,,,,,,,,,,,,CartoonStims/cowboy_punch_artist_r_no.jpg,,,,,,,,,,,,,,,,,,,,,,,,,,,,,,,プミ　ピク　ムク　シド,right,25.867,,,,,,0,9,9,21,1,,,,,,,,,,,,,,,,,,,,,,,,,ピク　プミ　ムク　シド,プミ　ピク　ムク　シド,1
,,,,,,,,,R_3sbpeXZ6cpDH6SI,2022-07-04_12h23.39.624,jpn_C02,2022.1.2,Win32,59.88023952,,,,,,,,,,,,,CartoonStims/doctor_punch_boxer_r.jpg,,,,,,,,,,,,,,,,,,,,,,,,,,,,,,,プミ　ピポ　ドキ,right,14.055,,,,,,0,10,10,34,1,,,,,,,,,,,,,,,,,,,,,,,,,プミ　ピポ　ドキ,プミ　ピポ　ドキ,0
,,,,,,,,,R_3sbpeXZ6cpDH6SI,2022-07-04_12h23.39.624,jpn_C02,2022.1.2,Win32,59.88023952,,,,,,,,,,,,,CartoonStims/boxer_shoot_burglar_r_no.jpg,,,,,,,,,,,,,,,,,,,,,,,,,,,,,,,ピク　パツ　ドキ　ルピン,right,16.355,,,,,,0,11,11,17,1,,,,,,,,,,,,,,,,,,,,,,,,,ピク　パツ　ドキ　ルピン,パツ　ピク　ドキ　ルピン,1
,,,,,,,,,R_3sbpeXZ6cpDH6SI,2022-07-04_12h23.39.624,jpn_C02,2022.1.2,Win32,59.88023952,,,,,,,,,,,,,CartoonStims/boxer_kick_doctor_r_no.jpg,,,,,,,,,,,,,,,,,,,,,,,,,,,,,,,セル　ピク　ドキ　ピポ,right,15.209,,,,,,0,12,12,5,1,,,,,,,,,,,,,,,,,,,,,,,,,ピク　セル　ドキ　ピポ,セル　ピク　ドキ　ピポ,1
,,,,,,,,,R_3sbpeXZ6cpDH6SI,2022-07-04_12h23.39.624,jpn_C02,2022.1.2,Win32,59.88023952,,,,,,,,,,,,,CartoonStims/doctor_shoot_artist_r_no.jpg,,,,,,,,,,,,,,,,,,,,,,,,,,,,,,,ピク　パツ　ピポ　,right,21.587,,,,,,0,13,13,16,1,,,,,,,,,,,,,,,,,,,,,,,,,ピク　パツ　ピポ　シド,パツ　ピク　ピポ　シド,1
,,,,,,,,,R_3sbpeXZ6cpDH6SI,2022-07-04_12h23.39.624,jpn_C02,2022.1.2,Win32,59.88023952,,,,,,,,,,,,,CartoonStims/burglar_point_chef_r_no.jpg,,,,,,,,,,,,,,,,,,,,,,,,,,,,,,,,right,0.174,,,,,,0,14,14,7,1,,,,,,,,,,,,,,,,,,,,,,,,,ピク　トマ　ルピン　ホレト,トマ　ピク　ルピン　ホレト,1
,,,,,,,,,R_3sbpeXZ6cpDH6SI,2022-07-04_12h23.39.624,jpn_C02,2022.1.2,Win32,59.88023952,,,,,,,,,,,,,CartoonStims/burglar_shoot_cowboy_r_no.jpg,,,,,,,,,,,,,,,,,,,,,,,,,,,,,,,ピク　パツ　ルピン　ムク,right,25.118,,,,,,0,15,15,13,1,,,,,,,,,,,,,,,,,,,,,,,,,ピク　パツ　ルピン　ムク,パツ　ピク　ルピン　ムク,1
,,,,,,,,,R_3sbpeXZ6cpDH6SI,2022-07-04_12h23.39.624,jpn_C02,2022.1.2,Win32,59.88023952,,,,,,,,,,,,,CartoonStims/burglar_shoot_chef_r.jpg,,,,,,,,,,,,,,,,,,,,,,,,,,,,,,,ピク　パツ　ルピン　ホレト,right,13.128,,,,,,0,16,16,30,1,,,,,,,,,,,,,,,,,,,,,,,,,パツ　ルピン　ホレト,パツ　ルピン　ホレト,0
,,,,,,,,,R_3sbpeXZ6cpDH6SI,2022-07-04_12h23.39.624,jpn_C02,2022.1.2,Win32,59.88023952,,,,,,,,,,,,,CartoonStims/boxer_punch_chef_r_no.jpg,,,,,,,,,,,,,,,,,,,,,,,,,,,,,,,プミ　ピク　ドキ　ホレト,right,15.509,,,,,,0,17,17,23,1,,,,,,,,,,,,,,,,,,,,,,,,,ピク　プミ　ドキ　ホレト,プミ　ピク　ドキ　ホレト,1
,,,,,,,,,R_3sbpeXZ6cpDH6SI,2022-07-04_12h23.39.624,jpn_C02,2022.1.2,Win32,59.88023952,,,,,,,,,,,,,CartoonStims/chef_point_cowboy_r_no.jpg,,,,,,,,,,,,,,,,,,,,,,,,,,,,,,,トマ　ピク　ホレト　ムク,right,30.907,,,,,,0,18,18,8,1,,,,,,,,,,,,,,,,,,,,,,,,,ピク　トマ　ホレト　ムク,トマ　ピク　ホレト　ムク,1
,,,,,,,,,R_3sbpeXZ6cpDH6SI,2022-07-04_12h23.39.624,jpn_C02,2022.1.2,Win32,59.88023952,,,,,,,,,,,,,CartoonStims/chef_shoot_doctor_r_no.jpg,,,,,,,,,,,,,,,,,,,,,,,,,,,,,,,ピク　パツ　ホレト　ピポ,right,23.995,,,,,,0,19,19,14,1,,,,,,,,,,,,,,,,,,,,,,,,,ピク　パツ　ホレト　ピポ,パツ　ピク　ホレト　ピポ,1
,,,,,,,,,R_3sbpeXZ6cpDH6SI,2022-07-04_12h23.39.624,jpn_C02,2022.1.2,Win32,59.88023952,,,,,,,,,,,,,CartoonStims/boxer_kick_cowboy_r.jpg,,,,,,,,,,,,,,,,,,,,,,,,,,,,,,,ピク　パツ　ドキ　ムク,right,25.618,,,,,,0,20,20,26,1,,,,,,,,,,,,,,,,,,,,,,,,,セル　ドキ　ムク,セル　ドキ　ムク,0
,,,,,,,,,R_3sbpeXZ6cpDH6SI,2022-07-04_12h23.39.624,jpn_C02,2022.1.2,Win32,59.88023952,,,,,,,,,,,,,CartoonStims/cowboy_point_doctor_r_no.jpg,,,,,,,,,,,,,,,,,,,,,,,,,,,,,,,トマ　ピポ　ムク　ピポ,right,21.775,,,,,,0,21,21,9,1,,,,,,,,,,,,,,,,,,,,,,,,,ピク　トマ　ムク　ピポ,トマ　ピク　ムク　ピポ,1
,,,,,,,,,R_3sbpeXZ6cpDH6SI,2022-07-04_12h23.39.624,jpn_C02,2022.1.2,Win32,59.88023952,,,,,,,,,,,,,CartoonStims/artist_point_boxer_r.jpg,,,,,,,,,,,,,,,,,,,,,,,,,,,,,,,ピポ　パツ　カガ　ナプ,right,32.426,,,,,,0,22,22,27,1,,,,,,,,,,,,,,,,,,,,,,,,,トマ　シド　ドキ,トマ　シド　ドキ,0
,,,,,,,,,R_3sbpeXZ6cpDH6SI,2022-07-04_12h23.39.624,jpn_C02,2022.1.2,Win32,59.88023952,,,,,,,,,,,,,CartoonStims/chef_shoot_cowboy_r.jpg,,,,,,,,,,,,,,,,,,,,,,,,,,,,,,,パツ　,right,13.641,,,,,,0,23,23,31,1,,,,,,,,,,,,,,,,,,,,,,,,,パツ　ホレト　ムク,パツ　ホレト　ムク,0
,,,,,,,,,R_3sbpeXZ6cpDH6SI,2022-07-04_12h23.39.624,jpn_C02,2022.1.2,Win32,59.88023952,,,,,,,,,,,,,CartoonStims/cowboy_shoot_doctor_r.jpg,,,,,,,,,,,,,,,,,,,,,,,,,,,,,,,,right,0.146,,,,,,0,24,24,32,1,,,,,,,,,,,,,,,,,,,,,,,,,パツ　ムク　ピポ,パツ　ムク　ピポ,0
,,,,,,,,,R_3sbpeXZ6cpDH6SI,2022-07-04_12h23.39.624,jpn_C02,2022.1.2,Win32,59.88023952,,,,,,,,,,,,,CartoonStims/chef_punch_boxer_r_no.jpg,,,,,,,,,,,,,,,,,,,,,,,,,,,,,,,プミ　ピク,right,27.225,,,,,,0,25,25,20,1,,,,,,,,,,,,,,,,,,,,,,,,,ピク　プミ　ホレト　ドキ,プミ　ピク　ホレト　ドキ,1
,,,,,,,,,R_3sbpeXZ6cpDH6SI,2022-07-04_12h23.39.624,jpn_C02,2022.1.2,Win32,59.88023952,,,,,,,,,,,,,CartoonStims/chef_kick_burglar_r_no.jpg,,,,,,,,,,,,,,,,,,,,,,,,,,,,,,,セルピク,right,8.621,,,,,,0,26,26,2,1,,,,,,,,,,,,,,,,,,,,,,,,,ピク　セル　ホレト　ルピン,セル　ピク　ホレト　ルピン,1
,,,,,,,,,R_3sbpeXZ6cpDH6SI,2022-07-04_12h23.39.624,jpn_C02,2022.1.2,Win32,59.88023952,,,,,,,,,,,,,CartoonStims/doctor_punch_burglar_r_no.jpg,,,,,,,,,,,,,,,,,,,,,,,,,,,,,,,プミ　ピク,right,17.005,,,,,,0,27,27,22,1,,,,,,,,,,,,,,,,,,,,,,,,,ピク　プミ　ピポ　ルピン,プミ　ピク　ピポ　ルピン,1
,,,,,,,,,R_3sbpeXZ6cpDH6SI,2022-07-04_12h23.39.624,jpn_C02,2022.1.2,Win32,59.88023952,,,,,,,,,,,,,CartoonStims/cowboy_kick_chef_r_no.jpg,,,,,,,,,,,,,,,,,,,,,,,,,,,,,,,セル　ピク,right,8.445,,,,,,0,28,28,3,1,,,,,,,,,,,,,,,,,,,,,,,,,ピク　セル　ムク　ホレト,セル　ピク　ムク　ホレト,1
,,,,,,,,,R_3sbpeXZ6cpDH6SI,2022-07-04_12h23.39.624,jpn_C02,2022.1.2,Win32,59.88023952,,,,,,,,,,,,,CartoonStims/artist_kick_boxer_r_no.jpg,,,,,,,,,,,,,,,,,,,,,,,,,,,,,,,セル　ピク,right,5.311,,,,,,0,29,29,0,1,,,,,,,,,,,,,,,,,,,,,,,,,ピク　セル　シド　ドキ,セル　ピク　シド　ドキ,1
,,,,,,,,,R_3sbpeXZ6cpDH6SI,2022-07-04_12h23.39.624,jpn_C02,2022.1.2,Win32,59.88023952,,,,,,,,,,,,,CartoonStims/chef_point_burglar_r.jpg,,,,,,,,,,,,,,,,,,,,,,,,,,,,,,,トマ,right,9.773,,,,,,0,30,30,29,1,,,,,,,,,,,,,,,,,,,,,,,,,トマ　ホレト　ルピン,トマ　ホレト　ルピン,0
,,,,,,,,,R_3sbpeXZ6cpDH6SI,2022-07-04_12h23.39.624,jpn_C02,2022.1.2,Win32,59.88023952,,,,,,,,,,,,,CartoonStims/burglar_kick_artist_r_no.jpg,,,,,,,,,,,,,,,,,,,,,,,,,,,,,,,セル　ピク,right,14.732,,,,,,0,31,31,1,1,,,,,,,,,,,,,,,,,,,,,,,,,ピク　セル　ルピン　シド,セル　ピク　ルピン　シド,1
,,,,,,,,,R_3sbpeXZ6cpDH6SI,2022-07-04_12h23.39.624,jpn_C02,2022.1.2,Win32,59.88023952,,,,,,,,,,,,,CartoonStims/burglar_punch_doctor_r_no.jpg,,,,,,,,,,,,,,,,,,,,,,,,,,,,,,,プミ　ピク,right,10.195,,,,,,0,32,32,19,1,,,,,,,,,,,,,,,,,,,,,,,,,ピク　プミ　ルピン　ピポ,プミ　ピク　ルピン　ピポ,1
,,,,,,,,,R_3sbpeXZ6cpDH6SI,2022-07-04_12h23.39.624,jpn_C02,2022.1.2,Win32,59.88023952,,,,,,,,,,,,,CartoonStims/doctor_kick_cowboy_r_no.jpg,,,,,,,,,,,,,,,,,,,,,,,,,,,,,,,セル　ピク,right,15.51,,,,,,0,33,33,4,1,,,,,,,,,,,,,,,,,,,,,,,,,ピク　セル　ピポ　ムク,セル　ピク　ピポ　ムク,1
,,,,,,,,,R_3sbpeXZ6cpDH6SI,2022-07-04_12h23.39.624,jpn_C02,2022.1.2,Win32,59.88023952,,,,,,,,,,,,,CartoonStims/cowboy_shoot_boxer_r_no.jpg,,,,,,,,,,,,,,,,,,,,,,,,,,,,,,,ピクパツ,right,15.804,,,,,,0,34,34,15,1,,,,,,,,,,,,,,,,,,,,,,,,,ピク　パツ　ムク　ドキ,パツ　ピク　ムク　ドキ,1
,,,,,,,,,R_3sbpeXZ6cpDH6SI,2022-07-04_12h23.39.624,jpn_C02,2022.1.2,Win32,59.88023952,,,,,,,,,,,,,CartoonStims/artist_point_burglar_r_no.jpg,,,,,,,,,,,,,,,,,,,,,,,,,,,,,,,トマピク,right,10.762,,,,,,0,35,35,6,1,,,,,,,,,,,,,,,,,,,,,,,,,ピク　トマ　シド　ルピン,トマ　ピク　シド　ルピン,1
,,,,,,,,,R_3sbpeXZ6cpDH6SI,2022-07-04_12h23.39.624,jpn_C02,2022.1.2,Win32,59.88023952,,,,,,,,,,,,,,,,,,,,,,,,,,,,,,,,,,,,,,,,,,,,,,,,,,,,,,,,,,,space,1.611,0,2,2,2,1,NegVCondition.xlsx,"ここではこの言語における否定の文を学習していただきます。引き続き注意して、 聞こえた音を復唱してください。

スペースキーを押してください。",1,NegVFCT.xlsx,ここからクイズが始まります。 スクリーンに表示されるテキストに合うイメージを選んでください。,NegTest.xlsx,1,最後にここまで学んだことをアウトプットしていただきます。 テキストボックスにあるイメージを描写するテキストを入力してください。 このタスクでは、 答え合わせは行いません。,0,これですべての実験が終わりました。 お疲れさまです。 この後はアンケートに答えていただきます。,,,,,,,,