key_resp_instr_a.keys,key_resp_instr_a.rt,key_resp_instr_b.keys,key_resp_instr_b.rt,dummy.thisRepN,dummy.thisTrialN,dummy.thisN,dummy.thisIndex,dummy.ran,participant,date,expName,psychopyVersion,OS,frameRate,key_resp_instr1.keys,key_resp_instr1.rt,key_resp.keys,key_resp.rt,exp_loop.thisRepN,exp_loop.thisTrialN,exp_loop.thisN,exp_loop.thisIndex,exp_loop.ran,Word,English,Flip,Path,Audio,key_resp_instr2.keys,key_resp_instr2.rt,key_resp_fct.keys,key_resp_fct.corr,key_resp_fct.rt,trials.thisRepN,trials.thisTrialN,trials.thisN,trials.thisIndex,trials.ran,fct_loop.thisRepN,fct_loop.thisTrialN,fct_loop.thisN,fct_loop.thisIndex,fct_loop.ran,left_img,word,right_img,correctans,correct_img,audio,incorrect_feedback,trials_2.thisRepN,trials_2.thisTrialN,trials_2.thisN,trials_2.thisIndex,trials_2.ran,key_resp_instr3.keys,key_resp_instr3.rt,textbox.text,key_resp_2.keys,key_resp_2.rt,fb_yn.thisRepN,fb_yn.thisTrialN,fb_yn.thisN,fb_yn.thisIndex,fb_yn.ran,gather_loop.thisRepN,gather_loop.thisTrialN,gather_loop.thisN,gather_loop.thisIndex,gather_loop.ran,Text,Wordbank,key_resp_instr4.keys,key_resp_instr4.rt,master_loop.thisRepN,master_loop.thisTrialN,master_loop.thisN,master_loop.thisIndex,master_loop.ran,exposure_file,instr_1,exp_reps,fct_file,instr_2,gather_file,gather_reps,instr_3,fReps,instr_4,trials_3.thisRepN,trials_3.thisTrialN,trials_3.thisN,trials_3.thisIndex,trials_3.ran,NegVSentence,VNegSentence,NegTF
space,2.9892,space,3.3149,0,0,0,0,1,R_3W1yaIlpiSWivzX,2022-06-27_17h22.48.389,jpn_C01,2022.1.2,MacIntel,60.0024001,,,,,,,,,,,,,,,,,,,,,,,,,,,,,,,,,,,,,,,,,,,,,,,,,,,,,,,,,,,,,,,,,,,,,,,,,,,,,,,,,,,
,,,,,,,,,R_3W1yaIlpiSWivzX,2022-06-27_17h22.48.389,jpn_C01,2022.1.2,MacIntel,60.0024001,space,9.6045,space,2.9026,0,0,0,4,1,ピポ,doctor,,CartoonStims/doctor_r.jpg,audio/pipo.mp3,,,,,,,,,,,,,,,,,,,,,,,,,,,,,,,,,,,,,,,,,,,,,,,,,,,,,,,,,,,,,,,,,,,,,
,,,,,,,,,R_3W1yaIlpiSWivzX,2022-06-27_17h22.48.389,jpn_C01,2022.1.2,MacIntel,60.0024001,,,space,2.4569,0,1,1,0,1,シド,artist,,CartoonStims/artist_r.jpg,audio/sido.mp3,,,,,,,,,,,,,,,,,,,,,,,,,,,,,,,,,,,,,,,,,,,,,,,,,,,,,,,,,,,,,,,,,,,,,
,,,,,,,,,R_3W1yaIlpiSWivzX,2022-06-27_17h22.48.389,jpn_C01,2022.1.2,MacIntel,60.0024001,,,space,1.7505,0,2,2,3,1,ムク,cowboy,,CartoonStims/cowboy_r.jpg,audio/muku.mp3,,,,,,,,,,,,,,,,,,,,,,,,,,,,,,,,,,,,,,,,,,,,,,,,,,,,,,,,,,,,,,,,,,,,,
,,,,,,,,,R_3W1yaIlpiSWivzX,2022-06-27_17h22.48.389,jpn_C01,2022.1.2,MacIntel,60.0024001,,,space,2.8523,0,3,3,5,1,ドキ,boxer,,CartoonStims/boxer_r.jpg,audio/doki.mp3,,,,,,,,,,,,,,,,,,,,,,,,,,,,,,,,,,,,,,,,,,,,,,,,,,,,,,,,,,,,,,,,,,,,,
,,,,,,,,,R_3W1yaIlpiSWivzX,2022-06-27_17h22.48.389,jpn_C01,2022.1.2,MacIntel,60.0024001,,,space,1.9661,0,4,4,1,1,ルピン,burglar,,CartoonStims/burglar_r.jpg,audio/lupin.mp3,,,,,,,,,,,,,,,,,,,,,,,,,,,,,,,,,,,,,,,,,,,,,,,,,,,,,,,,,,,,,,,,,,,,,
,,,,,,,,,R_3W1yaIlpiSWivzX,2022-06-27_17h22.48.389,jpn_C01,2022.1.2,MacIntel,60.0024001,,,space,1.6885,0,5,5,2,1,ホレト,chef,,CartoonStims/chef_r.jpg,audio/horeto.mp3,,,,,,,,,,,,,,,,,,,,,,,,,,,,,,,,,,,,,,,,,,,,,,,,,,,,,,,,,,,,,,,,,,,,,
,,,,,,,,,R_3W1yaIlpiSWivzX,2022-06-27_17h22.48.389,jpn_C01,2022.1.2,MacIntel,60.0024001,,,space,1.9373,1,0,6,1,1,ルピン,burglar,,CartoonStims/burglar_r.jpg,audio/lupin.mp3,,,,,,,,,,,,,,,,,,,,,,,,,,,,,,,,,,,,,,,,,,,,,,,,,,,,,,,,,,,,,,,,,,,,,
,,,,,,,,,R_3W1yaIlpiSWivzX,2022-06-27_17h22.48.389,jpn_C01,2022.1.2,MacIntel,60.0024001,,,space,0.5859,1,1,7,4,1,ピポ,doctor,,CartoonStims/doctor_r.jpg,audio/pipo.mp3,,,,,,,,,,,,,,,,,,,,,,,,,,,,,,,,,,,,,,,,,,,,,,,,,,,,,,,,,,,,,,,,,,,,,
,,,,,,,,,R_3W1yaIlpiSWivzX,2022-06-27_17h22.48.389,jpn_C01,2022.1.2,MacIntel,60.0024001,,,space,0.9568,1,2,8,5,1,ドキ,boxer,,CartoonStims/boxer_r.jpg,audio/doki.mp3,,,,,,,,,,,,,,,,,,,,,,,,,,,,,,,,,,,,,,,,,,,,,,,,,,,,,,,,,,,,,,,,,,,,,
,,,,,,,,,R_3W1yaIlpiSWivzX,2022-06-27_17h22.48.389,jpn_C01,2022.1.2,MacIntel,60.0024001,,,space,0.5855,1,3,9,3,1,ムク,cowboy,,CartoonStims/cowboy_r.jpg,audio/muku.mp3,,,,,,,,,,,,,,,,,,,,,,,,,,,,,,,,,,,,,,,,,,,,,,,,,,,,,,,,,,,,,,,,,,,,,
,,,,,,,,,R_3W1yaIlpiSWivzX,2022-06-27_17h22.48.389,jpn_C01,2022.1.2,MacIntel,60.0024001,,,space,0.7893,1,4,10,2,1,ホレト,chef,,CartoonStims/chef_r.jpg,audio/horeto.mp3,,,,,,,,,,,,,,,,,,,,,,,,,,,,,,,,,,,,,,,,,,,,,,,,,,,,,,,,,,,,,,,,,,,,,
,,,,,,,,,R_3W1yaIlpiSWivzX,2022-06-27_17h22.48.389,jpn_C01,2022.1.2,MacIntel,60.0024001,,,space,0.5939,1,5,11,0,1,シド,artist,,CartoonStims/artist_r.jpg,audio/sido.mp3,,,,,,,,,,,,,,,,,,,,,,,,,,,,,,,,,,,,,,,,,,,,,,,,,,,,,,,,,,,,,,,,,,,,,
,,,,,,,,,R_3W1yaIlpiSWivzX,2022-06-27_17h22.48.389,jpn_C01,2022.1.2,MacIntel,60.0024001,,,space,0.4755,2,0,12,5,1,ドキ,boxer,,CartoonStims/boxer_r.jpg,audio/doki.mp3,,,,,,,,,,,,,,,,,,,,,,,,,,,,,,,,,,,,,,,,,,,,,,,,,,,,,,,,,,,,,,,,,,,,,
,,,,,,,,,R_3W1yaIlpiSWivzX,2022-06-27_17h22.48.389,jpn_C01,2022.1.2,MacIntel,60.0024001,,,space,1.4932,2,1,13,1,1,ルピン,burglar,,CartoonStims/burglar_r.jpg,audio/lupin.mp3,,,,,,,,,,,,,,,,,,,,,,,,,,,,,,,,,,,,,,,,,,,,,,,,,,,,,,,,,,,,,,,,,,,,,
,,,,,,,,,R_3W1yaIlpiSWivzX,2022-06-27_17h22.48.389,jpn_C01,2022.1.2,MacIntel,60.0024001,,,space,1.204,2,2,14,0,1,シド,artist,,CartoonStims/artist_r.jpg,audio/sido.mp3,,,,,,,,,,,,,,,,,,,,,,,,,,,,,,,,,,,,,,,,,,,,,,,,,,,,,,,,,,,,,,,,,,,,,
,,,,,,,,,R_3W1yaIlpiSWivzX,2022-06-27_17h22.48.389,jpn_C01,2022.1.2,MacIntel,60.0024001,,,space,1.2448,2,3,15,3,1,ムク,cowboy,,CartoonStims/cowboy_r.jpg,audio/muku.mp3,,,,,,,,,,,,,,,,,,,,,,,,,,,,,,,,,,,,,,,,,,,,,,,,,,,,,,,,,,,,,,,,,,,,,
,,,,,,,,,R_3W1yaIlpiSWivzX,2022-06-27_17h22.48.389,jpn_C01,2022.1.2,MacIntel,60.0024001,,,space,0.4749,2,4,16,4,1,ピポ,doctor,,CartoonStims/doctor_r.jpg,audio/pipo.mp3,,,,,,,,,,,,,,,,,,,,,,,,,,,,,,,,,,,,,,,,,,,,,,,,,,,,,,,,,,,,,,,,,,,,,
,,,,,,,,,R_3W1yaIlpiSWivzX,2022-06-27_17h22.48.389,jpn_C01,2022.1.2,MacIntel,60.0024001,,,space,0.4703,2,5,17,2,1,ホレト,chef,,CartoonStims/chef_r.jpg,audio/horeto.mp3,,,,,,,,,,,,,,,,,,,,,,,,,,,,,,,,,,,,,,,,,,,,,,,,,,,,,,,,,,,,,,,,,,,,,
,,,,,,,,,R_3W1yaIlpiSWivzX,2022-06-27_17h22.48.389,jpn_C01,2022.1.2,MacIntel,60.0024001,,,,,,,,,,,,,,,space,3.421,left,1,2.0433,0,0,0,0,1,,,,,,,,,,,,,,,,,,,,,,,,,,,,,,,,,,,,,,,,,,,,,,,,,,,,,,,,,,,
,,,,,,,,,R_3W1yaIlpiSWivzX,2022-06-27_17h22.48.389,jpn_C01,2022.1.2,MacIntel,60.0024001,,,,,,,,,,,,,,,,,,,,,,,,,0,0,0,2,1,CartoonStims/chef_r.jpg,ホレト,CartoonStims/cowboy_r.jpg,left,CartoonStims/chef_r.jpg,audio/horeto.mp3,残念！ こちらが正しい画像です。,,,,,,,,,,,,,,,,,,,,,,,,,,,,,,,,,,,,,,,,,,,,,,,
,,,,,,,,,R_3W1yaIlpiSWivzX,2022-06-27_17h22.48.389,jpn_C01,2022.1.2,MacIntel,60.0024001,,,,,,,,,,,,,,,,,left,1,1.6472,0,0,0,0,1,,,,,,,,,,,,,,,,,,,,,,,,,,,,,,,,,,,,,,,,,,,,,,,,,,,,,,,,,,,
,,,,,,,,,R_3W1yaIlpiSWivzX,2022-06-27_17h22.48.389,jpn_C01,2022.1.2,MacIntel,60.0024001,,,,,,,,,,,,,,,,,,,,,,,,,0,1,1,0,1,CartoonStims/artist_r.jpg,シド,CartoonStims/burglar_r.jpg,left,CartoonStims/artist_r.jpg,audio/sido.mp3,残念！ こちらが正しい画像です。,,,,,,,,,,,,,,,,,,,,,,,,,,,,,,,,,,,,,,,,,,,,,,,
,,,,,,,,,R_3W1yaIlpiSWivzX,2022-06-27_17h22.48.389,jpn_C01,2022.1.2,MacIntel,60.0024001,,,,,,,,,,,,,,,,,right,1,0.9714,,,,,,,,,,,,,,,,,,0,0,0,0,1,,,,,,,,,,,,,,,,,,,,,,,,,,,,,,,,,,,,,,,,,,
,,,,,,,,,R_3W1yaIlpiSWivzX,2022-06-27_17h22.48.389,jpn_C01,2022.1.2,MacIntel,60.0024001,,,,,,,,,,,,,,,,,,,,,,,,,0,2,2,9,1,CartoonStims/boxer_r.jpg,ムク,CartoonStims/cowboy_r.jpg,right,CartoonStims/cowboy_r.jpg,audio/muku.mp3,残念！ こちらが正しい画像です。,,,,,,,,,,,,,,,,,,,,,,,,,,,,,,,,,,,,,,,,,,,,,,,
,,,,,,,,,R_3W1yaIlpiSWivzX,2022-06-27_17h22.48.389,jpn_C01,2022.1.2,MacIntel,60.0024001,,,,,,,,,,,,,,,,,right,1,0.9499,,,,,,,,,,,,,,,,,,0,0,0,0,1,,,,,,,,,,,,,,,,,,,,,,,,,,,,,,,,,,,,,,,,,,
,,,,,,,,,R_3W1yaIlpiSWivzX,2022-06-27_17h22.48.389,jpn_C01,2022.1.2,MacIntel,60.0024001,,,,,,,,,,,,,,,,,,,,,,,,,0,3,3,10,1,CartoonStims/artist_r.jpg,ピポ,CartoonStims/doctor_r.jpg,right,CartoonStims/doctor_r.jpg,audio/pipo.mp3,残念！ こちらが正しい画像です。,,,,,,,,,,,,,,,,,,,,,,,,,,,,,,,,,,,,,,,,,,,,,,,
,,,,,,,,,R_3W1yaIlpiSWivzX,2022-06-27_17h22.48.389,jpn_C01,2022.1.2,MacIntel,60.0024001,,,,,,,,,,,,,,,,,left,1,0.4211,0,0,0,0,1,,,,,,,,,,,,,,,,,,,,,,,,,,,,,,,,,,,,,,,,,,,,,,,,,,,,,,,,,,,
,,,,,,,,,R_3W1yaIlpiSWivzX,2022-06-27_17h22.48.389,jpn_C01,2022.1.2,MacIntel,60.0024001,,,,,,,,,,,,,,,,,,,,,,,,,0,4,4,1,1,CartoonStims/burglar_r.jpg,ルピン,CartoonStims/chef_r.jpg,left,CartoonStims/burglar_r.jpg,audio/lupin.mp3,残念！ こちらが正しい画像です。,,,,,,,,,,,,,,,,,,,,,,,,,,,,,,,,,,,,,,,,,,,,,,,
,,,,,,,,,R_3W1yaIlpiSWivzX,2022-06-27_17h22.48.389,jpn_C01,2022.1.2,MacIntel,60.0024001,,,,,,,,,,,,,,,,,right,1,1.1176,,,,,,,,,,,,,,,,,,0,0,0,0,1,,,,,,,,,,,,,,,,,,,,,,,,,,,,,,,,,,,,,,,,,,
,,,,,,,,,R_3W1yaIlpiSWivzX,2022-06-27_17h22.48.389,jpn_C01,2022.1.2,MacIntel,60.0024001,,,,,,,,,,,,,,,,,,,,,,,,,0,5,5,8,1,CartoonStims/doctor_r.jpg,ホレト,CartoonStims/chef_r.jpg,right,CartoonStims/chef_r.jpg,audio/horeto.mp3,残念！ こちらが正しい画像です。,,,,,,,,,,,,,,,,,,,,,,,,,,,,,,,,,,,,,,,,,,,,,,,
,,,,,,,,,R_3W1yaIlpiSWivzX,2022-06-27_17h22.48.389,jpn_C01,2022.1.2,MacIntel,60.0024001,,,,,,,,,,,,,,,,,right,1,0.8858,,,,,,,,,,,,,,,,,,0,0,0,0,1,,,,,,,,,,,,,,,,,,,,,,,,,,,,,,,,,,,,,,,,,,
,,,,,,,,,R_3W1yaIlpiSWivzX,2022-06-27_17h22.48.389,jpn_C01,2022.1.2,MacIntel,60.0024001,,,,,,,,,,,,,,,,,,,,,,,,,0,6,6,6,1,CartoonStims/chef_r.jpg,シド,CartoonStims/artist_r.jpg,right,CartoonStims/artist_r.jpg,audio/sido.mp3,残念！ こちらが正しい画像です。,,,,,,,,,,,,,,,,,,,,,,,,,,,,,,,,,,,,,,,,,,,,,,,
,,,,,,,,,R_3W1yaIlpiSWivzX,2022-06-27_17h22.48.389,jpn_C01,2022.1.2,MacIntel,60.0024001,,,,,,,,,,,,,,,,,left,1,1.1616,0,0,0,0,1,,,,,,,,,,,,,,,,,,,,,,,,,,,,,,,,,,,,,,,,,,,,,,,,,,,,,,,,,,,
,,,,,,,,,R_3W1yaIlpiSWivzX,2022-06-27_17h22.48.389,jpn_C01,2022.1.2,MacIntel,60.0024001,,,,,,,,,,,,,,,,,,,,,,,,,0,7,7,3,1,CartoonStims/cowboy_r.jpg,ムク,CartoonStims/doctor_r.jpg,left,CartoonStims/cowboy_r.jpg,audio/muku.mp3,残念！ こちらが正しい画像です。,,,,,,,,,,,,,,,,,,,,,,,,,,,,,,,,,,,,,,,,,,,,,,,
,,,,,,,,,R_3W1yaIlpiSWivzX,2022-06-27_17h22.48.389,jpn_C01,2022.1.2,MacIntel,60.0024001,,,,,,,,,,,,,,,,,right,1,0.7119,,,,,,,,,,,,,,,,,,0,0,0,0,1,,,,,,,,,,,,,,,,,,,,,,,,,,,,,,,,,,,,,,,,,,
,,,,,,,,,R_3W1yaIlpiSWivzX,2022-06-27_17h22.48.389,jpn_C01,2022.1.2,MacIntel,60.0024001,,,,,,,,,,,,,,,,,,,,,,,,,0,8,8,11,1,CartoonStims/burglar_r.jpg,ドキ,CartoonStims/boxer_r.jpg,right,CartoonStims/boxer_r.jpg,audio/doki.mp3,残念！ こちらが正しい画像です。,,,,,,,,,,,,,,,,,,,,,,,,,,,,,,,,,,,,,,,,,,,,,,,
,,,,,,,,,R_3W1yaIlpiSWivzX,2022-06-27_17h22.48.389,jpn_C01,2022.1.2,MacIntel,60.0024001,,,,,,,,,,,,,,,,,left,1,0.5571,0,0,0,0,1,,,,,,,,,,,,,,,,,,,,,,,,,,,,,,,,,,,,,,,,,,,,,,,,,,,,,,,,,,,
,,,,,,,,,R_3W1yaIlpiSWivzX,2022-06-27_17h22.48.389,jpn_C01,2022.1.2,MacIntel,60.0024001,,,,,,,,,,,,,,,,,,,,,,,,,0,9,9,4,1,CartoonStims/doctor_r.jpg,ピポ,CartoonStims/boxer_r.jpg,left,CartoonStims/doctor_r.jpg,audio/pipo.mp3,残念！ こちらが正しい画像です。,,,,,,,,,,,,,,,,,,,,,,,,,,,,,,,,,,,,,,,,,,,,,,,
,,,,,,,,,R_3W1yaIlpiSWivzX,2022-06-27_17h22.48.389,jpn_C01,2022.1.2,MacIntel,60.0024001,,,,,,,,,,,,,,,,,left,1,1.2742,0,0,0,0,1,,,,,,,,,,,,,,,,,,,,,,,,,,,,,,,,,,,,,,,,,,,,,,,,,,,,,,,,,,,
,,,,,,,,,R_3W1yaIlpiSWivzX,2022-06-27_17h22.48.389,jpn_C01,2022.1.2,MacIntel,60.0024001,,,,,,,,,,,,,,,,,,,,,,,,,0,10,10,5,1,CartoonStims/boxer_r.jpg,ドキ,CartoonStims/artist_r.jpg,left,CartoonStims/boxer_r.jpg,audio/doki.mp3,残念！ こちらが正しい画像です。,,,,,,,,,,,,,,,,,,,,,,,,,,,,,,,,,,,,,,,,,,,,,,,
,,,,,,,,,R_3W1yaIlpiSWivzX,2022-06-27_17h22.48.389,jpn_C01,2022.1.2,MacIntel,60.0024001,,,,,,,,,,,,,,,,,right,1,0.5959,,,,,,,,,,,,,,,,,,0,0,0,0,1,,,,,,,,,,,,,,,,,,,,,,,,,,,,,,,,,,,,,,,,,,
,,,,,,,,,R_3W1yaIlpiSWivzX,2022-06-27_17h22.48.389,jpn_C01,2022.1.2,MacIntel,60.0024001,,,,,,,,,,,,,,,,,,,,,,,,,0,11,11,7,1,CartoonStims/cowboy_r.jpg,ルピン,CartoonStims/burglar_r.jpg,right,CartoonStims/burglar_r.jpg,audio/lupin.mp3,残念！ こちらが正しい画像です。,,,,,,,,,,,,,,,,,,,,,,,,,,,,,,,,,,,,,,,,,,,,,,,
,,,,,,,,,R_3W1yaIlpiSWivzX,2022-06-27_17h22.48.389,jpn_C01,2022.1.2,MacIntel,60.0024001,,,,,,,,,,,,,,,,,,,,,,,,,,,,,,,,,,,,,,,,,,space,1.7057,ピポ,right,9.422,0,0,0,0,1,,,,,,,,,,,,,,,,,,,,,,,,,,,,,,,,
,,,,,,,,,R_3W1yaIlpiSWivzX,2022-06-27_17h22.48.389,jpn_C01,2022.1.2,MacIntel,60.0024001,,,,,,,,,,,,,CartoonStims/doctor_r.jpg,audio/pipo.mp3,,,,,,,,,,,,,,,,,,,,,,,,,,,,,,,,,,,,,,0,0,0,4,1,ピポ,,,,,,,,,,,,,,,,,,,,,,,,,,
,,,,,,,,,R_3W1yaIlpiSWivzX,2022-06-27_17h22.48.389,jpn_C01,2022.1.2,MacIntel,60.0024001,,,,,,,,,,,,,,,,,,,,,,,,,,,,,,,,,,,,,,,,,,,,ドキン,right,30.9483,0,0,0,0,1,,,,,,,,,,,,,,,,,,,,,,,,,,,,,,,,
,,,,,,,,,R_3W1yaIlpiSWivzX,2022-06-27_17h22.48.389,jpn_C01,2022.1.2,MacIntel,60.0024001,,,,,,,,,,,,,CartoonStims/cowboy_r.jpg,audio/muku.mp3,,,,,,,,,,,,,,,,,,,,,,,,,,,,,,,,,,,,,,0,1,1,3,1,ムク,,,,,,,,,,,,,,,,,,,,,,,,,,
,,,,,,,,,R_3W1yaIlpiSWivzX,2022-06-27_17h22.48.389,jpn_C01,2022.1.2,MacIntel,60.0024001,,,,,,,,,,,,,,,,,,,,,,,,,,,,,,,,,,,,,,,,,,,,ドキン,right,7.8076,0,0,0,0,1,,,,,,,,,,,,,,,,,,,,,,,,,,,,,,,,
,,,,,,,,,R_3W1yaIlpiSWivzX,2022-06-27_17h22.48.389,jpn_C01,2022.1.2,MacIntel,60.0024001,,,,,,,,,,,,,CartoonStims/boxer_r.jpg,audio/doki.mp3,,,,,,,,,,,,,,,,,,,,,,,,,,,,,,,,,,,,,,0,2,2,5,1,ドキ,,,,,,,,,,,,,,,,,,,,,,,,,,
,,,,,,,,,R_3W1yaIlpiSWivzX,2022-06-27_17h22.48.389,jpn_C01,2022.1.2,MacIntel,60.0024001,,,,,,,,,,,,,,,,,,,,,,,,,,,,,,,,,,,,,,,,,,,,ホルク,right,6.201,0,0,0,0,1,,,,,,,,,,,,,,,,,,,,,,,,,,,,,,,,
,,,,,,,,,R_3W1yaIlpiSWivzX,2022-06-27_17h22.48.389,jpn_C01,2022.1.2,MacIntel,60.0024001,,,,,,,,,,,,,CartoonStims/chef_r.jpg,audio/horeto.mp3,,,,,,,,,,,,,,,,,,,,,,,,,,,,,,,,,,,,,,0,3,3,2,1,ホレト,,,,,,,,,,,,,,,,,,,,,,,,,,
,,,,,,,,,R_3W1yaIlpiSWivzX,2022-06-27_17h22.48.389,jpn_C01,2022.1.2,MacIntel,60.0024001,,,,,,,,,,,,,,,,,,,,,,,,,,,,,,,,,,,,,,,,,,,,シド,right,10.5236,0,0,0,0,1,,,,,,,,,,,,,,,,,,,,,,,,,,,,,,,,
,,,,,,,,,R_3W1yaIlpiSWivzX,2022-06-27_17h22.48.389,jpn_C01,2022.1.2,MacIntel,60.0024001,,,,,,,,,,,,,CartoonStims/artist_r.jpg,audio/sido.mp3,,,,,,,,,,,,,,,,,,,,,,,,,,,,,,,,,,,,,,0,4,4,0,1,シド,,,,,,,,,,,,,,,,,,,,,,,,,,
,,,,,,,,,R_3W1yaIlpiSWivzX,2022-06-27_17h22.48.389,jpn_C01,2022.1.2,MacIntel,60.0024001,,,,,,,,,,,,,,,,,,,,,,,,,,,,,,,,,,,,,,,,,,,,ルピン,right,7.235,0,0,0,0,1,,,,,,,,,,,,,,,,,,,,,,,,,,,,,,,,
,,,,,,,,,R_3W1yaIlpiSWivzX,2022-06-27_17h22.48.389,jpn_C01,2022.1.2,MacIntel,60.0024001,,,,,,,,,,,,,CartoonStims/burglar_r.jpg,audio/lupin.mp3,,,,,,,,,,,,,,,,,,,,,,,,,,,,,,,,,,,,,,0,5,5,1,1,ルピン,,,,,,,,,,,,,,,,,,,,,,,,,,
,,,,,,,,,R_3W1yaIlpiSWivzX,2022-06-27_17h22.48.389,jpn_C01,2022.1.2,MacIntel,60.0024001,,,,,,,,,,,,,,,,,,,,,,,,,,,,,,,,,,,,,,,,,,,,ピポ,right,3.1238,0,0,0,0,1,,,,,,,,,,,,,,,,,,,,,,,,,,,,,,,,
,,,,,,,,,R_3W1yaIlpiSWivzX,2022-06-27_17h22.48.389,jpn_C01,2022.1.2,MacIntel,60.0024001,,,,,,,,,,,,,CartoonStims/doctor_r.jpg,audio/pipo.mp3,,,,,,,,,,,,,,,,,,,,,,,,,,,,,,,,,,,,,,1,0,6,4,1,ピポ,,,,,,,,,,,,,,,,,,,,,,,,,,
,,,,,,,,,R_3W1yaIlpiSWivzX,2022-06-27_17h22.48.389,jpn_C01,2022.1.2,MacIntel,60.0024001,,,,,,,,,,,,,,,,,,,,,,,,,,,,,,,,,,,,,,,,,,,,ドキ,right,3.9367,0,0,0,0,1,,,,,,,,,,,,,,,,,,,,,,,,,,,,,,,,
,,,,,,,,,R_3W1yaIlpiSWivzX,2022-06-27_17h22.48.389,jpn_C01,2022.1.2,MacIntel,60.0024001,,,,,,,,,,,,,CartoonStims/boxer_r.jpg,audio/doki.mp3,,,,,,,,,,,,,,,,,,,,,,,,,,,,,,,,,,,,,,1,1,7,5,1,ドキ,,,,,,,,,,,,,,,,,,,,,,,,,,
,,,,,,,,,R_3W1yaIlpiSWivzX,2022-06-27_17h22.48.389,jpn_C01,2022.1.2,MacIntel,60.0024001,,,,,,,,,,,,,,,,,,,,,,,,,,,,,,,,,,,,,,,,,,,,シド,right,12.8482,0,0,0,0,1,,,,,,,,,,,,,,,,,,,,,,,,,,,,,,,,
,,,,,,,,,R_3W1yaIlpiSWivzX,2022-06-27_17h22.48.389,jpn_C01,2022.1.2,MacIntel,60.0024001,,,,,,,,,,,,,CartoonStims/artist_r.jpg,audio/sido.mp3,,,,,,,,,,,,,,,,,,,,,,,,,,,,,,,,,,,,,,1,2,8,0,1,シド,,,,,,,,,,,,,,,,,,,,,,,,,,
,,,,,,,,,R_3W1yaIlpiSWivzX,2022-06-27_17h22.48.389,jpn_C01,2022.1.2,MacIntel,60.0024001,,,,,,,,,,,,,,,,,,,,,,,,,,,,,,,,,,,,,,,,,,,,ムク,right,8.0355,0,0,0,0,1,,,,,,,,,,,,,,,,,,,,,,,,,,,,,,,,
,,,,,,,,,R_3W1yaIlpiSWivzX,2022-06-27_17h22.48.389,jpn_C01,2022.1.2,MacIntel,60.0024001,,,,,,,,,,,,,CartoonStims/chef_r.jpg,audio/horeto.mp3,,,,,,,,,,,,,,,,,,,,,,,,,,,,,,,,,,,,,,1,3,9,2,1,ホレト,,,,,,,,,,,,,,,,,,,,,,,,,,
,,,,,,,,,R_3W1yaIlpiSWivzX,2022-06-27_17h22.48.389,jpn_C01,2022.1.2,MacIntel,60.0024001,,,,,,,,,,,,,,,,,,,,,,,,,,,,,,,,,,,,,,,,,,,,ルピン,right,3.7356,0,0,0,0,1,,,,,,,,,,,,,,,,,,,,,,,,,,,,,,,,
,,,,,,,,,R_3W1yaIlpiSWivzX,2022-06-27_17h22.48.389,jpn_C01,2022.1.2,MacIntel,60.0024001,,,,,,,,,,,,,CartoonStims/burglar_r.jpg,audio/lupin.mp3,,,,,,,,,,,,,,,,,,,,,,,,,,,,,,,,,,,,,,1,4,10,1,1,ルピン,,,,,,,,,,,,,,,,,,,,,,,,,,
,,,,,,,,,R_3W1yaIlpiSWivzX,2022-06-27_17h22.48.389,jpn_C01,2022.1.2,MacIntel,60.0024001,,,,,,,,,,,,,,,,,,,,,,,,,,,,,,,,,,,,,,,,,,,,ムク,right,6.2517,0,0,0,0,1,,,,,,,,,,,,,,,,,,,,,,,,,,,,,,,,
,,,,,,,,,R_3W1yaIlpiSWivzX,2022-06-27_17h22.48.389,jpn_C01,2022.1.2,MacIntel,60.0024001,,,,,,,,,,,,,CartoonStims/cowboy_r.jpg,audio/muku.mp3,,,,,,,,,,,,,,,,,,,,,,,,,,,,,,,,,,,,,,1,5,11,3,1,ムク,,,,,,,,,,,,,,,,,,,,,,,,,,
,,,,,,,,,R_3W1yaIlpiSWivzX,2022-06-27_17h22.48.389,jpn_C01,2022.1.2,MacIntel,60.0024001,,,,,,,,,,,,,,,,,,,,,,,,,,,,,,,,,,,,,,,,,,,,,,,,,,,,,,,,,,,space,0.9372,0,0,0,0,1,NounExposure.xlsx,"最初のトライアルでは、 画像が表示され、 その画像の下に単語が出てきます。 またこの単語の音も聞くことができます。 この音を大きな声で復唱してください。 そしてこの画像がどのような単語を示しているのか, 考えてみてください。 その後、 続きのボタンを押すと次の単語の学習が始まります。

スペースキーを押して、学習を始めましょう。",3,NounFCT.xlsx,ここから語彙のクイズが始まります。スクリーンに表示される単語に合う画像をキーボードの右と左の矢印キーを使って選択してください。,NounTest.xlsx,2,次に、これまで学習してきたことをアウトプットしていただきます。 表示される画像を描写していると思う単語を、テキストボックスにタイプしてください。,1,"ここまでが最初のトライアルです。ここで休憩をとっても構いません。

休憩が済みましたら、スペースキーを押して続きを始めましょう。",,,,,,,,
,,,,,,,,,R_3W1yaIlpiSWivzX,2022-06-27_17h22.48.389,jpn_C01,2022.1.2,MacIntel,60.0024001,space,4.6043,space,7.5031,0,0,0,47,1,プミ　ドキ　ピポ,,,CartoonStims/boxer_punch_doctor_r.jpg,audio/pumidokipipo.mp3,,,,,,,,,,,,,,,,,,,,,,,,,,,,,,,,,,,,,,,,,,,,,,,,,,,,,,,,,,,,,,,,,,,,,
,,,,,,,,,R_3W1yaIlpiSWivzX,2022-06-27_17h22.48.389,jpn_C01,2022.1.2,MacIntel,60.0024001,,,space,5.7499,0,1,1,10,1,セル　ドキ　シド,,,CartoonStims/boxer_kick_artist_r.jpg,audio/serudokisido.mp3,,,,,,,,,,,,,,,,,,,,,,,,,,,,,,,,,,,,,,,,,,,,,,,,,,,,,,,,,,,,,,,,,,,,,
,,,,,,,,,R_3W1yaIlpiSWivzX,2022-06-27_17h22.48.389,jpn_C01,2022.1.2,MacIntel,60.0024001,,,space,2.6376,0,2,2,31,1,パツ　ムク　ルピン,,,CartoonStims/cowboy_shoot_burglar_r.jpg,audio/patsumukulupin.mp3,,,,,,,,,,,,,,,,,,,,,,,,,,,,,,,,,,,,,,,,,,,,,,,,,,,,,,,,,,,,,,,,,,,,,
,,,,,,,,,R_3W1yaIlpiSWivzX,2022-06-27_17h22.48.389,jpn_C01,2022.1.2,MacIntel,60.0024001,,,space,2.3003,0,3,3,27,1,パツ　ルピン　ドキ,,,CartoonStims/burglar_shoot_boxer_r.jpg,audio/patsulupindoki.mp3,,,,,,,,,,,,,,,,,,,,,,,,,,,,,,,,,,,,,,,,,,,,,,,,,,,,,,,,,,,,,,,,,,,,,
,,,,,,,,,R_3W1yaIlpiSWivzX,2022-06-27_17h22.48.389,jpn_C01,2022.1.2,MacIntel,60.0024001,,,space,3.0067,0,4,4,32,1,パツ　ピポ　ルピン,,,CartoonStims/doctor_shoot_burglar_r.jpg,audio/patsupipolupin.mp3,,,,,,,,,,,,,,,,,,,,,,,,,,,,,,,,,,,,,,,,,,,,,,,,,,,,,,,,,,,,,,,,,,,,,
,,,,,,,,,R_3W1yaIlpiSWivzX,2022-06-27_17h22.48.389,jpn_C01,2022.1.2,MacIntel,60.0024001,,,space,12.89,0,5,5,22,1,トマ　ドキ　ルピン,,,CartoonStims/boxer_point_burglar_r.jpg,audio/tomadokilupin.mp3,,,,,,,,,,,,,,,,,,,,,,,,,,,,,,,,,,,,,,,,,,,,,,,,,,,,,,,,,,,,,,,,,,,,,
,,,,,,,,,R_3W1yaIlpiSWivzX,2022-06-27_17h22.48.389,jpn_C01,2022.1.2,MacIntel,60.0024001,,,space,3.0688,0,6,6,20,1,トマ　ピポ　シド,,,CartoonStims/doctor_point_artist_r.jpg,audio/tomapiposido.mp3,,,,,,,,,,,,,,,,,,,,,,,,,,,,,,,,,,,,,,,,,,,,,,,,,,,,,,,,,,,,,,,,,,,,,
,,,,,,,,,R_3W1yaIlpiSWivzX,2022-06-27_17h22.48.389,jpn_C01,2022.1.2,MacIntel,60.0024001,,,space,2.8457,0,7,7,28,1,パツ　ホレト　ドキ,,,CartoonStims/chef_shoot_boxer_r.jpg,audio/patsuhoretodoki.mp3,,,,,,,,,,,,,,,,,,,,,,,,,,,,,,,,,,,,,,,,,,,,,,,,,,,,,,,,,,,,,,,,,,,,,
,,,,,,,,,R_3W1yaIlpiSWivzX,2022-06-27_17h22.48.389,jpn_C01,2022.1.2,MacIntel,60.0024001,,,space,3.6587,0,8,8,2,1,セル 　ルピン 　ホレト,,,CartoonStims/burglar_kick_chef_r.jpg,audio/serulupinhoreto.mp3,,,,,,,,,,,,,,,,,,,,,,,,,,,,,,,,,,,,,,,,,,,,,,,,,,,,,,,,,,,,,,,,,,,,,
,,,,,,,,,R_3W1yaIlpiSWivzX,2022-06-27_17h22.48.389,jpn_C01,2022.1.2,MacIntel,60.0024001,,,space,2.5783,0,9,9,42,1,プミ　ムク　ルピン,,,CartoonStims/cowboy_punch_burglar_r.jpg,audio/pumimukulupin.mp3,,,,,,,,,,,,,,,,,,,,,,,,,,,,,,,,,,,,,,,,,,,,,,,,,,,,,,,,,,,,,,,,,,,,,
,,,,,,,,,R_3W1yaIlpiSWivzX,2022-06-27_17h22.48.389,jpn_C01,2022.1.2,MacIntel,60.0024001,,,space,1.6054,0,10,10,5,1,セル　ホレト　ピポ,,,CartoonStims/chef_kick_doctor_r.jpg,audio/seruhoretopipo.mp3,,,,,,,,,,,,,,,,,,,,,,,,,,,,,,,,,,,,,,,,,,,,,,,,,,,,,,,,,,,,,,,,,,,,,
,,,,,,,,,R_3W1yaIlpiSWivzX,2022-06-27_17h22.48.389,jpn_C01,2022.1.2,MacIntel,60.0024001,,,space,1.204,0,11,11,40,1,プミ　ホレト　シド,,,CartoonStims/chef_punch_artist_r.jpg,audio/pumihoretosido.mp3,,,,,,,,,,,,,,,,,,,,,,,,,,,,,,,,,,,,,,,,,,,,,,,,,,,,,,,,,,,,,,,,,,,,,
,,,,,,,,,R_3W1yaIlpiSWivzX,2022-06-27_17h22.48.389,jpn_C01,2022.1.2,MacIntel,60.0024001,,,space,2.1203,0,12,12,24,1,パツ　シド　ムク,,,CartoonStims/artist_shoot_cowboy_r.jpg,audio/patsusidomuku.mp3,,,,,,,,,,,,,,,,,,,,,,,,,,,,,,,,,,,,,,,,,,,,,,,,,,,,,,,,,,,,,,,,,,,,,
,,,,,,,,,R_3W1yaIlpiSWivzX,2022-06-27_17h22.48.389,jpn_C01,2022.1.2,MacIntel,60.0024001,,,space,1.4525,0,13,13,37,1,プミ　シド　ドキ,,,CartoonStims/artist_punch_boxer_r.jpg,audio/pumisidodoki.mp3,,,,,,,,,,,,,,,,,,,,,,,,,,,,,,,,,,,,,,,,,,,,,,,,,,,,,,,,,,,,,,,,,,,,,
,,,,,,,,,R_3W1yaIlpiSWivzX,2022-06-27_17h22.48.389,jpn_C01,2022.1.2,MacIntel,60.0024001,,,space,0.87,0,14,14,35,1,パツ　ドキ　ムク,,,CartoonStims/boxer_shoot_cowboy_r.jpg,audio/patsudokimuku.mp3,,,,,,,,,,,,,,,,,,,,,,,,,,,,,,,,,,,,,,,,,,,,,,,,,,,,,,,,,,,,,,,,,,,,,
,,,,,,,,,R_3W1yaIlpiSWivzX,2022-06-27_17h22.48.389,jpn_C01,2022.1.2,MacIntel,60.0024001,,,space,3.7428,0,15,15,1,1,セル 　シド 　ホレト,,,CartoonStims/artist_kick_chef_r.jpg,audio/serusidohoreto.mp3,,,,,,,,,,,,,,,,,,,,,,,,,,,,,,,,,,,,,,,,,,,,,,,,,,,,,,,,,,,,,,,,,,,,,
,,,,,,,,,R_3W1yaIlpiSWivzX,2022-06-27_17h22.48.389,jpn_C01,2022.1.2,MacIntel,60.0024001,,,space,2.1291,0,16,16,25,1,パツ　シド　ピポ,,,CartoonStims/artist_shoot_doctor_r.jpg,audio/patsusidopipo.mp3,,,,,,,,,,,,,,,,,,,,,,,,,,,,,,,,,,,,,,,,,,,,,,,,,,,,,,,,,,,,,,,,,,,,,
,,,,,,,,,R_3W1yaIlpiSWivzX,2022-06-27_17h22.48.389,jpn_C01,2022.1.2,MacIntel,60.0024001,,,space,2.4112,0,17,17,4,1,セル　ホレト　ムク,,,CartoonStims/chef_kick_cowboy_r.jpg,audio/seruhoretomuku.mp3,,,,,,,,,,,,,,,,,,,,,,,,,,,,,,,,,,,,,,,,,,,,,,,,,,,,,,,,,,,,,,,,,,,,,
,,,,,,,,,R_3W1yaIlpiSWivzX,2022-06-27_17h22.48.389,jpn_C01,2022.1.2,MacIntel,60.0024001,,,space,3.5525,0,18,18,11,1,セル　ドキ　ルピン,,,CartoonStims/boxer_kick_burglar_r.jpg,audio/serudokilupin.mp3,,,,,,,,,,,,,,,,,,,,,,,,,,,,,,,,,,,,,,,,,,,,,,,,,,,,,,,,,,,,,,,,,,,,,
,,,,,,,,,R_3W1yaIlpiSWivzX,2022-06-27_17h22.48.389,jpn_C01,2022.1.2,MacIntel,60.0024001,,,space,1.5569,0,19,19,29,1,パツ　ホレト　シド,,,CartoonStims/chef_shoot_artist_r.jpg,audio/patsuhoretosido.mp3,,,,,,,,,,,,,,,,,,,,,,,,,,,,,,,,,,,,,,,,,,,,,,,,,,,,,,,,,,,,,,,,,,,,,
,,,,,,,,,R_3W1yaIlpiSWivzX,2022-06-27_17h22.48.389,jpn_C01,2022.1.2,MacIntel,60.0024001,,,space,2.1212,0,20,20,12,1,トマ　シド　ホレト,,,CartoonStims/artist_point_chef_r.jpg,audio/tomasidohoreto.mp3,,,,,,,,,,,,,,,,,,,,,,,,,,,,,,,,,,,,,,,,,,,,,,,,,,,,,,,,,,,,,,,,,,,,,
,,,,,,,,,R_3W1yaIlpiSWivzX,2022-06-27_17h22.48.389,jpn_C01,2022.1.2,MacIntel,60.0024001,,,space,3.1271,0,21,21,39,1,プミ　ルピン　シド,,,CartoonStims/burglar_punch_artist_r.jpg,audio/pumilupinsido.mp3,,,,,,,,,,,,,,,,,,,,,,,,,,,,,,,,,,,,,,,,,,,,,,,,,,,,,,,,,,,,,,,,,,,,,
,,,,,,,,,R_3W1yaIlpiSWivzX,2022-06-27_17h22.48.389,jpn_C01,2022.1.2,MacIntel,60.0024001,,,space,1.5717,0,22,22,0,1,セル　シド　ルピン,,,CartoonStims/artist_kick_burglar_r.jpg,audio/serusidolupin.mp3,,,,,,,,,,,,,,,,,,,,,,,,,,,,,,,,,,,,,,,,,,,,,,,,,,,,,,,,,,,,,,,,,,,,,
,,,,,,,,,R_3W1yaIlpiSWivzX,2022-06-27_17h22.48.389,jpn_C01,2022.1.2,MacIntel,60.0024001,,,space,1.3722,0,23,23,34,1,パツ　ドキ　ホレト,,,CartoonStims/boxer_shoot_chef_r.jpg,audio/patsudokihoreto.mp3,,,,,,,,,,,,,,,,,,,,,,,,,,,,,,,,,,,,,,,,,,,,,,,,,,,,,,,,,,,,,,,,,,,,,
,,,,,,,,,R_3W1yaIlpiSWivzX,2022-06-27_17h22.48.389,jpn_C01,2022.1.2,MacIntel,60.0024001,,,space,1.4193,0,24,24,26,1,パツ　ルピン　ピポ,,,CartoonStims/burglar_shoot_doctor_r.jpg,audio/patsulupinpipo.mp3,,,,,,,,,,,,,,,,,,,,,,,,,,,,,,,,,,,,,,,,,,,,,,,,,,,,,,,,,,,,,,,,,,,,,
,,,,,,,,,R_3W1yaIlpiSWivzX,2022-06-27_17h22.48.389,jpn_C01,2022.1.2,MacIntel,60.0024001,,,space,1.1384,0,25,25,43,1,プミ　ムク　ホレト,,,CartoonStims/cowboy_punch_chef_r.jpg,audio/pumimukuhoreto.mp3,,,,,,,,,,,,,,,,,,,,,,,,,,,,,,,,,,,,,,,,,,,,,,,,,,,,,,,,,,,,,,,,,,,,,
,,,,,,,,,R_3W1yaIlpiSWivzX,2022-06-27_17h22.48.389,jpn_C01,2022.1.2,MacIntel,60.0024001,,,space,1.0855,0,26,26,36,1,プミ　シド　ピポ,,,CartoonStims/artist_punch_doctor_r.jpg,audio/pumisidopipo.mp3,,,,,,,,,,,,,,,,,,,,,,,,,,,,,,,,,,,,,,,,,,,,,,,,,,,,,,,,,,,,,,,,,,,,,
,,,,,,,,,R_3W1yaIlpiSWivzX,2022-06-27_17h22.48.389,jpn_C01,2022.1.2,MacIntel,60.0024001,,,space,0.8569,0,27,27,19,1,トマ　ムク　シド,,,CartoonStims/cowboy_point_artist_r.jpg,audio/tomamukusido.mp3,,,,,,,,,,,,,,,,,,,,,,,,,,,,,,,,,,,,,,,,,,,,,,,,,,,,,,,,,,,,,,,,,,,,,
,,,,,,,,,R_3W1yaIlpiSWivzX,2022-06-27_17h22.48.389,jpn_C01,2022.1.2,MacIntel,60.0024001,,,space,3.4207,0,28,28,13,1,トマ　シド　ムク,,,CartoonStims/artist_point_cowboy_r.jpg,audio/tomasidomuku.mp3,,,,,,,,,,,,,,,,,,,,,,,,,,,,,,,,,,,,,,,,,,,,,,,,,,,,,,,,,,,,,,,,,,,,,
,,,,,,,,,R_3W1yaIlpiSWivzX,2022-06-27_17h22.48.389,jpn_C01,2022.1.2,MacIntel,60.0024001,,,space,1.819,0,29,29,14,1,トマ　ルピン　ムク,,,CartoonStims/burglar_point_cowboy_r.jpg,audio/tomalupinmuku.mp3,,,,,,,,,,,,,,,,,,,,,,,,,,,,,,,,,,,,,,,,,,,,,,,,,,,,,,,,,,,,,,,,,,,,,
,,,,,,,,,R_3W1yaIlpiSWivzX,2022-06-27_17h22.48.389,jpn_C01,2022.1.2,MacIntel,60.0024001,,,space,1.7251,0,30,30,6,1,セル　ムク　ピポ,,,CartoonStims/cowboy_kick_doctor_r.jpg,audio/serumukupipo.mp3,,,,,,,,,,,,,,,,,,,,,,,,,,,,,,,,,,,,,,,,,,,,,,,,,,,,,,,,,,,,,,,,,,,,,
,,,,,,,,,R_3W1yaIlpiSWivzX,2022-06-27_17h22.48.389,jpn_C01,2022.1.2,MacIntel,60.0024001,,,space,2.1034,0,31,31,23,1,トマ　ドキ　ホレト,,,CartoonStims/boxer_point_chef_r.jpg,audio/tomadokihoreto.mp3,,,,,,,,,,,,,,,,,,,,,,,,,,,,,,,,,,,,,,,,,,,,,,,,,,,,,,,,,,,,,,,,,,,,,
,,,,,,,,,R_3W1yaIlpiSWivzX,2022-06-27_17h22.48.389,jpn_C01,2022.1.2,MacIntel,60.0024001,,,space,1.1824,0,32,32,46,1,プミ　ドキ　ムク,,,CartoonStims/boxer_punch_cowboy_r.jpg,audio/pumidokimuku.mp3,,,,,,,,,,,,,,,,,,,,,,,,,,,,,,,,,,,,,,,,,,,,,,,,,,,,,,,,,,,,,,,,,,,,,
,,,,,,,,,R_3W1yaIlpiSWivzX,2022-06-27_17h22.48.389,jpn_C01,2022.1.2,MacIntel,60.0024001,,,space,2.0779,0,33,33,3,1,セル　ルピン　ムク,,,CartoonStims/burglar_kick_cowboy_r.jpg,audio/serulupinmuku.mp3,,,,,,,,,,,,,,,,,,,,,,,,,,,,,,,,,,,,,,,,,,,,,,,,,,,,,,,,,,,,,,,,,,,,,
,,,,,,,,,R_3W1yaIlpiSWivzX,2022-06-27_17h22.48.389,jpn_C01,2022.1.2,MacIntel,60.0024001,,,space,1.4444,0,34,34,18,1,トマ　ムク　ドキ,,,CartoonStims/cowboy_point_boxer_r.jpg,audio/tomamukudoki.mp3,,,,,,,,,,,,,,,,,,,,,,,,,,,,,,,,,,,,,,,,,,,,,,,,,,,,,,,,,,,,,,,,,,,,,
,,,,,,,,,R_3W1yaIlpiSWivzX,2022-06-27_17h22.48.389,jpn_C01,2022.1.2,MacIntel,60.0024001,,,space,1.3543,0,35,35,21,1,トマ　ピポ　ルピン,,,CartoonStims/doctor_point_burglar_r.jpg,audio/tomapipolupin.mp3,,,,,,,,,,,,,,,,,,,,,,,,,,,,,,,,,,,,,,,,,,,,,,,,,,,,,,,,,,,,,,,,,,,,,
,,,,,,,,,R_3W1yaIlpiSWivzX,2022-06-27_17h22.48.389,jpn_C01,2022.1.2,MacIntel,60.0024001,,,space,2.5703,0,36,36,44,1,プミ　ピポ　ホレト,,,CartoonStims/doctor_punch_chef_r.jpg,audio/pumipipohoreto.mp3,,,,,,,,,,,,,,,,,,,,,,,,,,,,,,,,,,,,,,,,,,,,,,,,,,,,,,,,,,,,,,,,,,,,,
,,,,,,,,,R_3W1yaIlpiSWivzX,2022-06-27_17h22.48.389,jpn_C01,2022.1.2,MacIntel,60.0024001,,,space,1.2032,0,37,37,41,1,プミ　ホレト　ルピン,,,CartoonStims/chef_punch_burglar_r.jpg,audio/pumihoretolupin.mp3,,,,,,,,,,,,,,,,,,,,,,,,,,,,,,,,,,,,,,,,,,,,,,,,,,,,,,,,,,,,,,,,,,,,,
,,,,,,,,,R_3W1yaIlpiSWivzX,2022-06-27_17h22.48.389,jpn_C01,2022.1.2,MacIntel,60.0024001,,,space,1.3117,0,38,38,38,1,プミ　ルピン　ドキ,,,CartoonStims/burglar_punch_boxer_r.jpg,audio/pumilupindoki.mp3,,,,,,,,,,,,,,,,,,,,,,,,,,,,,,,,,,,,,,,,,,,,,,,,,,,,,,,,,,,,,,,,,,,,,
,,,,,,,,,R_3W1yaIlpiSWivzX,2022-06-27_17h22.48.389,jpn_C01,2022.1.2,MacIntel,60.0024001,,,space,2.919,0,39,39,33,1,パツ　ピポ　ホレト,,,CartoonStims/doctor_shoot_chef_r.jpg,audio/patsupipohoreto.mp3,,,,,,,,,,,,,,,,,,,,,,,,,,,,,,,,,,,,,,,,,,,,,,,,,,,,,,,,,,,,,,,,,,,,,
,,,,,,,,,R_3W1yaIlpiSWivzX,2022-06-27_17h22.48.389,jpn_C01,2022.1.2,MacIntel,60.0024001,,,space,3.8343,0,40,40,45,1,プミ　ピポ　ムク,,,CartoonStims/doctor_punch_cowboy_r.jpg,audio/pumipipomuku.mp3,,,,,,,,,,,,,,,,,,,,,,,,,,,,,,,,,,,,,,,,,,,,,,,,,,,,,,,,,,,,,,,,,,,,,
,,,,,,,,,R_3W1yaIlpiSWivzX,2022-06-27_17h22.48.389,jpn_C01,2022.1.2,MacIntel,60.0024001,,,space,1.3421,0,41,41,16,1,トマ　ホレト　ピポ,,,CartoonStims/chef_point_doctor_r.jpg,audio/tomahoretopipo.mp3,,,,,,,,,,,,,,,,,,,,,,,,,,,,,,,,,,,,,,,,,,,,,,,,,,,,,,,,,,,,,,,,,,,,,
,,,,,,,,,R_3W1yaIlpiSWivzX,2022-06-27_17h22.48.389,jpn_C01,2022.1.2,MacIntel,60.0024001,,,space,2.2984,0,42,42,8,1,セル　ピポ　ドキ,,,CartoonStims/doctor_kick_boxer_r.jpg,audio/serupipodoki.mp3,,,,,,,,,,,,,,,,,,,,,,,,,,,,,,,,,,,,,,,,,,,,,,,,,,,,,,,,,,,,,,,,,,,,,
,,,,,,,,,R_3W1yaIlpiSWivzX,2022-06-27_17h22.48.389,jpn_C01,2022.1.2,MacIntel,60.0024001,,,space,1.0564,0,43,43,7,1,セル　ムク　ドキ,,,CartoonStims/cowboy_kick_boxer_r.jpg,audio/serumukudoki.mp3,,,,,,,,,,,,,,,,,,,,,,,,,,,,,,,,,,,,,,,,,,,,,,,,,,,,,,,,,,,,,,,,,,,,,
,,,,,,,,,R_3W1yaIlpiSWivzX,2022-06-27_17h22.48.389,jpn_C01,2022.1.2,MacIntel,60.0024001,,,space,0.9605,0,44,44,17,1,トマ　ホレト　ドキ,,,CartoonStims/chef_point_boxer_r.jpg,audio/tomahoretodoki.mp3,,,,,,,,,,,,,,,,,,,,,,,,,,,,,,,,,,,,,,,,,,,,,,,,,,,,,,,,,,,,,,,,,,,,,
,,,,,,,,,R_3W1yaIlpiSWivzX,2022-06-27_17h22.48.389,jpn_C01,2022.1.2,MacIntel,60.0024001,,,space,2.803,0,45,45,15,1,トマ　ルピン　ピポ,,,CartoonStims/burglar_point_doctor_r.jpg,audio/tomalupinpipo.mp3,,,,,,,,,,,,,,,,,,,,,,,,,,,,,,,,,,,,,,,,,,,,,,,,,,,,,,,,,,,,,,,,,,,,,
,,,,,,,,,R_3W1yaIlpiSWivzX,2022-06-27_17h22.48.389,jpn_C01,2022.1.2,MacIntel,60.0024001,,,space,1.0561,0,46,46,30,1,パツ　ムク　シド,,,CartoonStims/cowboy_shoot_artist_r.jpg,audio/patsumukusido.mp3,,,,,,,,,,,,,,,,,,,,,,,,,,,,,,,,,,,,,,,,,,,,,,,,,,,,,,,,,,,,,,,,,,,,,
,,,,,,,,,R_3W1yaIlpiSWivzX,2022-06-27_17h22.48.389,jpn_C01,2022.1.2,MacIntel,60.0024001,,,space,1.1726,0,47,47,9,1,セル　ピポ　シド,,,CartoonStims/doctor_kick_artist_r.jpg,audio/serupiposido.mp3,,,,,,,,,,,,,,,,,,,,,,,,,,,,,,,,,,,,,,,,,,,,,,,,,,,,,,,,,,,,,,,,,,,,,
,,,,,,,,,R_3W1yaIlpiSWivzX,2022-06-27_17h22.48.389,jpn_C01,2022.1.2,MacIntel,60.0024001,,,,,,,,,,,,,,,space,0.0699,right,1,5.3548,,,,,,,,,,,,,,,,,,0,0,0,0,1,,,,,,,,,,,,,,,,,,,,,,,,,,,,,,,,,,,,,,,,,,
,,,,,,,,,R_3W1yaIlpiSWivzX,2022-06-27_17h22.48.389,jpn_C01,2022.1.2,MacIntel,60.0024001,,,,,,,,,,,,,,,,,,,,,,,,,0,0,0,11,1,CartoonStims/burglar_punch_cowboy_r.jpg,プミ　ホレト　ムク,CartoonStims/chef_punch_cowboy_r.jpg,right,CartoonStims/chef_punch_cowboy_r.jpg,audio/pumihoretomuku.mp3,残念！ こちらが正しい画像です。,,,,,,,,,,,,,,,,,,,,,,,,,,,,,,,,,,,,,,,,,,,,,,,
,,,,,,,,,R_3W1yaIlpiSWivzX,2022-06-27_17h22.48.389,jpn_C01,2022.1.2,MacIntel,60.0024001,,,,,,,,,,,,,,,,,left,1,3.5776,0,0,0,0,1,,,,,,,,,,,,,,,,,,,,,,,,,,,,,,,,,,,,,,,,,,,,,,,,,,,,,,,,,,,
,,,,,,,,,R_3W1yaIlpiSWivzX,2022-06-27_17h22.48.389,jpn_C01,2022.1.2,MacIntel,60.0024001,,,,,,,,,,,,,,,,,,,,,,,,,0,1,1,10,1,CartoonStims/artist_shoot_burglar_r.jpg,パツ　シド　ルピン,CartoonStims/chef_shoot_burglar_r.jpg,left,CartoonStims/artist_shoot_burglar_r.jpg,audio/patsusidolupin.mp3,残念！ こちらが正しい画像です。,,,,,,,,,,,,,,,,,,,,,,,,,,,,,,,,,,,,,,,,,,,,,,,
,,,,,,,,,R_3W1yaIlpiSWivzX,2022-06-27_17h22.48.389,jpn_C01,2022.1.2,MacIntel,60.0024001,,,,,,,,,,,,,,,,,left,1,2.4023,0,0,0,0,1,,,,,,,,,,,,,,,,,,,,,,,,,,,,,,,,,,,,,,,,,,,,,,,,,,,,,,,,,,,
,,,,,,,,,R_3W1yaIlpiSWivzX,2022-06-27_17h22.48.389,jpn_C01,2022.1.2,MacIntel,60.0024001,,,,,,,,,,,,,,,,,,,,,,,,,0,2,2,6,1,CartoonStims/doctor_punch_boxer_r.jpg,プミ　ピポ　ドキ,CartoonStims/doctor_shoot_boxer_r.jpg,left,CartoonStims/doctor_punch_boxer_r.jpg,audio/pumipipodoki.mp3,残念！ こちらが正しい画像です。,,,,,,,,,,,,,,,,,,,,,,,,,,,,,,,,,,,,,,,,,,,,,,,
,,,,,,,,,R_3W1yaIlpiSWivzX,2022-06-27_17h22.48.389,jpn_C01,2022.1.2,MacIntel,60.0024001,,,,,,,,,,,,,,,,,right,1,2.805,,,,,,,,,,,,,,,,,,0,0,0,0,1,,,,,,,,,,,,,,,,,,,,,,,,,,,,,,,,,,,,,,,,,,
,,,,,,,,,R_3W1yaIlpiSWivzX,2022-06-27_17h22.48.389,jpn_C01,2022.1.2,MacIntel,60.0024001,,,,,,,,,,,,,,,,,,,,,,,,,0,3,3,1,1,CartoonStims/chef_point_burglar_r.jpg,トマ　ホレト　シド,CartoonStims/chef_point_artist_r.jpg,right,CartoonStims/chef_point_artist_r.jpg,audio/tomahoretosido.mp3,残念！ こちらが正しい画像です。,,,,,,,,,,,,,,,,,,,,,,,,,,,,,,,,,,,,,,,,,,,,,,,
,,,,,,,,,R_3W1yaIlpiSWivzX,2022-06-27_17h22.48.389,jpn_C01,2022.1.2,MacIntel,60.0024001,,,,,,,,,,,,,,,,,right,1,3.5178,,,,,,,,,,,,,,,,,,0,0,0,0,1,,,,,,,,,,,,,,,,,,,,,,,,,,,,,,,,,,,,,,,,,,
,,,,,,,,,R_3W1yaIlpiSWivzX,2022-06-27_17h22.48.389,jpn_C01,2022.1.2,MacIntel,60.0024001,,,,,,,,,,,,,,,,,,,,,,,,,0,4,4,5,1,CartoonStims/cowboy_point_chef_r.jpg,パツ　ムク　ホレト,CartoonStims/cowboy_shoot_chef_r.jpg,right,CartoonStims/cowboy_shoot_chef_r.jpg,audio/patsumukuhoreto.mp3,残念！ こちらが正しい画像です。,,,,,,,,,,,,,,,,,,,,,,,,,,,,,,,,,,,,,,,,,,,,,,,
,,,,,,,,,R_3W1yaIlpiSWivzX,2022-06-27_17h22.48.389,jpn_C01,2022.1.2,MacIntel,60.0024001,,,,,,,,,,,,,,,,,left,1,3.2005,0,0,0,0,1,,,,,,,,,,,,,,,,,,,,,,,,,,,,,,,,,,,,,,,,,,,,,,,,,,,,,,,,,,,
,,,,,,,,,R_3W1yaIlpiSWivzX,2022-06-27_17h22.48.389,jpn_C01,2022.1.2,MacIntel,60.0024001,,,,,,,,,,,,,,,,,,,,,,,,,0,5,5,2,1,CartoonStims/boxer_shoot_doctor_r.jpg,パツ　ドキ　ピポ,CartoonStims/boxer_shoot_artist_r.jpg,left,CartoonStims/boxer_shoot_doctor_r.jpg,audio/patsudokipipo.mp3,残念！ こちらが正しい画像です。,,,,,,,,,,,,,,,,,,,,,,,,,,,,,,,,,,,,,,,,,,,,,,,
,,,,,,,,,R_3W1yaIlpiSWivzX,2022-06-27_17h22.48.389,jpn_C01,2022.1.2,MacIntel,60.0024001,,,,,,,,,,,,,,,,,left,1,4.9034,0,0,0,0,1,,,,,,,,,,,,,,,,,,,,,,,,,,,,,,,,,,,,,,,,,,,,,,,,,,,,,,,,,,,
,,,,,,,,,R_3W1yaIlpiSWivzX,2022-06-27_17h22.48.389,jpn_C01,2022.1.2,MacIntel,60.0024001,,,,,,,,,,,,,,,,,,,,,,,,,0,6,6,0,1,CartoonStims/doctor_kick_burglar_r.jpg,セル　ピポ　ルピン,CartoonStims/doctor_kick_chef_r.jpg,left,CartoonStims/doctor_kick_burglar_r.jpg,audio/serupipolupin.mp3,残念！ こちらが正しい画像です。,,,,,,,,,,,,,,,,,,,,,,,,,,,,,,,,,,,,,,,,,,,,,,,
,,,,,,,,,R_3W1yaIlpiSWivzX,2022-06-27_17h22.48.389,jpn_C01,2022.1.2,MacIntel,60.0024001,,,,,,,,,,,,,,,,,left,1,4.4848,0,0,0,0,1,,,,,,,,,,,,,,,,,,,,,,,,,,,,,,,,,,,,,,,,,,,,,,,,,,,,,,,,,,,
,,,,,,,,,R_3W1yaIlpiSWivzX,2022-06-27_17h22.48.389,jpn_C01,2022.1.2,MacIntel,60.0024001,,,,,,,,,,,,,,,,,,,,,,,,,0,7,7,4,1,CartoonStims/burglar_point_boxer_r.jpg,トマ　ルピン　ドキ,CartoonStims/burglar_kick_boxer_r.jpg,left,CartoonStims/burglar_point_boxer_r.jpg,audio/tomalupindoki.mp3,残念！ こちらが正しい画像です。,,,,,,,,,,,,,,,,,,,,,,,,,,,,,,,,,,,,,,,,,,,,,,,
,,,,,,,,,R_3W1yaIlpiSWivzX,2022-06-27_17h22.48.389,jpn_C01,2022.1.2,MacIntel,60.0024001,,,,,,,,,,,,,,,,,right,1,2.3603,,,,,,,,,,,,,,,,,,0,0,0,0,1,,,,,,,,,,,,,,,,,,,,,,,,,,,,,,,,,,,,,,,,,,
,,,,,,,,,R_3W1yaIlpiSWivzX,2022-06-27_17h22.48.389,jpn_C01,2022.1.2,MacIntel,60.0024001,,,,,,,,,,,,,,,,,,,,,,,,,0,8,8,9,1,CartoonStims/chef_kick_artist_r.jpg,セル　ムク　シド,CartoonStims/cowboy_kick_artist_r.jpg,right,CartoonStims/cowboy_kick_artist_r.jpg,audio/serumukusido.mp3,残念！ こちらが正しい画像です。,,,,,,,,,,,,,,,,,,,,,,,,,,,,,,,,,,,,,,,,,,,,,,,
,,,,,,,,,R_3W1yaIlpiSWivzX,2022-06-27_17h22.48.389,jpn_C01,2022.1.2,MacIntel,60.0024001,,,,,,,,,,,,,,,,,right,1,3.2693,,,,,,,,,,,,,,,,,,0,0,0,0,1,,,,,,,,,,,,,,,,,,,,,,,,,,,,,,,,,,,,,,,,,,
,,,,,,,,,R_3W1yaIlpiSWivzX,2022-06-27_17h22.48.389,jpn_C01,2022.1.2,MacIntel,60.0024001,,,,,,,,,,,,,,,,,,,,,,,,,0,9,9,7,1,CartoonStims/artist_punch_cowboy_r.jpg,セル　シド　ムク,CartoonStims/artist_kick_cowboy_r.jpg,right,CartoonStims/artist_kick_cowboy_r.jpg,audio/serusidomuku.mp3,残念！ こちらが正しい画像です。,,,,,,,,,,,,,,,,,,,,,,,,,,,,,,,,,,,,,,,,,,,,,,,
,,,,,,,,,R_3W1yaIlpiSWivzX,2022-06-27_17h22.48.389,jpn_C01,2022.1.2,MacIntel,60.0024001,,,,,,,,,,,,,,,,,left,1,2.2258,0,0,0,0,1,,,,,,,,,,,,,,,,,,,,,,,,,,,,,,,,,,,,,,,,,,,,,,,,,,,,,,,,,,,
,,,,,,,,,R_3W1yaIlpiSWivzX,2022-06-27_17h22.48.389,jpn_C01,2022.1.2,MacIntel,60.0024001,,,,,,,,,,,,,,,,,,,,,,,,,0,10,10,8,1,CartoonStims/doctor_point_cowboy_r.jpg,トマ　ピポ　ムク,CartoonStims/boxer_point_cowboy_r.jpg,left,CartoonStims/doctor_point_cowboy_r.jpg,audio/tomapipomuku.mp3,残念！ こちらが正しい画像です。,,,,,,,,,,,,,,,,,,,,,,,,,,,,,,,,,,,,,,,,,,,,,,,
,,,,,,,,,R_3W1yaIlpiSWivzX,2022-06-27_17h22.48.389,jpn_C01,2022.1.2,MacIntel,60.0024001,,,,,,,,,,,,,,,,,right,1,6.2374,,,,,,,,,,,,,,,,,,0,0,0,0,1,,,,,,,,,,,,,,,,,,,,,,,,,,,,,,,,,,,,,,,,,,
,,,,,,,,,R_3W1yaIlpiSWivzX,2022-06-27_17h22.48.389,jpn_C01,2022.1.2,MacIntel,60.0024001,,,,,,,,,,,,,,,,,,,,,,,,,0,11,11,3,1,CartoonStims/cowboy_punch_doctor_r.jpg,プミ　ムク　ドキ,CartoonStims/cowboy_punch_boxer_r.jpg,right,CartoonStims/cowboy_punch_boxer_r.jpg,audio/pumimukudoki.mp3,残念！ こちらが正しい画像です。,,,,,,,,,,,,,,,,,,,,,,,,,,,,,,,,,,,,,,,,,,,,,,,
,,,,,,,,,R_3W1yaIlpiSWivzX,2022-06-27_17h22.48.389,jpn_C01,2022.1.2,MacIntel,60.0024001,,,,,,,,,,,,,,,,,,,,,,,,,,,,,,,,,,,,,,,,,,space,1.905,セル　ドキ　ムク,right,13.5084,0,0,0,0,1,,,,,,,,,,,,,,,,,,,,,,,,,,,,,,,,
,,,,,,,,,R_3W1yaIlpiSWivzX,2022-06-27_17h22.48.389,jpn_C01,2022.1.2,MacIntel,60.0024001,,,,,,,,,,,,,CartoonStims/boxer_kick_cowboy_r.jpg,audio/serudokimuku.mp3,,,,,,,,,,,,,,,,,,,,,,,,,,,,,,,,,,,,,,0,0,0,2,1,セル　ドキ　ムク,,,,,,,,,,,,,,,,,,,,,,,,,,
,,,,,,,,,R_3W1yaIlpiSWivzX,2022-06-27_17h22.48.389,jpn_C01,2022.1.2,MacIntel,60.0024001,,,,,,,,,,,,,,,,,,,,,,,,,,,,,,,,,,,,,,,,,,,,パツ　ホレト　ムク,right,17.4168,0,0,0,0,1,,,,,,,,,,,,,,,,,,,,,,,,,,,,,,,,
,,,,,,,,,R_3W1yaIlpiSWivzX,2022-06-27_17h22.48.389,jpn_C01,2022.1.2,MacIntel,60.0024001,,,,,,,,,,,,,CartoonStims/chef_shoot_cowboy_r.jpg,audio/patsuhoretomuku.mp3,,,,,,,,,,,,,,,,,,,,,,,,,,,,,,,,,,,,,,0,1,1,7,1,パツ　ホレト　ムク,,,,,,,,,,,,,,,,,,,,,,,,,,
,,,,,,,,,R_3W1yaIlpiSWivzX,2022-06-27_17h22.48.389,jpn_C01,2022.1.2,MacIntel,60.0024001,,,,,,,,,,,,,,,,,,,,,,,,,,,,,,,,,,,,,,,,,,,,トマ　シド　ドキ,right,12.7011,0,0,0,0,1,,,,,,,,,,,,,,,,,,,,,,,,,,,,,,,,
,,,,,,,,,R_3W1yaIlpiSWivzX,2022-06-27_17h22.48.389,jpn_C01,2022.1.2,MacIntel,60.0024001,,,,,,,,,,,,,CartoonStims/artist_point_boxer_r.jpg,audio/tomasidodoki.mp3,,,,,,,,,,,,,,,,,,,,,,,,,,,,,,,,,,,,,,0,2,2,3,1,トマ　シド　ドキ,,,,,,,,,,,,,,,,,,,,,,,,,,
,,,,,,,,,R_3W1yaIlpiSWivzX,2022-06-27_17h22.48.389,jpn_C01,2022.1.2,MacIntel,60.0024001,,,,,,,,,,,,,,,,,,,,,,,,,,,,,,,,,,,,,,,,,,,,セパ　ドキ　シド,right,20.7952,0,0,0,0,1,,,,,,,,,,,,,,,,,,,,,,,,,,,,,,,,
,,,,,,,,,R_3W1yaIlpiSWivzX,2022-06-27_17h22.48.389,jpn_C01,2022.1.2,MacIntel,60.0024001,,,,,,,,,,,,,CartoonStims/boxer_punch_artist_r.jpg,audio/pumidokisido.mp3,,,,,,,,,,,,,,,,,,,,,,,,,,,,,,,,,,,,,,0,3,3,11,1,プミ　ドキ　シド,,,,,,,,,,,,,,,,,,,,,,,,,,
,,,,,,,,,R_3W1yaIlpiSWivzX,2022-06-27_17h22.48.389,jpn_C01,2022.1.2,MacIntel,60.0024001,,,,,,,,,,,,,,,,,,,,,,,,,,,,,,,,,,,,,,,,,,,,プミ　ピポ　ドキ,right,11.2712,0,0,0,0,1,,,,,,,,,,,,,,,,,,,,,,,,,,,,,,,,
,,,,,,,,,R_3W1yaIlpiSWivzX,2022-06-27_17h22.48.389,jpn_C01,2022.1.2,MacIntel,60.0024001,,,,,,,,,,,,,CartoonStims/doctor_punch_boxer_r.jpg,audio/pumipipodoki.mp3,,,,,,,,,,,,,,,,,,,,,,,,,,,,,,,,,,,,,,0,4,4,10,1,プミ　ピポ　ドキ,,,,,,,,,,,,,,,,,,,,,,,,,,
,,,,,,,,,R_3W1yaIlpiSWivzX,2022-06-27_17h22.48.389,jpn_C01,2022.1.2,MacIntel,60.0024001,,,,,,,,,,,,,,,,,,,,,,,,,,,,,,,,,,,,,,,,,,,,セル　ムク　ルピン,right,11.6441,0,0,0,0,1,,,,,,,,,,,,,,,,,,,,,,,,,,,,,,,,
,,,,,,,,,R_3W1yaIlpiSWivzX,2022-06-27_17h22.48.389,jpn_C01,2022.1.2,MacIntel,60.0024001,,,,,,,,,,,,,CartoonStims/cowboy_kick_burglar_r.jpg,audio/serumukulupin.mp3,,,,,,,,,,,,,,,,,,,,,,,,,,,,,,,,,,,,,,0,5,5,0,1,セル　ムク　ルピン,,,,,,,,,,,,,,,,,,,,,,,,,,
,,,,,,,,,R_3W1yaIlpiSWivzX,2022-06-27_17h22.48.389,jpn_C01,2022.1.2,MacIntel,60.0024001,,,,,,,,,,,,,,,,,,,,,,,,,,,,,,,,,,,,,,,,,,,,トマ　ルピン　ムク,right,11.5961,0,0,0,0,1,,,,,,,,,,,,,,,,,,,,,,,,,,,,,,,,
,,,,,,,,,R_3W1yaIlpiSWivzX,2022-06-27_17h22.48.389,jpn_C01,2022.1.2,MacIntel,60.0024001,,,,,,,,,,,,,CartoonStims/burglar_point_artist_r.jpg,audio/tomalupinsido.mp3,,,,,,,,,,,,,,,,,,,,,,,,,,,,,,,,,,,,,,0,6,6,4,1,トマ　ルピン　シド,,,,,,,,,,,,,,,,,,,,,,,,,,
,,,,,,,,,R_3W1yaIlpiSWivzX,2022-06-27_17h22.48.389,jpn_C01,2022.1.2,MacIntel,60.0024001,,,,,,,,,,,,,,,,,,,,,,,,,,,,,,,,,,,,,,,,,,,,パツ　ルピン　ホルト,right,18.5134,0,0,0,0,1,,,,,,,,,,,,,,,,,,,,,,,,,,,,,,,,
,,,,,,,,,R_3W1yaIlpiSWivzX,2022-06-27_17h22.48.389,jpn_C01,2022.1.2,MacIntel,60.0024001,,,,,,,,,,,,,CartoonStims/burglar_shoot_chef_r.jpg,audio/patsulupinhoreto.mp3,,,,,,,,,,,,,,,,,,,,,,,,,,,,,,,,,,,,,,0,7,7,6,1,パツ　ルピン　ホレト,,,,,,,,,,,,,,,,,,,,,,,,,,
,,,,,,,,,R_3W1yaIlpiSWivzX,2022-06-27_17h22.48.389,jpn_C01,2022.1.2,MacIntel,60.0024001,,,,,,,,,,,,,,,,,,,,,,,,,,,,,,,,,,,,,,,,,,,,トマ　ホレト　ルピン,right,20.5114,0,0,0,0,1,,,,,,,,,,,,,,,,,,,,,,,,,,,,,,,,
,,,,,,,,,R_3W1yaIlpiSWivzX,2022-06-27_17h22.48.389,jpn_C01,2022.1.2,MacIntel,60.0024001,,,,,,,,,,,,,CartoonStims/chef_point_burglar_r.jpg,audio/tomahoretolupin.mp3,,,,,,,,,,,,,,,,,,,,,,,,,,,,,,,,,,,,,,0,8,8,5,1,トマ　ホレト　ルピン,,,,,,,,,,,,,,,,,,,,,,,,,,
,,,,,,,,,R_3W1yaIlpiSWivzX,2022-06-27_17h22.48.389,jpn_C01,2022.1.2,MacIntel,60.0024001,,,,,,,,,,,,,,,,,,,,,,,,,,,,,,,,,,,,,,,,,,,,パツ　シド　ピポ,right,17.015,0,0,0,0,1,,,,,,,,,,,,,,,,,,,,,,,,,,,,,,,,
,,,,,,,,,R_3W1yaIlpiSWivzX,2022-06-27_17h22.48.389,jpn_C01,2022.1.2,MacIntel,60.0024001,,,,,,,,,,,,,CartoonStims/cowboy_shoot_doctor_r.jpg,audio/patsumukupipo.mp3,,,,,,,,,,,,,,,,,,,,,,,,,,,,,,,,,,,,,,0,9,9,8,1,パツ　ムク　ピポ,,,,,,,,,,,,,,,,,,,,,,,,,,
,,,,,,,,,R_3W1yaIlpiSWivzX,2022-06-27_17h22.48.389,jpn_C01,2022.1.2,MacIntel,60.0024001,,,,,,,,,,,,,,,,,,,,,,,,,,,,,,,,,,,,,,,,,,,,パツ　ムク　ルピン,right,40.1795,0,0,0,0,1,,,,,,,,,,,,,,,,,,,,,,,,,,,,,,,,
,,,,,,,,,R_3W1yaIlpiSWivzX,2022-06-27_17h22.48.389,jpn_C01,2022.1.2,MacIntel,60.0024001,,,,,,,,,,,,,CartoonStims/artist_punch_burglar_r.jpg,audio/pumisidolupin.mp3,,,,,,,,,,,,,,,,,,,,,,,,,,,,,,,,,,,,,,0,10,10,9,1,プミ　シド　ルピン,,,,,,,,,,,,,,,,,,,,,,,,,,
,,,,,,,,,R_3W1yaIlpiSWivzX,2022-06-27_17h22.48.389,jpn_C01,2022.1.2,MacIntel,60.0024001,,,,,,,,,,,,,,,,,,,,,,,,,,,,,,,,,,,,,,,,,,,,セル　ピポ　ホルト,right,14.361,0,0,0,0,1,,,,,,,,,,,,,,,,,,,,,,,,,,,,,,,,
,,,,,,,,,R_3W1yaIlpiSWivzX,2022-06-27_17h22.48.389,jpn_C01,2022.1.2,MacIntel,60.0024001,,,,,,,,,,,,,CartoonStims/doctor_kick_chef_r.jpg,audio/serupipohoreto.mp3,,,,,,,,,,,,,,,,,,,,,,,,,,,,,,,,,,,,,,0,11,11,1,1,セル　ピポ　ホレト,,,,,,,,,,,,,,,,,,,,,,,,,,
,,,,,,,,,R_3W1yaIlpiSWivzX,2022-06-27_17h22.48.389,jpn_C01,2022.1.2,MacIntel,60.0024001,,,,,,,,,,,,,,,,,,,,,,,,,,,,,,,,,,,,,,,,,,,,,,,,,,,,,,,,,,,space,0.6566,0,1,1,1,1,AffExposure.xlsx,"第二のトライアルの学習では、この言語で書かれた文を見ていただきます。引き続き注意して、 聞こえた音を復唱してください。


スペースキーを押してください。",1,AffFCT.xlsx,ここからクイズが始まります。 スクリーンに表示されるテキストに合う画像を選んでください。,AffTest.xlsx,1,次にここまで学んだことをアウトプットしていただきます。 表示される画像を描写していると思う単語を、テキストボックスにタイプしてください。 答えを提出したあとに正しい正解が少しの間画面に写ります。,1,"これで第二のトライアルが終了しました。 ここで休憩をとっていただいても構いません。

休憩が終わりましたら、 スペースキーを押して続きの学習を行いましょう。",,,,,,,,
,,,,,,,,,R_3W1yaIlpiSWivzX,2022-06-27_17h22.48.389,jpn_C01,2022.1.2,MacIntel,60.0024001,space,1.5396,space,2.414,0,0,0,7,1,セル　ピク　ムク　ドキ,,,CartoonStims/cowboy_kick_boxer_r_no.jpg,audio/serupikumukudoki.mp3,,,,,,,,,,,,,,,,,,,,,,,,,,,,,,,,,,,,,,,,,,,,,,,,,,,,,,,,,,,,,,,,,,,,,
,,,,,,,,,R_3W1yaIlpiSWivzX,2022-06-27_17h22.48.389,jpn_C01,2022.1.2,MacIntel,60.0024001,,,space,1.921,0,1,1,26,1,パツ　ピク　ルピン　ピポ,,,CartoonStims/burglar_shoot_doctor_r_no.jpg,audio/patsupikulupinpipo.mp3,,,,,,,,,,,,,,,,,,,,,,,,,,,,,,,,,,,,,,,,,,,,,,,,,,,,,,,,,,,,,,,,,,,,,
,,,,,,,,,R_3W1yaIlpiSWivzX,2022-06-27_17h22.48.389,jpn_C01,2022.1.2,MacIntel,60.0024001,,,space,1.4034,0,2,2,30,1,パツ　ピク　ムク　シド,,,CartoonStims/cowboy_shoot_artist_r_no.jpg,audio/patsupikumukusido.mp3,,,,,,,,,,,,,,,,,,,,,,,,,,,,,,,,,,,,,,,,,,,,,,,,,,,,,,,,,,,,,,,,,,,,,
,,,,,,,,,R_3W1yaIlpiSWivzX,2022-06-27_17h22.48.389,jpn_C01,2022.1.2,MacIntel,60.0024001,,,space,1.6824,0,3,3,12,1,トマ　ピク　シド　ホレト,,,CartoonStims/artist_point_chef_r_no.jpg,audio/tomapikusidohoreto.mp3,,,,,,,,,,,,,,,,,,,,,,,,,,,,,,,,,,,,,,,,,,,,,,,,,,,,,,,,,,,,,,,,,,,,,
,,,,,,,,,R_3W1yaIlpiSWivzX,2022-06-27_17h22.48.389,jpn_C01,2022.1.2,MacIntel,60.0024001,,,space,3.172,0,4,4,23,1,ピク　トマ　ドキ　ホレト,,,CartoonStims/boxer_point_chef_r_no.jpg,audio/pikutomadokihoreto.mp3,,,,,,,,,,,,,,,,,,,,,,,,,,,,,,,,,,,,,,,,,,,,,,,,,,,,,,,,,,,,,,,,,,,,,
,,,,,,,,,R_3W1yaIlpiSWivzX,2022-06-27_17h22.48.389,jpn_C01,2022.1.2,MacIntel,60.0024001,,,space,3.2387,0,5,5,10,1,ピク　セル　ドキ　シド,,,CartoonStims/boxer_kick_artist_r_no.jpg,audio/pikuserudokisido.mp3,,,,,,,,,,,,,,,,,,,,,,,,,,,,,,,,,,,,,,,,,,,,,,,,,,,,,,,,,,,,,,,,,,,,,
,,,,,,,,,R_3W1yaIlpiSWivzX,2022-06-27_17h22.48.389,jpn_C01,2022.1.2,MacIntel,60.0024001,,,space,2.822,0,6,6,32,1,パツ　ピク　ピポ　ルピン,,,CartoonStims/doctor_shoot_burglar_r_no.jpg,audio/patsupikupipolupin.mp3,,,,,,,,,,,,,,,,,,,,,,,,,,,,,,,,,,,,,,,,,,,,,,,,,,,,,,,,,,,,,,,,,,,,,
,,,,,,,,,R_3W1yaIlpiSWivzX,2022-06-27_17h22.48.389,jpn_C01,2022.1.2,MacIntel,60.0024001,,,space,2.0397,0,7,7,36,1,ピク　プミ　シド　ピポ,,,CartoonStims/artist_punch_doctor_r_no.jpg,audio/pikupumisidopipo.mp3,,,,,,,,,,,,,,,,,,,,,,,,,,,,,,,,,,,,,,,,,,,,,,,,,,,,,,,,,,,,,,,,,,,,,
,,,,,,,,,R_3W1yaIlpiSWivzX,2022-06-27_17h22.48.389,jpn_C01,2022.1.2,MacIntel,60.0024001,,,space,2.5312,0,8,8,29,1,ピク　パツ　ホレト　シド,,,CartoonStims/chef_shoot_artist_r_no.jpg,audio/pikupatsuhoretosido.mp3,,,,,,,,,,,,,,,,,,,,,,,,,,,,,,,,,,,,,,,,,,,,,,,,,,,,,,,,,,,,,,,,,,,,,
,,,,,,,,,R_3W1yaIlpiSWivzX,2022-06-27_17h22.48.389,jpn_C01,2022.1.2,MacIntel,60.0024001,,,space,1.5892,0,9,9,20,1,トマ　ピク　ピポ　シド,,,CartoonStims/doctor_point_artist_r_no.jpg,audio/tomapikupiposido.mp3,,,,,,,,,,,,,,,,,,,,,,,,,,,,,,,,,,,,,,,,,,,,,,,,,,,,,,,,,,,,,,,,,,,,,
,,,,,,,,,R_3W1yaIlpiSWivzX,2022-06-27_17h22.48.389,jpn_C01,2022.1.2,MacIntel,60.0024001,,,space,2.3522,0,10,10,44,1,ピク　プミ　ピポ　ホレト,,,CartoonStims/doctor_punch_chef_r_no.jpg,audio/pikupumipipohoreto.mp3,,,,,,,,,,,,,,,,,,,,,,,,,,,,,,,,,,,,,,,,,,,,,,,,,,,,,,,,,,,,,,,,,,,,,
,,,,,,,,,R_3W1yaIlpiSWivzX,2022-06-27_17h22.48.389,jpn_C01,2022.1.2,MacIntel,60.0024001,,,space,1.4871,0,11,11,25,1,ピク　パツ　シド　ピポ,,,CartoonStims/artist_shoot_doctor_r_no.jpg,audio/pikupatsusidopipo.mp3,,,,,,,,,,,,,,,,,,,,,,,,,,,,,,,,,,,,,,,,,,,,,,,,,,,,,,,,,,,,,,,,,,,,,
,,,,,,,,,R_3W1yaIlpiSWivzX,2022-06-27_17h22.48.389,jpn_C01,2022.1.2,MacIntel,60.0024001,,,space,1.0945,0,12,12,3,1,セル　ピク　ルピン　ムク,,,CartoonStims/burglar_kick_cowboy_r_no.jpg,audio/serupikulupinmuku.mp3,,,,,,,,,,,,,,,,,,,,,,,,,,,,,,,,,,,,,,,,,,,,,,,,,,,,,,,,,,,,,,,,,,,,,
,,,,,,,,,R_3W1yaIlpiSWivzX,2022-06-27_17h22.48.389,jpn_C01,2022.1.2,MacIntel,60.0024001,,,space,3.4757,0,13,13,47,1,プミ　ピク　ドキ　ピポ,,,CartoonStims/boxer_punch_doctor_r_no.jpg,audio/pumipikudokipipo.mp3,,,,,,,,,,,,,,,,,,,,,,,,,,,,,,,,,,,,,,,,,,,,,,,,,,,,,,,,,,,,,,,,,,,,,
,,,,,,,,,R_3W1yaIlpiSWivzX,2022-06-27_17h22.48.389,jpn_C01,2022.1.2,MacIntel,60.0024001,,,space,1.7055,0,14,14,0,1,ピク　セル　シド　ルピン,,,CartoonStims/artist_kick_burglar_r_no.jpg,audio/pikuserusidolupin.mp3,,,,,,,,,,,,,,,,,,,,,,,,,,,,,,,,,,,,,,,,,,,,,,,,,,,,,,,,,,,,,,,,,,,,,
,,,,,,,,,R_3W1yaIlpiSWivzX,2022-06-27_17h22.48.389,jpn_C01,2022.1.2,MacIntel,60.0024001,,,space,2.3477,0,15,15,46,1,ピク　プミ　ドキ　ムク,,,CartoonStims/boxer_punch_cowboy_r_no.jpg,audio/pikupumidokimuku.mp3,,,,,,,,,,,,,,,,,,,,,,,,,,,,,,,,,,,,,,,,,,,,,,,,,,,,,,,,,,,,,,,,,,,,,
,,,,,,,,,R_3W1yaIlpiSWivzX,2022-06-27_17h22.48.389,jpn_C01,2022.1.2,MacIntel,60.0024001,,,space,2.6519,0,16,16,9,1,セル　ピク　ピポ　シド,,,CartoonStims/doctor_kick_artist_r_no.jpg,audio/serupikupiposido.mp3,,,,,,,,,,,,,,,,,,,,,,,,,,,,,,,,,,,,,,,,,,,,,,,,,,,,,,,,,,,,,,,,,,,,,
,,,,,,,,,R_3W1yaIlpiSWivzX,2022-06-27_17h22.48.389,jpn_C01,2022.1.2,MacIntel,60.0024001,,,space,1.7207,0,17,17,22,1,トマ　ピク　ドキ　ルピン,,,CartoonStims/boxer_point_burglar_r_no.jpg,audio/tomapikudokilupin.mp3,,,,,,,,,,,,,,,,,,,,,,,,,,,,,,,,,,,,,,,,,,,,,,,,,,,,,,,,,,,,,,,,,,,,,
,,,,,,,,,R_3W1yaIlpiSWivzX,2022-06-27_17h22.48.389,jpn_C01,2022.1.2,MacIntel,60.0024001,,,space,3.9523,0,18,18,8,1,ピク　セル　ピポ　ドキ,,,CartoonStims/doctor_kick_boxer_r_no.jpg,audio/pikuserupipodoki.mp3,,,,,,,,,,,,,,,,,,,,,,,,,,,,,,,,,,,,,,,,,,,,,,,,,,,,,,,,,,,,,,,,,,,,,
,,,,,,,,,R_3W1yaIlpiSWivzX,2022-06-27_17h22.48.389,jpn_C01,2022.1.2,MacIntel,60.0024001,,,space,3.6015,0,19,19,13,1,ピク　トマ　シド　ムク,,,CartoonStims/artist_point_cowboy_r_no.jpg,audio/pikutomasidomuku.mp3,,,,,,,,,,,,,,,,,,,,,,,,,,,,,,,,,,,,,,,,,,,,,,,,,,,,,,,,,,,,,,,,,,,,,
,,,,,,,,,R_3W1yaIlpiSWivzX,2022-06-27_17h22.48.389,jpn_C01,2022.1.2,MacIntel,60.0024001,,,space,2.2719,0,20,20,11,1,セル　ピク　ドキ　ルピン,,,CartoonStims/boxer_kick_burglar_r_no.jpg,audio/serupikudokilupin.mp3,,,,,,,,,,,,,,,,,,,,,,,,,,,,,,,,,,,,,,,,,,,,,,,,,,,,,,,,,,,,,,,,,,,,,
,,,,,,,,,R_3W1yaIlpiSWivzX,2022-06-27_17h22.48.389,jpn_C01,2022.1.2,MacIntel,60.0024001,,,space,1.5176,0,21,21,16,1,トマ　ピク　ホレト　ピポ,,,CartoonStims/chef_point_doctor_r_no.jpg,audio/tomapikuhoretopipo.mp3,,,,,,,,,,,,,,,,,,,,,,,,,,,,,,,,,,,,,,,,,,,,,,,,,,,,,,,,,,,,,,,,,,,,,
,,,,,,,,,R_3W1yaIlpiSWivzX,2022-06-27_17h22.48.389,jpn_C01,2022.1.2,MacIntel,60.0024001,,,space,3.7515,0,22,22,2,1,ピク　セル　ルピン　ホレト,,,CartoonStims/burglar_kick_chef_r_no.jpg,audio/pikuserulupinhoreto.mp3,,,,,,,,,,,,,,,,,,,,,,,,,,,,,,,,,,,,,,,,,,,,,,,,,,,,,,,,,,,,,,,,,,,,,
,,,,,,,,,R_3W1yaIlpiSWivzX,2022-06-27_17h22.48.389,jpn_C01,2022.1.2,MacIntel,60.0024001,,,space,4.4426,0,23,23,35,1,ピク　パツ　ドキ　ムク,,,CartoonStims/boxer_shoot_cowboy_r_no.jpg,audio/pikupatsudokimuku.mp3,,,,,,,,,,,,,,,,,,,,,,,,,,,,,,,,,,,,,,,,,,,,,,,,,,,,,,,,,,,,,,,,,,,,,
,,,,,,,,,R_3W1yaIlpiSWivzX,2022-06-27_17h22.48.389,jpn_C01,2022.1.2,MacIntel,60.0024001,,,space,3.7944,0,24,24,28,1,パツ　ピク　ホレト　ドキ,,,CartoonStims/chef_shoot_boxer_r_no.jpg,audio/patsupikuhoretodoki.mp3,,,,,,,,,,,,,,,,,,,,,,,,,,,,,,,,,,,,,,,,,,,,,,,,,,,,,,,,,,,,,,,,,,,,,
,,,,,,,,,R_3W1yaIlpiSWivzX,2022-06-27_17h22.48.389,jpn_C01,2022.1.2,MacIntel,60.0024001,,,space,4.7897,0,25,25,4,1,ピク　セル　ホレト　ムク,,,CartoonStims/chef_kick_cowboy_r_no.jpg,audio/pikuseruhoretomuku.mp3,,,,,,,,,,,,,,,,,,,,,,,,,,,,,,,,,,,,,,,,,,,,,,,,,,,,,,,,,,,,,,,,,,,,,
,,,,,,,,,R_3W1yaIlpiSWivzX,2022-06-27_17h22.48.389,jpn_C01,2022.1.2,MacIntel,60.0024001,,,space,2.1876,0,26,26,6,1,ピク　セル　ムク　ピポ,,,CartoonStims/cowboy_kick_doctor_r_no.jpg,audio/pikuserumukupipo.mp3,,,,,,,,,,,,,,,,,,,,,,,,,,,,,,,,,,,,,,,,,,,,,,,,,,,,,,,,,,,,,,,,,,,,,
,,,,,,,,,R_3W1yaIlpiSWivzX,2022-06-27_17h22.48.389,jpn_C01,2022.1.2,MacIntel,60.0024001,,,space,1.5798,0,27,27,19,1,ピク　トマ　ムク　シド,,,CartoonStims/cowboy_point_artist_r_no.jpg,audio/pikutomamukusido.mp3,,,,,,,,,,,,,,,,,,,,,,,,,,,,,,,,,,,,,,,,,,,,,,,,,,,,,,,,,,,,,,,,,,,,,
,,,,,,,,,R_3W1yaIlpiSWivzX,2022-06-27_17h22.48.389,jpn_C01,2022.1.2,MacIntel,60.0024001,,,space,4.8215,0,28,28,21,1,ピク　トマ　ピポ　ルピン,,,CartoonStims/doctor_point_burglar_r_no.jpg,audio/pikutomapipolupin.mp3,,,,,,,,,,,,,,,,,,,,,,,,,,,,,,,,,,,,,,,,,,,,,,,,,,,,,,,,,,,,,,,,,,,,,
,,,,,,,,,R_3W1yaIlpiSWivzX,2022-06-27_17h22.48.389,jpn_C01,2022.1.2,MacIntel,60.0024001,,,space,4.2019,0,29,29,18,1,トマ　ピク　ムク　ドキ,,,CartoonStims/cowboy_point_boxer_r_no.jpg,audio/tomapikumukudoki.mp3,,,,,,,,,,,,,,,,,,,,,,,,,,,,,,,,,,,,,,,,,,,,,,,,,,,,,,,,,,,,,,,,,,,,,
,,,,,,,,,R_3W1yaIlpiSWivzX,2022-06-27_17h22.48.389,jpn_C01,2022.1.2,MacIntel,60.0024001,,,space,7.5839,0,30,30,45,1,プミ　ピク　ピポ　ムク,,,CartoonStims/doctor_punch_cowboy_r_no.jpg,audio/pumipikupipomuku.mp3,,,,,,,,,,,,,,,,,,,,,,,,,,,,,,,,,,,,,,,,,,,,,,,,,,,,,,,,,,,,,,,,,,,,,
,,,,,,,,,R_3W1yaIlpiSWivzX,2022-06-27_17h22.48.389,jpn_C01,2022.1.2,MacIntel,60.0024001,,,space,2.0368,0,31,31,1,1,セル　ピク　シド　ホレト,,,CartoonStims/artist_kick_chef_r_no.jpg,audio/serupikusidohoreto.mp3,,,,,,,,,,,,,,,,,,,,,,,,,,,,,,,,,,,,,,,,,,,,,,,,,,,,,,,,,,,,,,,,,,,,,
,,,,,,,,,R_3W1yaIlpiSWivzX,2022-06-27_17h22.48.389,jpn_C01,2022.1.2,MacIntel,60.0024001,,,space,2.0828,0,32,32,27,1,ピク　パツ　ルピン　ドキ,,,CartoonStims/burglar_shoot_boxer_r_no.jpg,audio/pikupatsulupindoki.mp3,,,,,,,,,,,,,,,,,,,,,,,,,,,,,,,,,,,,,,,,,,,,,,,,,,,,,,,,,,,,,,,,,,,,,
,,,,,,,,,R_3W1yaIlpiSWivzX,2022-06-27_17h22.48.389,jpn_C01,2022.1.2,MacIntel,60.0024001,,,space,1.4557,0,33,33,5,1,セル　ピク　ホレト　ピポ,,,CartoonStims/chef_kick_doctor_r_no.jpg,audio/serupikuhoretopipo.mp3,,,,,,,,,,,,,,,,,,,,,,,,,,,,,,,,,,,,,,,,,,,,,,,,,,,,,,,,,,,,,,,,,,,,,
,,,,,,,,,R_3W1yaIlpiSWivzX,2022-06-27_17h22.48.389,jpn_C01,2022.1.2,MacIntel,60.0024001,,,space,2.6763,0,34,34,42,1,ピク　プミ　ムク　ルピン,,,CartoonStims/cowboy_punch_burglar_r_no.jpg,audio/pikupumimukulupin.mp3,,,,,,,,,,,,,,,,,,,,,,,,,,,,,,,,,,,,,,,,,,,,,,,,,,,,,,,,,,,,,,,,,,,,,
,,,,,,,,,R_3W1yaIlpiSWivzX,2022-06-27_17h22.48.389,jpn_C01,2022.1.2,MacIntel,60.0024001,,,space,0.9774,0,35,35,43,1,プミ　ピク　ムク　ホレト,,,CartoonStims/cowboy_punch_chef_r_no.jpg,audio/pumipikumukuhoreto.mp3,,,,,,,,,,,,,,,,,,,,,,,,,,,,,,,,,,,,,,,,,,,,,,,,,,,,,,,,,,,,,,,,,,,,,
,,,,,,,,,R_3W1yaIlpiSWivzX,2022-06-27_17h22.48.389,jpn_C01,2022.1.2,MacIntel,60.0024001,,,space,2.3057,0,36,36,38,1,ピク　プミ　ルピン　ドキ,,,CartoonStims/burglar_punch_boxer_r_no.jpg,audio/pikupumilupindoki.mp3,,,,,,,,,,,,,,,,,,,,,,,,,,,,,,,,,,,,,,,,,,,,,,,,,,,,,,,,,,,,,,,,,,,,,
,,,,,,,,,R_3W1yaIlpiSWivzX,2022-06-27_17h22.48.389,jpn_C01,2022.1.2,MacIntel,60.0024001,,,space,1.5374,0,37,37,34,1,パツ　ピク　ドキ　ホレト,,,CartoonStims/boxer_shoot_chef_r_no.jpg,audio/patsupikudokihoreto.mp3,,,,,,,,,,,,,,,,,,,,,,,,,,,,,,,,,,,,,,,,,,,,,,,,,,,,,,,,,,,,,,,,,,,,,
,,,,,,,,,R_3W1yaIlpiSWivzX,2022-06-27_17h22.48.389,jpn_C01,2022.1.2,MacIntel,60.0024001,,,space,2.604,0,38,38,41,1,プミ　ピク　ホレト　ルピン,,,CartoonStims/chef_punch_burglar_r_no.jpg,audio/pumipikuhoretolupin.mp3,,,,,,,,,,,,,,,,,,,,,,,,,,,,,,,,,,,,,,,,,,,,,,,,,,,,,,,,,,,,,,,,,,,,,
,,,,,,,,,R_3W1yaIlpiSWivzX,2022-06-27_17h22.48.389,jpn_C01,2022.1.2,MacIntel,60.0024001,,,space,4.0018,0,39,39,15,1,ピク　トマ　ルピン　ピポ,,,CartoonStims/burglar_point_doctor_r_no.jpg,audio/pikutomalupinpipo.mp3,,,,,,,,,,,,,,,,,,,,,,,,,,,,,,,,,,,,,,,,,,,,,,,,,,,,,,,,,,,,,,,,,,,,,
,,,,,,,,,R_3W1yaIlpiSWivzX,2022-06-27_17h22.48.389,jpn_C01,2022.1.2,MacIntel,60.0024001,,,space,1.5846,0,40,40,24,1,パツ　ピク　シド　ムク,,,CartoonStims/artist_shoot_cowboy_r_no.jpg,audio/patsupikusidomuku.mp3,,,,,,,,,,,,,,,,,,,,,,,,,,,,,,,,,,,,,,,,,,,,,,,,,,,,,,,,,,,,,,,,,,,,,
,,,,,,,,,R_3W1yaIlpiSWivzX,2022-06-27_17h22.48.389,jpn_C01,2022.1.2,MacIntel,60.0024001,,,space,1.4368,0,41,41,17,1,ピク　トマ　ホレト　ドキ,,,CartoonStims/chef_point_boxer_r_no.jpg,audio/pikutomahoretodoki.mp3,,,,,,,,,,,,,,,,,,,,,,,,,,,,,,,,,,,,,,,,,,,,,,,,,,,,,,,,,,,,,,,,,,,,,
,,,,,,,,,R_3W1yaIlpiSWivzX,2022-06-27_17h22.48.389,jpn_C01,2022.1.2,MacIntel,60.0024001,,,space,1.338,0,42,42,14,1,トマ　ピク　ルピン　ムク,,,CartoonStims/burglar_point_cowboy_r_no.jpg,audio/tomapikulupinmuku.mp3,,,,,,,,,,,,,,,,,,,,,,,,,,,,,,,,,,,,,,,,,,,,,,,,,,,,,,,,,,,,,,,,,,,,,
,,,,,,,,,R_3W1yaIlpiSWivzX,2022-06-27_17h22.48.389,jpn_C01,2022.1.2,MacIntel,60.0024001,,,space,2.6552,0,43,43,39,1,プミ　ピク　ルピン　シド,,,CartoonStims/burglar_punch_artist_r_no.jpg,audio/pumipikulupinsido.mp3,,,,,,,,,,,,,,,,,,,,,,,,,,,,,,,,,,,,,,,,,,,,,,,,,,,,,,,,,,,,,,,,,,,,,
,,,,,,,,,R_3W1yaIlpiSWivzX,2022-06-27_17h22.48.389,jpn_C01,2022.1.2,MacIntel,60.0024001,,,space,2.9096,0,44,44,33,1,ピク　パツ　ピポ　ホレト,,,CartoonStims/doctor_shoot_chef_r_no.jpg,audio/pikupatsupipohoreto.mp3,,,,,,,,,,,,,,,,,,,,,,,,,,,,,,,,,,,,,,,,,,,,,,,,,,,,,,,,,,,,,,,,,,,,,
,,,,,,,,,R_3W1yaIlpiSWivzX,2022-06-27_17h22.48.389,jpn_C01,2022.1.2,MacIntel,60.0024001,,,space,1.7577,0,45,45,40,1,ピク　プミ　ホレト　シド,,,CartoonStims/chef_punch_artist_r_no.jpg,audio/pikupumihoretosido.mp3,,,,,,,,,,,,,,,,,,,,,,,,,,,,,,,,,,,,,,,,,,,,,,,,,,,,,,,,,,,,,,,,,,,,,
,,,,,,,,,R_3W1yaIlpiSWivzX,2022-06-27_17h22.48.389,jpn_C01,2022.1.2,MacIntel,60.0024001,,,space,2.069,0,46,46,31,1,ピク　パツ　ムク　ルピン,,,CartoonStims/cowboy_shoot_burglar_r_no.jpg,audio/pikupatsumukulupin.mp3,,,,,,,,,,,,,,,,,,,,,,,,,,,,,,,,,,,,,,,,,,,,,,,,,,,,,,,,,,,,,,,,,,,,,
,,,,,,,,,R_3W1yaIlpiSWivzX,2022-06-27_17h22.48.389,jpn_C01,2022.1.2,MacIntel,60.0024001,,,space,1.8859,0,47,47,37,1,プミ　ピク　シド　ドキ,,,CartoonStims/artist_punch_boxer_r_no.jpg,audio/pumipikusidodoki.mp3,,,,,,,,,,,,,,,,,,,,,,,,,,,,,,,,,,,,,,,,,,,,,,,,,,,,,,,,,,,,,,,,,,,,,
,,,,,,,,,R_3W1yaIlpiSWivzX,2022-06-27_17h22.48.389,jpn_C01,2022.1.2,MacIntel,60.0024001,,,,,,,,,,,,,,,space,0.0139,right,0,3.6751,,,,,,,,,,,,,,,,,,,,,,,,,,,,,,,,,,,,,,,,,,,,,,,,,,,,,,,,,0,0,0,0,1,,,
,,,,,,,,,R_3W1yaIlpiSWivzX,2022-06-27_17h22.48.389,jpn_C01,2022.1.2,MacIntel,60.0024001,,,,,,,,,,,,,,,,,,,,,,,,,0,0,0,6,1,CartoonStims/artist_shoot_boxer_r.jpg,トマ　ピク　シド　ドキ,CartoonStims/artist_point_boxer_r.jpg,left,CartoonStims/artist_shoot_boxer_r.jpg,audio/tomapikusidodoki.mp3,"残念！ こちらが正しい画像です。

否定文は起きていないことを示しているのを思い出してください。",,,,,,,,,,,,,,,,,,,,,,,,,,,,,,,,,,,,,,,,,,,,,,,
,,,,,,,,,R_3W1yaIlpiSWivzX,2022-06-27_17h22.48.389,jpn_C01,2022.1.2,MacIntel,60.0024001,,,,,,,,,,,,,,,,,left,1,6.2544,0,0,0,0,1,,,,,,,,,,,,,,,,,,,,,,,,,,,,,,,,,,,,,,,,,,,,,,,,,,,,,,,,,,,
,,,,,,,,,R_3W1yaIlpiSWivzX,2022-06-27_17h22.48.389,jpn_C01,2022.1.2,MacIntel,60.0024001,,,,,,,,,,,,,,,,,,,,,,,,,0,1,1,0,1,CartoonStims/artist_shoot_burglar_r.jpg,ピク　プミ　シド　ルピン,CartoonStims/artist_punch_burglar_r.jpg,left,CartoonStims/artist_shoot_burglar_r.jpg,audio/pikupumisidolupin.mp3,"残念！ こちらが正しい画像です。

否定文は起きていないことを示しているのを思い出してください。",,,,,,,,,,,,,,,,,,,,,,,,,,,,,,,,,,,,,,,,,,,,,,,
,,,,,,,,,R_3W1yaIlpiSWivzX,2022-06-27_17h22.48.389,jpn_C01,2022.1.2,MacIntel,60.0024001,,,,,,,,,,,,,,,,,left,1,4.5709,0,0,0,0,1,,,,,,,,,,,,,,,,,,,,,,,,,,,,,,,,,,,,,,,,,,,,,,,,,,,,,,,,,,,
,,,,,,,,,R_3W1yaIlpiSWivzX,2022-06-27_17h22.48.389,jpn_C01,2022.1.2,MacIntel,60.0024001,,,,,,,,,,,,,,,,,,,,,,,,,0,2,2,2,1,CartoonStims/doctor_point_boxer_r.jpg,ピク　プミ　ピポ　ドキ,CartoonStims/doctor_punch_boxer_r.jpg,left,CartoonStims/doctor_point_boxer_r.jpg,audio/pikupumipipodoki.mp3,"残念！ こちらが正しい画像です。

否定文は起きていないことを示しているのを思い出してください。",,,,,,,,,,,,,,,,,,,,,,,,,,,,,,,,,,,,,,,,,,,,,,,
,,,,,,,,,R_3W1yaIlpiSWivzX,2022-06-27_17h22.48.389,jpn_C01,2022.1.2,MacIntel,60.0024001,,,,,,,,,,,,,,,,,right,1,2.938,,,,,,,,,,,,,,,,,,0,0,0,0,1,,,,,,,,,,,,,,,,,,,,,,,,,,,,,,,,,,,,,,,,,,
,,,,,,,,,R_3W1yaIlpiSWivzX,2022-06-27_17h22.48.389,jpn_C01,2022.1.2,MacIntel,60.0024001,,,,,,,,,,,,,,,,,,,,,,,,,0,3,3,3,1,CartoonStims/chef_kick_artist_r.jpg,ピク　セル　ホレト　シド,CartoonStims/chef_point_artist_r.jpg,right,CartoonStims/chef_point_artist_r.jpg,audio/pikuseruhoretosido.mp3,"残念！ こちらが正しい画像です。

否定文は起きていないことを示しているのを思い出してください。",,,,,,,,,,,,,,,,,,,,,,,,,,,,,,,,,,,,,,,,,,,,,,,
,,,,,,,,,R_3W1yaIlpiSWivzX,2022-06-27_17h22.48.389,jpn_C01,2022.1.2,MacIntel,60.0024001,,,,,,,,,,,,,,,,,left,1,3.2714,0,0,0,0,1,,,,,,,,,,,,,,,,,,,,,,,,,,,,,,,,,,,,,,,,,,,,,,,,,,,,,,,,,,,
,,,,,,,,,R_3W1yaIlpiSWivzX,2022-06-27_17h22.48.389,jpn_C01,2022.1.2,MacIntel,60.0024001,,,,,,,,,,,,,,,,,,,,,,,,,0,4,4,8,1,CartoonStims/burglar_punch_artist_r.jpg,トマ　ピク　ルピン　シド,CartoonStims/burglar_point_artist_r.jpg,left,CartoonStims/burglar_punch_artist_r.jpg,audio/tomapikulupinsido.mp3,"残念！ こちらが正しい画像です。

否定文は起きていないことを示しているのを思い出してください。",,,,,,,,,,,,,,,,,,,,,,,,,,,,,,,,,,,,,,,,,,,,,,,
,,,,,,,,,R_3W1yaIlpiSWivzX,2022-06-27_17h22.48.389,jpn_C01,2022.1.2,MacIntel,60.0024001,,,,,,,,,,,,,,,,,right,1,2.9708,,,,,,,,,,,,,,,,,,0,0,0,0,1,,,,,,,,,,,,,,,,,,,,,,,,,,,,,,,,,,,,,,,,,,
,,,,,,,,,R_3W1yaIlpiSWivzX,2022-06-27_17h22.48.389,jpn_C01,2022.1.2,MacIntel,60.0024001,,,,,,,,,,,,,,,,,,,,,,,,,0,5,5,7,1,CartoonStims/cowboy_point_chef_r.jpg,ピク　トマ　ムク　ホレト,CartoonStims/cowboy_kick_chef_r.jpg,right,CartoonStims/cowboy_kick_chef_r.jpg,audio/pikutomamukuhoreto.mp3,"残念！ こちらが正しい画像です。

否定文は起きていないことを示しているのを思い出してください。",,,,,,,,,,,,,,,,,,,,,,,,,,,,,,,,,,,,,,,,,,,,,,,
,,,,,,,,,R_3W1yaIlpiSWivzX,2022-06-27_17h22.48.389,jpn_C01,2022.1.2,MacIntel,60.0024001,,,,,,,,,,,,,,,,,right,1,0.8385,,,,,,,,,,,,,,,,,,0,0,0,0,1,,,,,,,,,,,,,,,,,,,,,,,,,,,,,,,,,,,,,,,,,,
,,,,,,,,,R_3W1yaIlpiSWivzX,2022-06-27_17h22.48.389,jpn_C01,2022.1.2,MacIntel,60.0024001,,,,,,,,,,,,,,,,,,,,,,,,,0,6,6,9,1,CartoonStims/boxer_shoot_doctor_r.jpg,パツ　ピク　ドキ　ピポ,CartoonStims/boxer_point_doctor_r.jpg,right,CartoonStims/boxer_point_doctor_r.jpg,audio/patsupikudokipipo.mp3,"残念！ こちらが正しい画像です。

否定文は起きていないことを示しているのを思い出してください。",,,,,,,,,,,,,,,,,,,,,,,,,,,,,,,,,,,,,,,,,,,,,,,
,,,,,,,,,R_3W1yaIlpiSWivzX,2022-06-27_17h22.48.389,jpn_C01,2022.1.2,MacIntel,60.0024001,,,,,,,,,,,,,,,,,right,1,4.1027,,,,,,,,,,,,,,,,,,0,0,0,0,1,,,,,,,,,,,,,,,,,,,,,,,,,,,,,,,,,,,,,,,,,,
,,,,,,,,,R_3W1yaIlpiSWivzX,2022-06-27_17h22.48.389,jpn_C01,2022.1.2,MacIntel,60.0024001,,,,,,,,,,,,,,,,,,,,,,,,,0,7,7,11,1,CartoonStims/chef_shoot_burglar_r.jpg,パツ　ピク　ホレト　ルピン,CartoonStims/chef_kick_burglar_r.jpg,right,CartoonStims/chef_kick_burglar_r.jpg,audio/patsupikuhoretolupin.mp3,"残念！ こちらが正しい画像です。

否定文は起きていないことを示しているのを思い出してください。",,,,,,,,,,,,,,,,,,,,,,,,,,,,,,,,,,,,,,,,,,,,,,,
,,,,,,,,,R_3W1yaIlpiSWivzX,2022-06-27_17h22.48.389,jpn_C01,2022.1.2,MacIntel,60.0024001,,,,,,,,,,,,,,,,,left,1,2.4215,0,0,0,0,1,,,,,,,,,,,,,,,,,,,,,,,,,,,,,,,,,,,,,,,,,,,,,,,,,,,,,,,,,,,
,,,,,,,,,R_3W1yaIlpiSWivzX,2022-06-27_17h22.48.389,jpn_C01,2022.1.2,MacIntel,60.0024001,,,,,,,,,,,,,,,,,,,,,,,,,0,8,8,4,1,CartoonStims/burglar_shoot_doctor_r.jpg,セル　ピク　ルピン　ピポ,CartoonStims/burglar_kick_doctor_r.jpg,left,CartoonStims/burglar_shoot_doctor_r.jpg,audio/serupikulupinpipo.mp3,"残念！ こちらが正しい画像です。

否定文は起きていないことを示しているのを思い出してください。",,,,,,,,,,,,,,,,,,,,,,,,,,,,,,,,,,,,,,,,,,,,,,,
,,,,,,,,,R_3W1yaIlpiSWivzX,2022-06-27_17h22.48.389,jpn_C01,2022.1.2,MacIntel,60.0024001,,,,,,,,,,,,,,,,,right,1,2.9346,,,,,,,,,,,,,,,,,,0,0,0,0,1,,,,,,,,,,,,,,,,,,,,,,,,,,,,,,,,,,,,,,,,,,
,,,,,,,,,R_3W1yaIlpiSWivzX,2022-06-27_17h22.48.389,jpn_C01,2022.1.2,MacIntel,60.0024001,,,,,,,,,,,,,,,,,,,,,,,,,0,9,9,5,1,CartoonStims/boxer_kick_cowboy_r.jpg,ピク　セル　ドキ　ムク,CartoonStims/boxer_punch_cowboy_r.jpg,right,CartoonStims/boxer_punch_cowboy_r.jpg,audio/pikuserudokimuku.mp3,"残念！ こちらが正しい画像です。

否定文は起きていないことを示しているのを思い出してください。",,,,,,,,,,,,,,,,,,,,,,,,,,,,,,,,,,,,,,,,,,,,,,,
,,,,,,,,,R_3W1yaIlpiSWivzX,2022-06-27_17h22.48.389,jpn_C01,2022.1.2,MacIntel,60.0024001,,,,,,,,,,,,,,,,,right,1,4.7711,,,,,,,,,,,,,,,,,,0,0,0,0,1,,,,,,,,,,,,,,,,,,,,,,,,,,,,,,,,,,,,,,,,,,
,,,,,,,,,R_3W1yaIlpiSWivzX,2022-06-27_17h22.48.389,jpn_C01,2022.1.2,MacIntel,60.0024001,,,,,,,,,,,,,,,,,,,,,,,,,0,10,10,1,1,CartoonStims/chef_punch_cowboy_r.jpg,プミ　ピク　ホレト　ムク,CartoonStims/chef_kick_cowboy_r.jpg,right,CartoonStims/chef_kick_cowboy_r.jpg,audio/pumipikuhoretomuku.mp3,"残念！ こちらが正しい画像です。

否定文は起きていないことを示しているのを思い出してください。",,,,,,,,,,,,,,,,,,,,,,,,,,,,,,,,,,,,,,,,,,,,,,,
,,,,,,,,,R_3W1yaIlpiSWivzX,2022-06-27_17h22.48.389,jpn_C01,2022.1.2,MacIntel,60.0024001,,,,,,,,,,,,,,,,,left,1,1.1039,0,0,0,0,1,,,,,,,,,,,,,,,,,,,,,,,,,,,,,,,,,,,,,,,,,,,,,,,,,,,,,,,,,,,
,,,,,,,,,R_3W1yaIlpiSWivzX,2022-06-27_17h22.48.389,jpn_C01,2022.1.2,MacIntel,60.0024001,,,,,,,,,,,,,,,,,,,,,,,,,0,11,11,10,1,CartoonStims/doctor_punch_cowboy_r.jpg,ピク　パツ　ピポ　ムク,CartoonStims/doctor_shoot_cowboy_r.jpg,left,CartoonStims/doctor_punch_cowboy_r.jpg,audio/pikupatsupipomuku.mp3,"残念！ こちらが正しい画像です。

否定文は起きていないことを示しているのを思い出してください。",,,,,,,,,,,,,,,,,,,,,,,,,,,,,,,,,,,,,,,,,,,,,,,
,,,,,,,,,R_3W1yaIlpiSWivzX,2022-06-27_17h22.48.389,jpn_C01,2022.1.2,MacIntel,60.0024001,,,,,,,,,,,,,CartoonStims/cowboy_point_doctor_r_no.jpg,,,,,,,,,,,,,,,,,,,,,,,,,,,,,space,2.5553,ピク　トマ　シド　ピポ,right,34.9775,,,,,,0,0,0,9,1,,,,,,,,,,,,,,,,,,,,,,,,,ピク　トマ　ムク　ピポ,トマ　ピク　ムク　ピポ,1
,,,,,,,,,R_3W1yaIlpiSWivzX,2022-06-27_17h22.48.389,jpn_C01,2022.1.2,MacIntel,60.0024001,,,,,,,,,,,,,CartoonStims/artist_point_burglar_r_no.jpg,,,,,,,,,,,,,,,,,,,,,,,,,,,,,,,ピク　トマ　シド　ルピン,right,15.7293,,,,,,0,1,1,6,1,,,,,,,,,,,,,,,,,,,,,,,,,ピク　トマ　シド　ルピン,トマ　ピク　シド　ルピン,1
,,,,,,,,,R_3W1yaIlpiSWivzX,2022-06-27_17h22.48.389,jpn_C01,2022.1.2,MacIntel,60.0024001,,,,,,,,,,,,,CartoonStims/chef_point_cowboy_r_no.jpg,,,,,,,,,,,,,,,,,,,,,,,,,,,,,,,ピク　トマ　ホレト　シド,right,17.7295,,,,,,0,2,2,8,1,,,,,,,,,,,,,,,,,,,,,,,,,ピク　トマ　ホレト　ムク,トマ　ピク　ホレト　ムク,1
,,,,,,,,,R_3W1yaIlpiSWivzX,2022-06-27_17h22.48.389,jpn_C01,2022.1.2,MacIntel,60.0024001,,,,,,,,,,,,,CartoonStims/chef_shoot_doctor_r_no.jpg,,,,,,,,,,,,,,,,,,,,,,,,,,,,,,,ピク　パツ　ホレト　ピポ,right,28.9946,,,,,,0,3,3,14,1,,,,,,,,,,,,,,,,,,,,,,,,,ピク　パツ　ホレト　ピポ,パツ　ピク　ホレト　ピポ,1
,,,,,,,,,R_3W1yaIlpiSWivzX,2022-06-27_17h22.48.389,jpn_C01,2022.1.2,MacIntel,60.0024001,,,,,,,,,,,,,CartoonStims/burglar_kick_artist_r_no.jpg,,,,,,,,,,,,,,,,,,,,,,,,,,,,,,,ピク　セル　ルピン　ムク,right,27.8288,,,,,,0,4,4,1,1,,,,,,,,,,,,,,,,,,,,,,,,,ピク　セル　ルピン　シド,セル　ピク　ルピン　シド,1
,,,,,,,,,R_3W1yaIlpiSWivzX,2022-06-27_17h22.48.389,jpn_C01,2022.1.2,MacIntel,60.0024001,,,,,,,,,,,,,CartoonStims/chef_shoot_cowboy_r.jpg,,,,,,,,,,,,,,,,,,,,,,,,,,,,,,,パツ　ホレト　シド,right,16.5551,,,,,,0,5,5,31,1,,,,,,,,,,,,,,,,,,,,,,,,,パツ　ホレト　ムク,パツ　ホレト　ムク,0
,,,,,,,,,R_3W1yaIlpiSWivzX,2022-06-27_17h22.48.389,jpn_C01,2022.1.2,MacIntel,60.0024001,,,,,,,,,,,,,CartoonStims/artist_shoot_chef_r_no.jpg,,,,,,,,,,,,,,,,,,,,,,,,,,,,,,,ピク　パツ　ムク　ホレト,right,20.4592,,,,,,0,6,6,12,1,,,,,,,,,,,,,,,,,,,,,,,,,ピク　パツ　シド　ホレト,パツ　ピク　シド　ホレト,1
,,,,,,,,,R_3W1yaIlpiSWivzX,2022-06-27_17h22.48.389,jpn_C01,2022.1.2,MacIntel,60.0024001,,,,,,,,,,,,,CartoonStims/doctor_kick_cowboy_r_no.jpg,,,,,,,,,,,,,,,,,,,,,,,,,,,,,,,ピク　セル　ピポ　ムク,right,12.23,,,,,,0,7,7,4,1,,,,,,,,,,,,,,,,,,,,,,,,,ピク　セル　ピポ　ムク,セル　ピク　ピポ　ムク,1
,,,,,,,,,R_3W1yaIlpiSWivzX,2022-06-27_17h22.48.389,jpn_C01,2022.1.2,MacIntel,60.0024001,,,,,,,,,,,,,CartoonStims/artist_punch_cowboy_r_no.jpg,,,,,,,,,,,,,,,,,,,,,,,,,,,,,,,ピポ　パン　シド　ムク,right,21.4117,,,,,,0,8,8,18,1,,,,,,,,,,,,,,,,,,,,,,,,,ピク　プミ　シド　ムク,プミ　ピク　シド　ムク,1
,,,,,,,,,R_3W1yaIlpiSWivzX,2022-06-27_17h22.48.389,jpn_C01,2022.1.2,MacIntel,60.0024001,,,,,,,,,,,,,CartoonStims/burglar_point_chef_r_no.jpg,,,,,,,,,,,,,,,,,,,,,,,,,,,,,,,ピポ　トマ　ルピン　ホレト,right,13.6975,,,,,,0,9,9,7,1,,,,,,,,,,,,,,,,,,,,,,,,,ピク　トマ　ルピン　ホレト,トマ　ピク　ルピン　ホレト,1
,,,,,,,,,R_3W1yaIlpiSWivzX,2022-06-27_17h22.48.389,jpn_C01,2022.1.2,MacIntel,60.0024001,,,,,,,,,,,,,CartoonStims/boxer_punch_chef_r_no.jpg,,,,,,,,,,,,,,,,,,,,,,,,,,,,,,,ピポ　パン　ドキ　ホレト,right,23.5117,,,,,,0,10,10,23,1,,,,,,,,,,,,,,,,,,,,,,,,,ピク　プミ　ドキ　ホレト,プミ　ピク　ドキ　ホレト,1
,,,,,,,,,R_3W1yaIlpiSWivzX,2022-06-27_17h22.48.389,jpn_C01,2022.1.2,MacIntel,60.0024001,,,,,,,,,,,,,CartoonStims/boxer_punch_artist_r.jpg,,,,,,,,,,,,,,,,,,,,,,,,,,,,,,,パン　ドキ　シド,right,12.8675,,,,,,0,11,11,35,1,,,,,,,,,,,,,,,,,,,,,,,,,プミ　ドキ　シド,プミ　ドキ　シド,0
,,,,,,,,,R_3W1yaIlpiSWivzX,2022-06-27_17h22.48.389,jpn_C01,2022.1.2,MacIntel,60.0024001,,,,,,,,,,,,,CartoonStims/artist_punch_burglar_r.jpg,,,,,,,,,,,,,,,,,,,,,,,,,,,,,,,パン　シド　ルピン,right,22.5267,,,,,,0,12,12,33,1,,,,,,,,,,,,,,,,,,,,,,,,,プミ　シド　ルピン,プミ　シド　ルピン,0
,,,,,,,,,R_3W1yaIlpiSWivzX,2022-06-27_17h22.48.389,jpn_C01,2022.1.2,MacIntel,60.0024001,,,,,,,,,,,,,CartoonStims/cowboy_kick_chef_r_no.jpg,,,,,,,,,,,,,,,,,,,,,,,,,,,,,,,ピポ　セル　ムク　ホレト,right,10.2354,,,,,,0,13,13,3,1,,,,,,,,,,,,,,,,,,,,,,,,,ピク　セル　ムク　ホレト,セル　ピク　ムク　ホレト,1
,,,,,,,,,R_3W1yaIlpiSWivzX,2022-06-27_17h22.48.389,jpn_C01,2022.1.2,MacIntel,60.0024001,,,,,,,,,,,,,CartoonStims/burglar_point_artist_r.jpg,,,,,,,,,,,,,,,,,,,,,,,,,,,,,,,トマ　ルピン　シド,right,11.3135,,,,,,0,14,14,28,1,,,,,,,,,,,,,,,,,,,,,,,,,トマ　ルピン　シド,トマ　ルピン　シド,0
,,,,,,,,,R_3W1yaIlpiSWivzX,2022-06-27_17h22.48.389,jpn_C01,2022.1.2,MacIntel,60.0024001,,,,,,,,,,,,,CartoonStims/cowboy_shoot_boxer_r_no.jpg,,,,,,,,,,,,,,,,,,,,,,,,,,,,,,,ピポ　パツ　ムク　ドキ,right,15.782,,,,,,0,15,15,15,1,,,,,,,,,,,,,,,,,,,,,,,,,ピク　パツ　ムク　ドキ,パツ　ピク　ムク　ドキ,1
,,,,,,,,,R_3W1yaIlpiSWivzX,2022-06-27_17h22.48.389,jpn_C01,2022.1.2,MacIntel,60.0024001,,,,,,,,,,,,,CartoonStims/doctor_point_boxer_r_no.jpg,,,,,,,,,,,,,,,,,,,,,,,,,,,,,,,ピク　トマ　ピポ　ドキ,right,18.7406,,,,,,0,16,16,10,1,,,,,,,,,,,,,,,,,,,,,,,,,ピク　トマ　ピポ　ドキ,トマ　ピク　ピポ　ドキ,1
,,,,,,,,,R_3W1yaIlpiSWivzX,2022-06-27_17h22.48.389,jpn_C01,2022.1.2,MacIntel,60.0024001,,,,,,,,,,,,,CartoonStims/burglar_shoot_chef_r.jpg,,,,,,,,,,,,,,,,,,,,,,,,,,,,,,,パツ　ルピン　ホレト,right,20.507,,,,,,0,17,17,30,1,,,,,,,,,,,,,,,,,,,,,,,,,パツ　ルピン　ホレト,パツ　ルピン　ホレト,0
,,,,,,,,,R_3W1yaIlpiSWivzX,2022-06-27_17h22.48.389,jpn_C01,2022.1.2,MacIntel,60.0024001,,,,,,,,,,,,,CartoonStims/doctor_shoot_artist_r_no.jpg,,,,,,,,,,,,,,,,,,,,,,,,,,,,,,,ピク　パツ　ピポ　シド,right,13.4933,,,,,,0,18,18,16,1,,,,,,,,,,,,,,,,,,,,,,,,,ピク　パツ　ピポ　シド,パツ　ピク　ピポ　シド,1
,,,,,,,,,R_3W1yaIlpiSWivzX,2022-06-27_17h22.48.389,jpn_C01,2022.1.2,MacIntel,60.0024001,,,,,,,,,,,,,CartoonStims/boxer_point_artist_r_no.jpg,,,,,,,,,,,,,,,,,,,,,,,,,,,,,,,ピク　トマ　ドキ　シド,right,12.9667,,,,,,0,19,19,11,1,,,,,,,,,,,,,,,,,,,,,,,,,ピク　トマ　ドキ　シド,トマ　ピク　ドキ　シド,1
,,,,,,,,,R_3W1yaIlpiSWivzX,2022-06-27_17h22.48.389,jpn_C01,2022.1.2,MacIntel,60.0024001,,,,,,,,,,,,,CartoonStims/boxer_kick_cowboy_r.jpg,,,,,,,,,,,,,,,,,,,,,,,,,,,,,,,セル　ドキ　シド,right,8.7043,,,,,,0,20,20,26,1,,,,,,,,,,,,,,,,,,,,,,,,,セル　ドキ　ムク,セル　ドキ　ムク,0
,,,,,,,,,R_3W1yaIlpiSWivzX,2022-06-27_17h22.48.389,jpn_C01,2022.1.2,MacIntel,60.0024001,,,,,,,,,,,,,CartoonStims/doctor_kick_chef_r.jpg,,,,,,,,,,,,,,,,,,,,,,,,,,,,,,,セル　ピポ　ホレト,right,6.5273,,,,,,0,21,21,25,1,,,,,,,,,,,,,,,,,,,,,,,,,セル　ピポ　ホレト,セル　ピポ　ホレト,0
,,,,,,,,,R_3W1yaIlpiSWivzX,2022-06-27_17h22.48.389,jpn_C01,2022.1.2,MacIntel,60.0024001,,,,,,,,,,,,,CartoonStims/cowboy_kick_burglar_r.jpg,,,,,,,,,,,,,,,,,,,,,,,,,,,,,,,セル　ムク　ルピン,right,9.3998,,,,,,0,22,22,24,1,,,,,,,,,,,,,,,,,,,,,,,,,セル　ムク　ルピン,セル　ムク　ルピン,0
,,,,,,,,,R_3W1yaIlpiSWivzX,2022-06-27_17h22.48.389,jpn_C01,2022.1.2,MacIntel,60.0024001,,,,,,,,,,,,,CartoonStims/artist_kick_boxer_r_no.jpg,,,,,,,,,,,,,,,,,,,,,,,,,,,,,,,ピク　セル　シド　ドキ,right,14.9359,,,,,,0,23,23,0,1,,,,,,,,,,,,,,,,,,,,,,,,,ピク　セル　シド　ドキ,セル　ピク　シド　ドキ,1
,,,,,,,,,R_3W1yaIlpiSWivzX,2022-06-27_17h22.48.389,jpn_C01,2022.1.2,MacIntel,60.0024001,,,,,,,,,,,,,CartoonStims/doctor_punch_boxer_r.jpg,,,,,,,,,,,,,,,,,,,,,,,,,,,,,,,パン　ピポ　ドキ,right,8.1549,,,,,,0,24,24,34,1,,,,,,,,,,,,,,,,,,,,,,,,,プミ　ピポ　ドキ,プミ　ピポ　ドキ,0
,,,,,,,,,R_3W1yaIlpiSWivzX,2022-06-27_17h22.48.389,jpn_C01,2022.1.2,MacIntel,60.0024001,,,,,,,,,,,,,CartoonStims/boxer_kick_doctor_r_no.jpg,,,,,,,,,,,,,,,,,,,,,,,,,,,,,,,ピク　セル　ドキ　ピポ,right,12.4895,,,,,,0,25,25,5,1,,,,,,,,,,,,,,,,,,,,,,,,,ピク　セル　ドキ　ピポ,セル　ピク　ドキ　ピポ,1
,,,,,,,,,R_3W1yaIlpiSWivzX,2022-06-27_17h22.48.389,jpn_C01,2022.1.2,MacIntel,60.0024001,,,,,,,,,,,,,CartoonStims/chef_kick_burglar_r_no.jpg,,,,,,,,,,,,,,,,,,,,,,,,,,,,,,,ピク　セル　ホレト　ルピン,right,11.0526,,,,,,0,26,26,2,1,,,,,,,,,,,,,,,,,,,,,,,,,ピク　セル　ホレト　ルピン,セル　ピク　ホレト　ルピン,1
,,,,,,,,,R_3W1yaIlpiSWivzX,2022-06-27_17h22.48.389,jpn_C01,2022.1.2,MacIntel,60.0024001,,,,,,,,,,,,,CartoonStims/burglar_punch_doctor_r_no.jpg,,,,,,,,,,,,,,,,,,,,,,,,,,,,,,,ピク　パン　ルピン　ホレト,right,16.9142,,,,,,0,27,27,19,1,,,,,,,,,,,,,,,,,,,,,,,,,ピク　プミ　ルピン　ピポ,プミ　ピク　ルピン　ピポ,1
,,,,,,,,,R_3W1yaIlpiSWivzX,2022-06-27_17h22.48.389,jpn_C01,2022.1.2,MacIntel,60.0024001,,,,,,,,,,,,,CartoonStims/cowboy_shoot_doctor_r.jpg,,,,,,,,,,,,,,,,,,,,,,,,,,,,,,,パン　シド　ピポ,right,12.7017,,,,,,0,28,28,32,1,,,,,,,,,,,,,,,,,,,,,,,,,パツ　ムク　ピポ,パツ　ムク　ピポ,0
,,,,,,,,,R_3W1yaIlpiSWivzX,2022-06-27_17h22.48.389,jpn_C01,2022.1.2,MacIntel,60.0024001,,,,,,,,,,,,,CartoonStims/artist_point_boxer_r.jpg,,,,,,,,,,,,,,,,,,,,,,,,,,,,,,,トマ　シド　ドキ,right,7.3305,,,,,,0,29,29,27,1,,,,,,,,,,,,,,,,,,,,,,,,,トマ　シド　ドキ,トマ　シド　ドキ,0
,,,,,,,,,R_3W1yaIlpiSWivzX,2022-06-27_17h22.48.389,jpn_C01,2022.1.2,MacIntel,60.0024001,,,,,,,,,,,,,CartoonStims/boxer_shoot_burglar_r_no.jpg,,,,,,,,,,,,,,,,,,,,,,,,,,,,,,,ピク　パツ　ドキ　ルピン,right,14.4627,,,,,,0,30,30,17,1,,,,,,,,,,,,,,,,,,,,,,,,,ピク　パツ　ドキ　ルピン,パツ　ピク　ドキ　ルピン,1
,,,,,,,,,R_3W1yaIlpiSWivzX,2022-06-27_17h22.48.389,jpn_C01,2022.1.2,MacIntel,60.0024001,,,,,,,,,,,,,CartoonStims/cowboy_punch_artist_r_no.jpg,,,,,,,,,,,,,,,,,,,,,,,,,,,,,,,ピク　パン　シド　ムク,right,15.8121,,,,,,0,31,31,21,1,,,,,,,,,,,,,,,,,,,,,,,,,ピク　プミ　ムク　シド,プミ　ピク　ムク　シド,1
,,,,,,,,,R_3W1yaIlpiSWivzX,2022-06-27_17h22.48.389,jpn_C01,2022.1.2,MacIntel,60.0024001,,,,,,,,,,,,,CartoonStims/chef_punch_boxer_r_no.jpg,,,,,,,,,,,,,,,,,,,,,,,,,,,,,,,ピク　パン　ホレト　ドキ,right,10.9534,,,,,,0,32,32,20,1,,,,,,,,,,,,,,,,,,,,,,,,,ピク　プミ　ホレト　ドキ,プミ　ピク　ホレト　ドキ,1
,,,,,,,,,R_3W1yaIlpiSWivzX,2022-06-27_17h22.48.389,jpn_C01,2022.1.2,MacIntel,60.0024001,,,,,,,,,,,,,CartoonStims/chef_point_burglar_r.jpg,,,,,,,,,,,,,,,,,,,,,,,,,,,,,,,トマ　ホレト　ルピン,right,7.8865,,,,,,0,33,33,29,1,,,,,,,,,,,,,,,,,,,,,,,,,トマ　ホレト　ルピン,トマ　ホレト　ルピン,0
,,,,,,,,,R_3W1yaIlpiSWivzX,2022-06-27_17h22.48.389,jpn_C01,2022.1.2,MacIntel,60.0024001,,,,,,,,,,,,,CartoonStims/burglar_shoot_cowboy_r_no.jpg,,,,,,,,,,,,,,,,,,,,,,,,,,,,,,,ピク　パン　ルピン　シド,right,16.1623,,,,,,0,34,34,13,1,,,,,,,,,,,,,,,,,,,,,,,,,ピク　パツ　ルピン　ムク,パツ　ピク　ルピン　ムク,1
,,,,,,,,,R_3W1yaIlpiSWivzX,2022-06-27_17h22.48.389,jpn_C01,2022.1.2,MacIntel,60.0024001,,,,,,,,,,,,,CartoonStims/doctor_punch_burglar_r_no.jpg,,,,,,,,,,,,,,,,,,,,,,,,,,,,,,,ピク　パン　ピポ　ルピン,right,12.0301,,,,,,0,35,35,22,1,,,,,,,,,,,,,,,,,,,,,,,,,ピク　プミ　ピポ　ルピン,プミ　ピク　ピポ　ルピン,1
,,,,,,,,,R_3W1yaIlpiSWivzX,2022-06-27_17h22.48.389,jpn_C01,2022.1.2,MacIntel,60.0024001,,,,,,,,,,,,,,,,,,,,,,,,,,,,,,,,,,,,,,,,,,,,,,,,,,,,,,,,,,,space,1.1835,0,2,2,2,1,EquiprobableCondition.xlsx,"ここではこの言語における否定の文を学習していただきます。引き続き注意して、 聞こえた音を復唱してください。

スペースキーを押してください。",1,EquiFCT.xlsx,ここからクイズが始まります。 スクリーンに表示されるテキストに合うイメージを選んでください。,NegTest.xlsx,1,最後にここまで学んだことをアウトプットしていただきます。 テキストボックスにあるイメージを描写するテキストを入力してください。 このタスクでは、 答え合わせは行いません。,0,これですべての実験が終わりました。 お疲れさまです。 この後はアンケートに答えていただきます。,,,,,,,,