key_resp_instr_a.keys,key_resp_instr_a.rt,key_resp_instr_b.keys,key_resp_instr_b.rt,dummy.thisRepN,dummy.thisTrialN,dummy.thisN,dummy.thisIndex,dummy.ran,participant,date,expName,psychopyVersion,OS,frameRate,key_resp_instr1.keys,key_resp_instr1.rt,key_resp.keys,key_resp.rt,exp_loop.thisRepN,exp_loop.thisTrialN,exp_loop.thisN,exp_loop.thisIndex,exp_loop.ran,Word,English,Flip,Path,Audio,key_resp_instr2.keys,key_resp_instr2.rt,key_resp_fct.keys,key_resp_fct.corr,key_resp_fct.rt,trials_2.thisRepN,trials_2.thisTrialN,trials_2.thisN,trials_2.thisIndex,trials_2.ran,fct_loop.thisRepN,fct_loop.thisTrialN,fct_loop.thisN,fct_loop.thisIndex,fct_loop.ran,left_img,word,right_img,correctans,correct_img,audio,incorrect_feedback,trials.thisRepN,trials.thisTrialN,trials.thisN,trials.thisIndex,trials.ran,key_resp_instr3.keys,key_resp_instr3.rt,textbox.text,key_resp_2.keys,key_resp_2.rt,fb_yn.thisRepN,fb_yn.thisTrialN,fb_yn.thisN,fb_yn.thisIndex,fb_yn.ran,gather_loop.thisRepN,gather_loop.thisTrialN,gather_loop.thisN,gather_loop.thisIndex,gather_loop.ran,Text,Wordbank,key_resp_instr4.keys,key_resp_instr4.rt,master_loop.thisRepN,master_loop.thisTrialN,master_loop.thisN,master_loop.thisIndex,master_loop.ran,exposure_file,instr_1,exp_reps,fct_file,instr_2,gather_file,gather_reps,instr_3,fReps,instr_4,trials_4.thisRepN,trials_4.thisTrialN,trials_4.thisN,trials_4.thisIndex,trials_4.ran,trials_3.thisRepN,trials_3.thisTrialN,trials_3.thisN,trials_3.thisIndex,trials_3.ran,NegVSentence,VNegSentence,NegTF
space,1.9882,space,1.1251,0,0,0,0,1,R_UKoR3YU7CRzn9iF,2022-06-25_16h34.28.459,jpn_C01,2022.1.2,Win32,60.0528465,,,,,,,,,,,,,,,,,,,,,,,,,,,,,,,,,,,,,,,,,,,,,,,,,,,,,,,,,,,,,,,,,,,,,,,,,,,,,,,,,,,,,,,,
,,,,,,,,,R_UKoR3YU7CRzn9iF,2022-06-25_16h34.28.459,jpn_C01,2022.1.2,Win32,60.0528465,space,4.7102,space,7.0482,0,0,0,3,1,ムク,cowboy,,CartoonStims/cowboy_r.jpg,audio/muku.mp3,,,,,,,,,,,,,,,,,,,,,,,,,,,,,,,,,,,,,,,,,,,,,,,,,,,,,,,,,,,,,,,,,,,,,,,,,,
,,,,,,,,,R_UKoR3YU7CRzn9iF,2022-06-25_16h34.28.459,jpn_C01,2022.1.2,Win32,60.0528465,,,space,5.4103,0,1,1,1,1,ルピン,burglar,,CartoonStims/burglar_r.jpg,audio/lupin.mp3,,,,,,,,,,,,,,,,,,,,,,,,,,,,,,,,,,,,,,,,,,,,,,,,,,,,,,,,,,,,,,,,,,,,,,,,,,
,,,,,,,,,R_UKoR3YU7CRzn9iF,2022-06-25_16h34.28.459,jpn_C01,2022.1.2,Win32,60.0528465,,,space,5.697,0,2,2,0,1,シド,artist,,CartoonStims/artist_r.jpg,audio/sido.mp3,,,,,,,,,,,,,,,,,,,,,,,,,,,,,,,,,,,,,,,,,,,,,,,,,,,,,,,,,,,,,,,,,,,,,,,,,,
,,,,,,,,,R_UKoR3YU7CRzn9iF,2022-06-25_16h34.28.459,jpn_C01,2022.1.2,Win32,60.0528465,,,space,6.5644,0,3,3,5,1,ドキ,boxer,,CartoonStims/boxer_r.jpg,audio/doki.mp3,,,,,,,,,,,,,,,,,,,,,,,,,,,,,,,,,,,,,,,,,,,,,,,,,,,,,,,,,,,,,,,,,,,,,,,,,,
,,,,,,,,,R_UKoR3YU7CRzn9iF,2022-06-25_16h34.28.459,jpn_C01,2022.1.2,Win32,60.0528465,,,space,6.3336,0,4,4,2,1,ホレト,chef,,CartoonStims/chef_r.jpg,audio/horeto.mp3,,,,,,,,,,,,,,,,,,,,,,,,,,,,,,,,,,,,,,,,,,,,,,,,,,,,,,,,,,,,,,,,,,,,,,,,,,
,,,,,,,,,R_UKoR3YU7CRzn9iF,2022-06-25_16h34.28.459,jpn_C01,2022.1.2,Win32,60.0528465,,,space,5.3817,0,5,5,4,1,ピポ,doctor,,CartoonStims/doctor_r.jpg,audio/pipo.mp3,,,,,,,,,,,,,,,,,,,,,,,,,,,,,,,,,,,,,,,,,,,,,,,,,,,,,,,,,,,,,,,,,,,,,,,,,,
,,,,,,,,,R_UKoR3YU7CRzn9iF,2022-06-25_16h34.28.459,jpn_C01,2022.1.2,Win32,60.0528465,,,space,3.9125,1,0,6,2,1,ホレト,chef,,CartoonStims/chef_r.jpg,audio/horeto.mp3,,,,,,,,,,,,,,,,,,,,,,,,,,,,,,,,,,,,,,,,,,,,,,,,,,,,,,,,,,,,,,,,,,,,,,,,,,
,,,,,,,,,R_UKoR3YU7CRzn9iF,2022-06-25_16h34.28.459,jpn_C01,2022.1.2,Win32,60.0528465,,,space,3.6305,1,1,7,1,1,ルピン,burglar,,CartoonStims/burglar_r.jpg,audio/lupin.mp3,,,,,,,,,,,,,,,,,,,,,,,,,,,,,,,,,,,,,,,,,,,,,,,,,,,,,,,,,,,,,,,,,,,,,,,,,,
,,,,,,,,,R_UKoR3YU7CRzn9iF,2022-06-25_16h34.28.459,jpn_C01,2022.1.2,Win32,60.0528465,,,space,2.9147,1,2,8,3,1,ムク,cowboy,,CartoonStims/cowboy_r.jpg,audio/muku.mp3,,,,,,,,,,,,,,,,,,,,,,,,,,,,,,,,,,,,,,,,,,,,,,,,,,,,,,,,,,,,,,,,,,,,,,,,,,
,,,,,,,,,R_UKoR3YU7CRzn9iF,2022-06-25_16h34.28.459,jpn_C01,2022.1.2,Win32,60.0528465,,,space,2.7252,1,3,9,4,1,ピポ,doctor,,CartoonStims/doctor_r.jpg,audio/pipo.mp3,,,,,,,,,,,,,,,,,,,,,,,,,,,,,,,,,,,,,,,,,,,,,,,,,,,,,,,,,,,,,,,,,,,,,,,,,,
,,,,,,,,,R_UKoR3YU7CRzn9iF,2022-06-25_16h34.28.459,jpn_C01,2022.1.2,Win32,60.0528465,,,space,2.973,1,4,10,0,1,シド,artist,,CartoonStims/artist_r.jpg,audio/sido.mp3,,,,,,,,,,,,,,,,,,,,,,,,,,,,,,,,,,,,,,,,,,,,,,,,,,,,,,,,,,,,,,,,,,,,,,,,,,
,,,,,,,,,R_UKoR3YU7CRzn9iF,2022-06-25_16h34.28.459,jpn_C01,2022.1.2,Win32,60.0528465,,,space,2.8963,1,5,11,5,1,ドキ,boxer,,CartoonStims/boxer_r.jpg,audio/doki.mp3,,,,,,,,,,,,,,,,,,,,,,,,,,,,,,,,,,,,,,,,,,,,,,,,,,,,,,,,,,,,,,,,,,,,,,,,,,
,,,,,,,,,R_UKoR3YU7CRzn9iF,2022-06-25_16h34.28.459,jpn_C01,2022.1.2,Win32,60.0528465,,,space,3.2693,2,0,12,1,1,ルピン,burglar,,CartoonStims/burglar_r.jpg,audio/lupin.mp3,,,,,,,,,,,,,,,,,,,,,,,,,,,,,,,,,,,,,,,,,,,,,,,,,,,,,,,,,,,,,,,,,,,,,,,,,,
,,,,,,,,,R_UKoR3YU7CRzn9iF,2022-06-25_16h34.28.459,jpn_C01,2022.1.2,Win32,60.0528465,,,space,2.7646,2,1,13,4,1,ピポ,doctor,,CartoonStims/doctor_r.jpg,audio/pipo.mp3,,,,,,,,,,,,,,,,,,,,,,,,,,,,,,,,,,,,,,,,,,,,,,,,,,,,,,,,,,,,,,,,,,,,,,,,,,
,,,,,,,,,R_UKoR3YU7CRzn9iF,2022-06-25_16h34.28.459,jpn_C01,2022.1.2,Win32,60.0528465,,,space,2.9011,2,2,14,2,1,ホレト,chef,,CartoonStims/chef_r.jpg,audio/horeto.mp3,,,,,,,,,,,,,,,,,,,,,,,,,,,,,,,,,,,,,,,,,,,,,,,,,,,,,,,,,,,,,,,,,,,,,,,,,,
,,,,,,,,,R_UKoR3YU7CRzn9iF,2022-06-25_16h34.28.459,jpn_C01,2022.1.2,Win32,60.0528465,,,space,2.6863,2,3,15,3,1,ムク,cowboy,,CartoonStims/cowboy_r.jpg,audio/muku.mp3,,,,,,,,,,,,,,,,,,,,,,,,,,,,,,,,,,,,,,,,,,,,,,,,,,,,,,,,,,,,,,,,,,,,,,,,,,
,,,,,,,,,R_UKoR3YU7CRzn9iF,2022-06-25_16h34.28.459,jpn_C01,2022.1.2,Win32,60.0528465,,,space,2.7883,2,4,16,0,1,シド,artist,,CartoonStims/artist_r.jpg,audio/sido.mp3,,,,,,,,,,,,,,,,,,,,,,,,,,,,,,,,,,,,,,,,,,,,,,,,,,,,,,,,,,,,,,,,,,,,,,,,,,
,,,,,,,,,R_UKoR3YU7CRzn9iF,2022-06-25_16h34.28.459,jpn_C01,2022.1.2,Win32,60.0528465,,,space,2.7681,2,5,17,5,1,ドキ,boxer,,CartoonStims/boxer_r.jpg,audio/doki.mp3,,,,,,,,,,,,,,,,,,,,,,,,,,,,,,,,,,,,,,,,,,,,,,,,,,,,,,,,,,,,,,,,,,,,,,,,,,
,,,,,,,,,R_UKoR3YU7CRzn9iF,2022-06-25_16h34.28.459,jpn_C01,2022.1.2,Win32,60.0528465,,,,,,,,,,,,,,,space,4.9093,right,1,0.9026,0,0,0,0,1,,,,,,,,,,,,,,,,,,,,,,,,,,,,,,,,,,,,,,,,,,,,,,,,,,,,,,,,,,,,,,,,
,,,,,,,,,R_UKoR3YU7CRzn9iF,2022-06-25_16h34.28.459,jpn_C01,2022.1.2,Win32,60.0528465,,,,,,,,,,,,,,,,,,,,,,,,,0,0,0,11,1,CartoonStims/burglar_r.jpg,ドキ,CartoonStims/boxer_r.jpg,right,CartoonStims/boxer_r.jpg,audio/doki.mp3,残念！ こちらが正しい画像です。,,,,,,,,,,,,,,,,,,,,,,,,,,,,,,,,,,,,,,,,,,,,,,,,,,,,
,,,,,,,,,R_UKoR3YU7CRzn9iF,2022-06-25_16h34.28.459,jpn_C01,2022.1.2,Win32,60.0528465,,,,,,,,,,,,,,,,,left,1,0.5671,,,,,,,,,,,,,,,,,,0,0,0,0,1,,,,,,,,,,,,,,,,,,,,,,,,,,,,,,,,,,,,,,,,,,,,,,,
,,,,,,,,,R_UKoR3YU7CRzn9iF,2022-06-25_16h34.28.459,jpn_C01,2022.1.2,Win32,60.0528465,,,,,,,,,,,,,,,,,,,,,,,,,0,1,1,4,1,CartoonStims/doctor_r.jpg,ピポ,CartoonStims/boxer_r.jpg,left,CartoonStims/doctor_r.jpg,audio/pipo.mp3,残念！ こちらが正しい画像です。,,,,,,,,,,,,,,,,,,,,,,,,,,,,,,,,,,,,,,,,,,,,,,,,,,,,
,,,,,,,,,R_UKoR3YU7CRzn9iF,2022-06-25_16h34.28.459,jpn_C01,2022.1.2,Win32,60.0528465,,,,,,,,,,,,,,,,,left,1,0.8553,,,,,,,,,,,,,,,,,,0,0,0,0,1,,,,,,,,,,,,,,,,,,,,,,,,,,,,,,,,,,,,,,,,,,,,,,,
,,,,,,,,,R_UKoR3YU7CRzn9iF,2022-06-25_16h34.28.459,jpn_C01,2022.1.2,Win32,60.0528465,,,,,,,,,,,,,,,,,,,,,,,,,0,2,2,2,1,CartoonStims/chef_r.jpg,ホレト,CartoonStims/cowboy_r.jpg,left,CartoonStims/chef_r.jpg,audio/horeto.mp3,残念！ こちらが正しい画像です。,,,,,,,,,,,,,,,,,,,,,,,,,,,,,,,,,,,,,,,,,,,,,,,,,,,,
,,,,,,,,,R_UKoR3YU7CRzn9iF,2022-06-25_16h34.28.459,jpn_C01,2022.1.2,Win32,60.0528465,,,,,,,,,,,,,,,,,left,1,0.9233,,,,,,,,,,,,,,,,,,0,0,0,0,1,,,,,,,,,,,,,,,,,,,,,,,,,,,,,,,,,,,,,,,,,,,,,,,
,,,,,,,,,R_UKoR3YU7CRzn9iF,2022-06-25_16h34.28.459,jpn_C01,2022.1.2,Win32,60.0528465,,,,,,,,,,,,,,,,,,,,,,,,,0,3,3,0,1,CartoonStims/artist_r.jpg,シド,CartoonStims/burglar_r.jpg,left,CartoonStims/artist_r.jpg,audio/sido.mp3,残念！ こちらが正しい画像です。,,,,,,,,,,,,,,,,,,,,,,,,,,,,,,,,,,,,,,,,,,,,,,,,,,,,
,,,,,,,,,R_UKoR3YU7CRzn9iF,2022-06-25_16h34.28.459,jpn_C01,2022.1.2,Win32,60.0528465,,,,,,,,,,,,,,,,,right,1,1.7669,0,0,0,0,1,,,,,,,,,,,,,,,,,,,,,,,,,,,,,,,,,,,,,,,,,,,,,,,,,,,,,,,,,,,,,,,,
,,,,,,,,,R_UKoR3YU7CRzn9iF,2022-06-25_16h34.28.459,jpn_C01,2022.1.2,Win32,60.0528465,,,,,,,,,,,,,,,,,,,,,,,,,0,4,4,7,1,CartoonStims/cowboy_r.jpg,ルピン,CartoonStims/burglar_r.jpg,right,CartoonStims/burglar_r.jpg,audio/lupin.mp3,残念！ こちらが正しい画像です。,,,,,,,,,,,,,,,,,,,,,,,,,,,,,,,,,,,,,,,,,,,,,,,,,,,,
,,,,,,,,,R_UKoR3YU7CRzn9iF,2022-06-25_16h34.28.459,jpn_C01,2022.1.2,Win32,60.0528465,,,,,,,,,,,,,,,,,right,1,1.1264,0,0,0,0,1,,,,,,,,,,,,,,,,,,,,,,,,,,,,,,,,,,,,,,,,,,,,,,,,,,,,,,,,,,,,,,,,
,,,,,,,,,R_UKoR3YU7CRzn9iF,2022-06-25_16h34.28.459,jpn_C01,2022.1.2,Win32,60.0528465,,,,,,,,,,,,,,,,,,,,,,,,,0,5,5,6,1,CartoonStims/chef_r.jpg,シド,CartoonStims/artist_r.jpg,right,CartoonStims/artist_r.jpg,audio/sido.mp3,残念！ こちらが正しい画像です。,,,,,,,,,,,,,,,,,,,,,,,,,,,,,,,,,,,,,,,,,,,,,,,,,,,,
,,,,,,,,,R_UKoR3YU7CRzn9iF,2022-06-25_16h34.28.459,jpn_C01,2022.1.2,Win32,60.0528465,,,,,,,,,,,,,,,,,left,1,1.3024,,,,,,,,,,,,,,,,,,0,0,0,0,1,,,,,,,,,,,,,,,,,,,,,,,,,,,,,,,,,,,,,,,,,,,,,,,
,,,,,,,,,R_UKoR3YU7CRzn9iF,2022-06-25_16h34.28.459,jpn_C01,2022.1.2,Win32,60.0528465,,,,,,,,,,,,,,,,,,,,,,,,,0,6,6,3,1,CartoonStims/cowboy_r.jpg,ムク,CartoonStims/doctor_r.jpg,left,CartoonStims/cowboy_r.jpg,audio/muku.mp3,残念！ こちらが正しい画像です。,,,,,,,,,,,,,,,,,,,,,,,,,,,,,,,,,,,,,,,,,,,,,,,,,,,,
,,,,,,,,,R_UKoR3YU7CRzn9iF,2022-06-25_16h34.28.459,jpn_C01,2022.1.2,Win32,60.0528465,,,,,,,,,,,,,,,,,right,1,0.7341,0,0,0,0,1,,,,,,,,,,,,,,,,,,,,,,,,,,,,,,,,,,,,,,,,,,,,,,,,,,,,,,,,,,,,,,,,
,,,,,,,,,R_UKoR3YU7CRzn9iF,2022-06-25_16h34.28.459,jpn_C01,2022.1.2,Win32,60.0528465,,,,,,,,,,,,,,,,,,,,,,,,,0,7,7,9,1,CartoonStims/boxer_r.jpg,ムク,CartoonStims/cowboy_r.jpg,right,CartoonStims/cowboy_r.jpg,audio/muku.mp3,残念！ こちらが正しい画像です。,,,,,,,,,,,,,,,,,,,,,,,,,,,,,,,,,,,,,,,,,,,,,,,,,,,,
,,,,,,,,,R_UKoR3YU7CRzn9iF,2022-06-25_16h34.28.459,jpn_C01,2022.1.2,Win32,60.0528465,,,,,,,,,,,,,,,,,right,1,0.7195,0,0,0,0,1,,,,,,,,,,,,,,,,,,,,,,,,,,,,,,,,,,,,,,,,,,,,,,,,,,,,,,,,,,,,,,,,
,,,,,,,,,R_UKoR3YU7CRzn9iF,2022-06-25_16h34.28.459,jpn_C01,2022.1.2,Win32,60.0528465,,,,,,,,,,,,,,,,,,,,,,,,,0,8,8,8,1,CartoonStims/doctor_r.jpg,ホレト,CartoonStims/chef_r.jpg,right,CartoonStims/chef_r.jpg,audio/horeto.mp3,残念！ こちらが正しい画像です。,,,,,,,,,,,,,,,,,,,,,,,,,,,,,,,,,,,,,,,,,,,,,,,,,,,,
,,,,,,,,,R_UKoR3YU7CRzn9iF,2022-06-25_16h34.28.459,jpn_C01,2022.1.2,Win32,60.0528465,,,,,,,,,,,,,,,,,left,1,0.4299,,,,,,,,,,,,,,,,,,0,0,0,0,1,,,,,,,,,,,,,,,,,,,,,,,,,,,,,,,,,,,,,,,,,,,,,,,
,,,,,,,,,R_UKoR3YU7CRzn9iF,2022-06-25_16h34.28.459,jpn_C01,2022.1.2,Win32,60.0528465,,,,,,,,,,,,,,,,,,,,,,,,,0,9,9,1,1,CartoonStims/burglar_r.jpg,ルピン,CartoonStims/chef_r.jpg,left,CartoonStims/burglar_r.jpg,audio/lupin.mp3,残念！ こちらが正しい画像です。,,,,,,,,,,,,,,,,,,,,,,,,,,,,,,,,,,,,,,,,,,,,,,,,,,,,
,,,,,,,,,R_UKoR3YU7CRzn9iF,2022-06-25_16h34.28.459,jpn_C01,2022.1.2,Win32,60.0528465,,,,,,,,,,,,,,,,,left,1,0.8373,,,,,,,,,,,,,,,,,,0,0,0,0,1,,,,,,,,,,,,,,,,,,,,,,,,,,,,,,,,,,,,,,,,,,,,,,,
,,,,,,,,,R_UKoR3YU7CRzn9iF,2022-06-25_16h34.28.459,jpn_C01,2022.1.2,Win32,60.0528465,,,,,,,,,,,,,,,,,,,,,,,,,0,10,10,5,1,CartoonStims/boxer_r.jpg,ドキ,CartoonStims/artist_r.jpg,left,CartoonStims/boxer_r.jpg,audio/doki.mp3,残念！ こちらが正しい画像です。,,,,,,,,,,,,,,,,,,,,,,,,,,,,,,,,,,,,,,,,,,,,,,,,,,,,
,,,,,,,,,R_UKoR3YU7CRzn9iF,2022-06-25_16h34.28.459,jpn_C01,2022.1.2,Win32,60.0528465,,,,,,,,,,,,,,,,,right,1,0.6263,0,0,0,0,1,,,,,,,,,,,,,,,,,,,,,,,,,,,,,,,,,,,,,,,,,,,,,,,,,,,,,,,,,,,,,,,,
,,,,,,,,,R_UKoR3YU7CRzn9iF,2022-06-25_16h34.28.459,jpn_C01,2022.1.2,Win32,60.0528465,,,,,,,,,,,,,,,,,,,,,,,,,0,11,11,10,1,CartoonStims/artist_r.jpg,ピポ,CartoonStims/doctor_r.jpg,right,CartoonStims/doctor_r.jpg,audio/pipo.mp3,残念！ こちらが正しい画像です。,,,,,,,,,,,,,,,,,,,,,,,,,,,,,,,,,,,,,,,,,,,,,,,,,,,,
,,,,,,,,,R_UKoR3YU7CRzn9iF,2022-06-25_16h34.28.459,jpn_C01,2022.1.2,Win32,60.0528465,,,,,,,,,,,,,,,,,,,,,,,,,,,,,,,,,,,,,,,,,,space,4.7709,シド,right,17.1257,0,0,0,0,1,,,,,,,,,,,,,,,,,,,,,,,,,,,,,,,,,,,,,
,,,,,,,,,R_UKoR3YU7CRzn9iF,2022-06-25_16h34.28.459,jpn_C01,2022.1.2,Win32,60.0528465,,,,,,,,,,,,,CartoonStims/artist_r.jpg,audio/sido.mp3,,,,,,,,,,,,,,,,,,,,,,,,,,,,,,,,,,,,,,0,0,0,0,1,シド,,,,,,,,,,,,,,,,,,,,,,,,,,,,,,,
,,,,,,,,,R_UKoR3YU7CRzn9iF,2022-06-25_16h34.28.459,jpn_C01,2022.1.2,Win32,60.0528465,,,,,,,,,,,,,,,,,,,,,,,,,,,,,,,,,,,,,,,,,,,,ムク,right,7.2384,0,0,0,0,1,,,,,,,,,,,,,,,,,,,,,,,,,,,,,,,,,,,,,
,,,,,,,,,R_UKoR3YU7CRzn9iF,2022-06-25_16h34.28.459,jpn_C01,2022.1.2,Win32,60.0528465,,,,,,,,,,,,,CartoonStims/cowboy_r.jpg,audio/muku.mp3,,,,,,,,,,,,,,,,,,,,,,,,,,,,,,,,,,,,,,0,1,1,3,1,ムク,,,,,,,,,,,,,,,,,,,,,,,,,,,,,,,
,,,,,,,,,R_UKoR3YU7CRzn9iF,2022-06-25_16h34.28.459,jpn_C01,2022.1.2,Win32,60.0528465,,,,,,,,,,,,,,,,,,,,,,,,,,,,,,,,,,,,,,,,,,,,ピポ,right,5.5683,0,0,0,0,1,,,,,,,,,,,,,,,,,,,,,,,,,,,,,,,,,,,,,
,,,,,,,,,R_UKoR3YU7CRzn9iF,2022-06-25_16h34.28.459,jpn_C01,2022.1.2,Win32,60.0528465,,,,,,,,,,,,,CartoonStims/doctor_r.jpg,audio/pipo.mp3,,,,,,,,,,,,,,,,,,,,,,,,,,,,,,,,,,,,,,0,2,2,4,1,ピポ,,,,,,,,,,,,,,,,,,,,,,,,,,,,,,,
,,,,,,,,,R_UKoR3YU7CRzn9iF,2022-06-25_16h34.28.459,jpn_C01,2022.1.2,Win32,60.0528465,,,,,,,,,,,,,,,,,,,,,,,,,,,,,,,,,,,,,,,,,,,,ドキ,right,6.046,0,0,0,0,1,,,,,,,,,,,,,,,,,,,,,,,,,,,,,,,,,,,,,
,,,,,,,,,R_UKoR3YU7CRzn9iF,2022-06-25_16h34.28.459,jpn_C01,2022.1.2,Win32,60.0528465,,,,,,,,,,,,,CartoonStims/boxer_r.jpg,audio/doki.mp3,,,,,,,,,,,,,,,,,,,,,,,,,,,,,,,,,,,,,,0,3,3,5,1,ドキ,,,,,,,,,,,,,,,,,,,,,,,,,,,,,,,
,,,,,,,,,R_UKoR3YU7CRzn9iF,2022-06-25_16h34.28.459,jpn_C01,2022.1.2,Win32,60.0528465,,,,,,,,,,,,,,,,,,,,,,,,,,,,,,,,,,,,,,,,,,,,ホレト,right,6.0546,0,0,0,0,1,,,,,,,,,,,,,,,,,,,,,,,,,,,,,,,,,,,,,
,,,,,,,,,R_UKoR3YU7CRzn9iF,2022-06-25_16h34.28.459,jpn_C01,2022.1.2,Win32,60.0528465,,,,,,,,,,,,,CartoonStims/chef_r.jpg,audio/horeto.mp3,,,,,,,,,,,,,,,,,,,,,,,,,,,,,,,,,,,,,,0,4,4,2,1,ホレト,,,,,,,,,,,,,,,,,,,,,,,,,,,,,,,
,,,,,,,,,R_UKoR3YU7CRzn9iF,2022-06-25_16h34.28.459,jpn_C01,2022.1.2,Win32,60.0528465,,,,,,,,,,,,,,,,,,,,,,,,,,,,,,,,,,,,,,,,,,,,ルピン,right,6.4222,0,0,0,0,1,,,,,,,,,,,,,,,,,,,,,,,,,,,,,,,,,,,,,
,,,,,,,,,R_UKoR3YU7CRzn9iF,2022-06-25_16h34.28.459,jpn_C01,2022.1.2,Win32,60.0528465,,,,,,,,,,,,,CartoonStims/burglar_r.jpg,audio/lupin.mp3,,,,,,,,,,,,,,,,,,,,,,,,,,,,,,,,,,,,,,0,5,5,1,1,ルピン,,,,,,,,,,,,,,,,,,,,,,,,,,,,,,,
,,,,,,,,,R_UKoR3YU7CRzn9iF,2022-06-25_16h34.28.459,jpn_C01,2022.1.2,Win32,60.0528465,,,,,,,,,,,,,,,,,,,,,,,,,,,,,,,,,,,,,,,,,,,,ピポ,right,3.8938,0,0,0,0,1,,,,,,,,,,,,,,,,,,,,,,,,,,,,,,,,,,,,,
,,,,,,,,,R_UKoR3YU7CRzn9iF,2022-06-25_16h34.28.459,jpn_C01,2022.1.2,Win32,60.0528465,,,,,,,,,,,,,CartoonStims/doctor_r.jpg,audio/pipo.mp3,,,,,,,,,,,,,,,,,,,,,,,,,,,,,,,,,,,,,,1,0,6,4,1,ピポ,,,,,,,,,,,,,,,,,,,,,,,,,,,,,,,
,,,,,,,,,R_UKoR3YU7CRzn9iF,2022-06-25_16h34.28.459,jpn_C01,2022.1.2,Win32,60.0528465,,,,,,,,,,,,,,,,,,,,,,,,,,,,,,,,,,,,,,,,,,,,ルピン,right,4.9796,0,0,0,0,1,,,,,,,,,,,,,,,,,,,,,,,,,,,,,,,,,,,,,
,,,,,,,,,R_UKoR3YU7CRzn9iF,2022-06-25_16h34.28.459,jpn_C01,2022.1.2,Win32,60.0528465,,,,,,,,,,,,,CartoonStims/burglar_r.jpg,audio/lupin.mp3,,,,,,,,,,,,,,,,,,,,,,,,,,,,,,,,,,,,,,1,1,7,1,1,ルピン,,,,,,,,,,,,,,,,,,,,,,,,,,,,,,,
,,,,,,,,,R_UKoR3YU7CRzn9iF,2022-06-25_16h34.28.459,jpn_C01,2022.1.2,Win32,60.0528465,,,,,,,,,,,,,,,,,,,,,,,,,,,,,,,,,,,,,,,,,,,,ホレト,right,4.5353,0,0,0,0,1,,,,,,,,,,,,,,,,,,,,,,,,,,,,,,,,,,,,,
,,,,,,,,,R_UKoR3YU7CRzn9iF,2022-06-25_16h34.28.459,jpn_C01,2022.1.2,Win32,60.0528465,,,,,,,,,,,,,CartoonStims/chef_r.jpg,audio/horeto.mp3,,,,,,,,,,,,,,,,,,,,,,,,,,,,,,,,,,,,,,1,2,8,2,1,ホレト,,,,,,,,,,,,,,,,,,,,,,,,,,,,,,,
,,,,,,,,,R_UKoR3YU7CRzn9iF,2022-06-25_16h34.28.459,jpn_C01,2022.1.2,Win32,60.0528465,,,,,,,,,,,,,,,,,,,,,,,,,,,,,,,,,,,,,,,,,,,,シド,right,6.41,0,0,0,0,1,,,,,,,,,,,,,,,,,,,,,,,,,,,,,,,,,,,,,
,,,,,,,,,R_UKoR3YU7CRzn9iF,2022-06-25_16h34.28.459,jpn_C01,2022.1.2,Win32,60.0528465,,,,,,,,,,,,,CartoonStims/artist_r.jpg,audio/sido.mp3,,,,,,,,,,,,,,,,,,,,,,,,,,,,,,,,,,,,,,1,3,9,0,1,シド,,,,,,,,,,,,,,,,,,,,,,,,,,,,,,,
,,,,,,,,,R_UKoR3YU7CRzn9iF,2022-06-25_16h34.28.459,jpn_C01,2022.1.2,Win32,60.0528465,,,,,,,,,,,,,,,,,,,,,,,,,,,,,,,,,,,,,,,,,,,,ドキ,right,3.4635,0,0,0,0,1,,,,,,,,,,,,,,,,,,,,,,,,,,,,,,,,,,,,,
,,,,,,,,,R_UKoR3YU7CRzn9iF,2022-06-25_16h34.28.459,jpn_C01,2022.1.2,Win32,60.0528465,,,,,,,,,,,,,CartoonStims/boxer_r.jpg,audio/doki.mp3,,,,,,,,,,,,,,,,,,,,,,,,,,,,,,,,,,,,,,1,4,10,5,1,ドキ,,,,,,,,,,,,,,,,,,,,,,,,,,,,,,,
,,,,,,,,,R_UKoR3YU7CRzn9iF,2022-06-25_16h34.28.459,jpn_C01,2022.1.2,Win32,60.0528465,,,,,,,,,,,,,,,,,,,,,,,,,,,,,,,,,,,,,,,,,,,,ムク,right,3.4366,0,0,0,0,1,,,,,,,,,,,,,,,,,,,,,,,,,,,,,,,,,,,,,
,,,,,,,,,R_UKoR3YU7CRzn9iF,2022-06-25_16h34.28.459,jpn_C01,2022.1.2,Win32,60.0528465,,,,,,,,,,,,,CartoonStims/cowboy_r.jpg,audio/muku.mp3,,,,,,,,,,,,,,,,,,,,,,,,,,,,,,,,,,,,,,1,5,11,3,1,ムク,,,,,,,,,,,,,,,,,,,,,,,,,,,,,,,
,,,,,,,,,R_UKoR3YU7CRzn9iF,2022-06-25_16h34.28.459,jpn_C01,2022.1.2,Win32,60.0528465,,,,,,,,,,,,,,,,,,,,,,,,,,,,,,,,,,,,,,,,,,,,,,,,,,,,,,,,,,,space,4.0064,0,0,0,0,1,NounExposure.xlsx,"最初のトライアルでは、 画像が表示され、 その画像の下に単語が出てきます。 またこの単語の音も聞くことができます。 この音を大きな声で復唱してください。 そしてこの画像がどのような単語を示しているのか, 考えてみてください。 その後、 続きのボタンを押すと次の単語の学習が始まります。

スペースキーを押して、学習を始めましょう。",3,NounFCT.xlsx,ここから語彙のクイズが始まります。スクリーンに表示される単語に合う画像をキーボードの右と左の矢印キーを使って選択してください。,NounTest.xlsx,2,次に、これまで学習してきたことをアウトプットしていただきます。 表示される画像を描写していると思う単語を、テキストボックスにタイプしてください。,1,"ここまでが最初のトライアルです。ここで休憩をとっても構いません。

休憩が済みましたら、スペースキーを押して続きを始めましょう。",,,,,,,,,,,,,
,,,,,,,,,R_UKoR3YU7CRzn9iF,2022-06-25_16h34.28.459,jpn_C01,2022.1.2,Win32,60.0528465,space,6.1078,space,15.8364,0,0,0,36,1,プミ　シド　ピポ,,,CartoonStims/artist_punch_doctor_r.jpg,audio/pumisidopipo.mp3,,,,,,,,,,,,,,,,,,,,,,,,,,,,,,,,,,,,,,,,,,,,,,,,,,,,,,,,,,,,,,,,,,,,,,,,,,
,,,,,,,,,R_UKoR3YU7CRzn9iF,2022-06-25_16h34.28.459,jpn_C01,2022.1.2,Win32,60.0528465,,,space,11.2906,0,1,1,35,1,パツ　ドキ　ムク,,,CartoonStims/boxer_shoot_cowboy_r.jpg,audio/patsudokimuku.mp3,,,,,,,,,,,,,,,,,,,,,,,,,,,,,,,,,,,,,,,,,,,,,,,,,,,,,,,,,,,,,,,,,,,,,,,,,,
,,,,,,,,,R_UKoR3YU7CRzn9iF,2022-06-25_16h34.28.459,jpn_C01,2022.1.2,Win32,60.0528465,,,space,5.978,0,2,2,19,1,トマ　ムク　シド,,,CartoonStims/cowboy_point_artist_r.jpg,audio/tomamukusido.mp3,,,,,,,,,,,,,,,,,,,,,,,,,,,,,,,,,,,,,,,,,,,,,,,,,,,,,,,,,,,,,,,,,,,,,,,,,,
,,,,,,,,,R_UKoR3YU7CRzn9iF,2022-06-25_16h34.28.459,jpn_C01,2022.1.2,Win32,60.0528465,,,space,6.8851,0,3,3,45,1,プミ　ピポ　ムク,,,CartoonStims/doctor_punch_cowboy_r.jpg,audio/pumipipomuku.mp3,,,,,,,,,,,,,,,,,,,,,,,,,,,,,,,,,,,,,,,,,,,,,,,,,,,,,,,,,,,,,,,,,,,,,,,,,,
,,,,,,,,,R_UKoR3YU7CRzn9iF,2022-06-25_16h34.28.459,jpn_C01,2022.1.2,Win32,60.0528465,,,space,6.349,0,4,4,6,1,セル　ムク　ピポ,,,CartoonStims/cowboy_kick_doctor_r.jpg,audio/serumukupipo.mp3,,,,,,,,,,,,,,,,,,,,,,,,,,,,,,,,,,,,,,,,,,,,,,,,,,,,,,,,,,,,,,,,,,,,,,,,,,
,,,,,,,,,R_UKoR3YU7CRzn9iF,2022-06-25_16h34.28.459,jpn_C01,2022.1.2,Win32,60.0528465,,,space,5.0376,0,5,5,7,1,セル　ムク　ドキ,,,CartoonStims/cowboy_kick_boxer_r.jpg,audio/serumukudoki.mp3,,,,,,,,,,,,,,,,,,,,,,,,,,,,,,,,,,,,,,,,,,,,,,,,,,,,,,,,,,,,,,,,,,,,,,,,,,
,,,,,,,,,R_UKoR3YU7CRzn9iF,2022-06-25_16h34.28.459,jpn_C01,2022.1.2,Win32,60.0528465,,,space,7.8618,0,6,6,41,1,プミ　ホレト　ルピン,,,CartoonStims/chef_punch_burglar_r.jpg,audio/pumihoretolupin.mp3,,,,,,,,,,,,,,,,,,,,,,,,,,,,,,,,,,,,,,,,,,,,,,,,,,,,,,,,,,,,,,,,,,,,,,,,,,
,,,,,,,,,R_UKoR3YU7CRzn9iF,2022-06-25_16h34.28.459,jpn_C01,2022.1.2,Win32,60.0528465,,,space,5.1227,0,7,7,34,1,パツ　ドキ　ホレト,,,CartoonStims/boxer_shoot_chef_r.jpg,audio/patsudokihoreto.mp3,,,,,,,,,,,,,,,,,,,,,,,,,,,,,,,,,,,,,,,,,,,,,,,,,,,,,,,,,,,,,,,,,,,,,,,,,,
,,,,,,,,,R_UKoR3YU7CRzn9iF,2022-06-25_16h34.28.459,jpn_C01,2022.1.2,Win32,60.0528465,,,space,3.128,0,8,8,8,1,セル　ピポ　ドキ,,,CartoonStims/doctor_kick_boxer_r.jpg,audio/serupipodoki.mp3,,,,,,,,,,,,,,,,,,,,,,,,,,,,,,,,,,,,,,,,,,,,,,,,,,,,,,,,,,,,,,,,,,,,,,,,,,
,,,,,,,,,R_UKoR3YU7CRzn9iF,2022-06-25_16h34.28.459,jpn_C01,2022.1.2,Win32,60.0528465,,,space,2.4783,0,9,9,11,1,セル　ドキ　ルピン,,,CartoonStims/boxer_kick_burglar_r.jpg,audio/serudokilupin.mp3,,,,,,,,,,,,,,,,,,,,,,,,,,,,,,,,,,,,,,,,,,,,,,,,,,,,,,,,,,,,,,,,,,,,,,,,,,
,,,,,,,,,R_UKoR3YU7CRzn9iF,2022-06-25_16h34.28.459,jpn_C01,2022.1.2,Win32,60.0528465,,,space,3.2939,0,10,10,43,1,プミ　ムク　ホレト,,,CartoonStims/cowboy_punch_chef_r.jpg,audio/pumimukuhoreto.mp3,,,,,,,,,,,,,,,,,,,,,,,,,,,,,,,,,,,,,,,,,,,,,,,,,,,,,,,,,,,,,,,,,,,,,,,,,,
,,,,,,,,,R_UKoR3YU7CRzn9iF,2022-06-25_16h34.28.459,jpn_C01,2022.1.2,Win32,60.0528465,,,space,3.2668,0,11,11,18,1,トマ　ムク　ドキ,,,CartoonStims/cowboy_point_boxer_r.jpg,audio/tomamukudoki.mp3,,,,,,,,,,,,,,,,,,,,,,,,,,,,,,,,,,,,,,,,,,,,,,,,,,,,,,,,,,,,,,,,,,,,,,,,,,
,,,,,,,,,R_UKoR3YU7CRzn9iF,2022-06-25_16h34.28.459,jpn_C01,2022.1.2,Win32,60.0528465,,,space,4.0065,0,12,12,26,1,パツ　ルピン　ピポ,,,CartoonStims/burglar_shoot_doctor_r.jpg,audio/patsulupinpipo.mp3,,,,,,,,,,,,,,,,,,,,,,,,,,,,,,,,,,,,,,,,,,,,,,,,,,,,,,,,,,,,,,,,,,,,,,,,,,
,,,,,,,,,R_UKoR3YU7CRzn9iF,2022-06-25_16h34.28.459,jpn_C01,2022.1.2,Win32,60.0528465,,,space,4.9118,0,13,13,47,1,プミ　ドキ　ピポ,,,CartoonStims/boxer_punch_doctor_r.jpg,audio/pumidokipipo.mp3,,,,,,,,,,,,,,,,,,,,,,,,,,,,,,,,,,,,,,,,,,,,,,,,,,,,,,,,,,,,,,,,,,,,,,,,,,
,,,,,,,,,R_UKoR3YU7CRzn9iF,2022-06-25_16h34.28.459,jpn_C01,2022.1.2,Win32,60.0528465,,,space,3.3683,0,14,14,9,1,セル　ピポ　シド,,,CartoonStims/doctor_kick_artist_r.jpg,audio/serupiposido.mp3,,,,,,,,,,,,,,,,,,,,,,,,,,,,,,,,,,,,,,,,,,,,,,,,,,,,,,,,,,,,,,,,,,,,,,,,,,
,,,,,,,,,R_UKoR3YU7CRzn9iF,2022-06-25_16h34.28.459,jpn_C01,2022.1.2,Win32,60.0528465,,,space,3.3135,0,15,15,5,1,セル　ホレト　ピポ,,,CartoonStims/chef_kick_doctor_r.jpg,audio/seruhoretopipo.mp3,,,,,,,,,,,,,,,,,,,,,,,,,,,,,,,,,,,,,,,,,,,,,,,,,,,,,,,,,,,,,,,,,,,,,,,,,,
,,,,,,,,,R_UKoR3YU7CRzn9iF,2022-06-25_16h34.28.459,jpn_C01,2022.1.2,Win32,60.0528465,,,space,4.3899,0,16,16,38,1,プミ　ルピン　ドキ,,,CartoonStims/burglar_punch_boxer_r.jpg,audio/pumilupindoki.mp3,,,,,,,,,,,,,,,,,,,,,,,,,,,,,,,,,,,,,,,,,,,,,,,,,,,,,,,,,,,,,,,,,,,,,,,,,,
,,,,,,,,,R_UKoR3YU7CRzn9iF,2022-06-25_16h34.28.459,jpn_C01,2022.1.2,Win32,60.0528465,,,space,2.7021,0,17,17,25,1,パツ　シド　ピポ,,,CartoonStims/artist_shoot_doctor_r.jpg,audio/patsusidopipo.mp3,,,,,,,,,,,,,,,,,,,,,,,,,,,,,,,,,,,,,,,,,,,,,,,,,,,,,,,,,,,,,,,,,,,,,,,,,,
,,,,,,,,,R_UKoR3YU7CRzn9iF,2022-06-25_16h34.28.459,jpn_C01,2022.1.2,Win32,60.0528465,,,space,3.0213,0,18,18,31,1,パツ　ムク　ルピン,,,CartoonStims/cowboy_shoot_burglar_r.jpg,audio/patsumukulupin.mp3,,,,,,,,,,,,,,,,,,,,,,,,,,,,,,,,,,,,,,,,,,,,,,,,,,,,,,,,,,,,,,,,,,,,,,,,,,
,,,,,,,,,R_UKoR3YU7CRzn9iF,2022-06-25_16h34.28.459,jpn_C01,2022.1.2,Win32,60.0528465,,,space,3.4651,0,19,19,20,1,トマ　ピポ　シド,,,CartoonStims/doctor_point_artist_r.jpg,audio/tomapiposido.mp3,,,,,,,,,,,,,,,,,,,,,,,,,,,,,,,,,,,,,,,,,,,,,,,,,,,,,,,,,,,,,,,,,,,,,,,,,,
,,,,,,,,,R_UKoR3YU7CRzn9iF,2022-06-25_16h34.28.459,jpn_C01,2022.1.2,Win32,60.0528465,,,space,3.1346,0,20,20,0,1,セル　シド　ルピン,,,CartoonStims/artist_kick_burglar_r.jpg,audio/serusidolupin.mp3,,,,,,,,,,,,,,,,,,,,,,,,,,,,,,,,,,,,,,,,,,,,,,,,,,,,,,,,,,,,,,,,,,,,,,,,,,
,,,,,,,,,R_UKoR3YU7CRzn9iF,2022-06-25_16h34.28.459,jpn_C01,2022.1.2,Win32,60.0528465,,,space,3.4474,0,21,21,30,1,パツ　ムク　シド,,,CartoonStims/cowboy_shoot_artist_r.jpg,audio/patsumukusido.mp3,,,,,,,,,,,,,,,,,,,,,,,,,,,,,,,,,,,,,,,,,,,,,,,,,,,,,,,,,,,,,,,,,,,,,,,,,,
,,,,,,,,,R_UKoR3YU7CRzn9iF,2022-06-25_16h34.28.459,jpn_C01,2022.1.2,Win32,60.0528465,,,space,3.0123,0,22,22,13,1,トマ　シド　ムク,,,CartoonStims/artist_point_cowboy_r.jpg,audio/tomasidomuku.mp3,,,,,,,,,,,,,,,,,,,,,,,,,,,,,,,,,,,,,,,,,,,,,,,,,,,,,,,,,,,,,,,,,,,,,,,,,,
,,,,,,,,,R_UKoR3YU7CRzn9iF,2022-06-25_16h34.28.459,jpn_C01,2022.1.2,Win32,60.0528465,,,space,2.0817,0,23,23,37,1,プミ　シド　ドキ,,,CartoonStims/artist_punch_boxer_r.jpg,audio/pumisidodoki.mp3,,,,,,,,,,,,,,,,,,,,,,,,,,,,,,,,,,,,,,,,,,,,,,,,,,,,,,,,,,,,,,,,,,,,,,,,,,
,,,,,,,,,R_UKoR3YU7CRzn9iF,2022-06-25_16h34.28.459,jpn_C01,2022.1.2,Win32,60.0528465,,,space,2.4893,0,24,24,42,1,プミ　ムク　ルピン,,,CartoonStims/cowboy_punch_burglar_r.jpg,audio/pumimukulupin.mp3,,,,,,,,,,,,,,,,,,,,,,,,,,,,,,,,,,,,,,,,,,,,,,,,,,,,,,,,,,,,,,,,,,,,,,,,,,
,,,,,,,,,R_UKoR3YU7CRzn9iF,2022-06-25_16h34.28.459,jpn_C01,2022.1.2,Win32,60.0528465,,,space,2.6366,0,25,25,32,1,パツ　ピポ　ルピン,,,CartoonStims/doctor_shoot_burglar_r.jpg,audio/patsupipolupin.mp3,,,,,,,,,,,,,,,,,,,,,,,,,,,,,,,,,,,,,,,,,,,,,,,,,,,,,,,,,,,,,,,,,,,,,,,,,,
,,,,,,,,,R_UKoR3YU7CRzn9iF,2022-06-25_16h34.28.459,jpn_C01,2022.1.2,Win32,60.0528465,,,space,2.9288,0,26,26,39,1,プミ　ルピン　シド,,,CartoonStims/burglar_punch_artist_r.jpg,audio/pumilupinsido.mp3,,,,,,,,,,,,,,,,,,,,,,,,,,,,,,,,,,,,,,,,,,,,,,,,,,,,,,,,,,,,,,,,,,,,,,,,,,
,,,,,,,,,R_UKoR3YU7CRzn9iF,2022-06-25_16h34.28.459,jpn_C01,2022.1.2,Win32,60.0528465,,,space,2.7865,0,27,27,23,1,トマ　ドキ　ホレト,,,CartoonStims/boxer_point_chef_r.jpg,audio/tomadokihoreto.mp3,,,,,,,,,,,,,,,,,,,,,,,,,,,,,,,,,,,,,,,,,,,,,,,,,,,,,,,,,,,,,,,,,,,,,,,,,,
,,,,,,,,,R_UKoR3YU7CRzn9iF,2022-06-25_16h34.28.459,jpn_C01,2022.1.2,Win32,60.0528465,,,space,3.0725,0,28,28,33,1,パツ　ピポ　ホレト,,,CartoonStims/doctor_shoot_chef_r.jpg,audio/patsupipohoreto.mp3,,,,,,,,,,,,,,,,,,,,,,,,,,,,,,,,,,,,,,,,,,,,,,,,,,,,,,,,,,,,,,,,,,,,,,,,,,
,,,,,,,,,R_UKoR3YU7CRzn9iF,2022-06-25_16h34.28.459,jpn_C01,2022.1.2,Win32,60.0528465,,,space,3.4088,0,29,29,3,1,セル　ルピン　ムク,,,CartoonStims/burglar_kick_cowboy_r.jpg,audio/serulupinmuku.mp3,,,,,,,,,,,,,,,,,,,,,,,,,,,,,,,,,,,,,,,,,,,,,,,,,,,,,,,,,,,,,,,,,,,,,,,,,,
,,,,,,,,,R_UKoR3YU7CRzn9iF,2022-06-25_16h34.28.459,jpn_C01,2022.1.2,Win32,60.0528465,,,space,3.1109,0,30,30,46,1,プミ　ドキ　ムク,,,CartoonStims/boxer_punch_cowboy_r.jpg,audio/pumidokimuku.mp3,,,,,,,,,,,,,,,,,,,,,,,,,,,,,,,,,,,,,,,,,,,,,,,,,,,,,,,,,,,,,,,,,,,,,,,,,,
,,,,,,,,,R_UKoR3YU7CRzn9iF,2022-06-25_16h34.28.459,jpn_C01,2022.1.2,Win32,60.0528465,,,space,2.9438,0,31,31,17,1,トマ　ホレト　ドキ,,,CartoonStims/chef_point_boxer_r.jpg,audio/tomahoretodoki.mp3,,,,,,,,,,,,,,,,,,,,,,,,,,,,,,,,,,,,,,,,,,,,,,,,,,,,,,,,,,,,,,,,,,,,,,,,,,
,,,,,,,,,R_UKoR3YU7CRzn9iF,2022-06-25_16h34.28.459,jpn_C01,2022.1.2,Win32,60.0528465,,,space,2.5604,0,32,32,22,1,トマ　ドキ　ルピン,,,CartoonStims/boxer_point_burglar_r.jpg,audio/tomadokilupin.mp3,,,,,,,,,,,,,,,,,,,,,,,,,,,,,,,,,,,,,,,,,,,,,,,,,,,,,,,,,,,,,,,,,,,,,,,,,,
,,,,,,,,,R_UKoR3YU7CRzn9iF,2022-06-25_16h34.28.459,jpn_C01,2022.1.2,Win32,60.0528465,,,space,3.7263,0,33,33,28,1,パツ　ホレト　ドキ,,,CartoonStims/chef_shoot_boxer_r.jpg,audio/patsuhoretodoki.mp3,,,,,,,,,,,,,,,,,,,,,,,,,,,,,,,,,,,,,,,,,,,,,,,,,,,,,,,,,,,,,,,,,,,,,,,,,,
,,,,,,,,,R_UKoR3YU7CRzn9iF,2022-06-25_16h34.28.459,jpn_C01,2022.1.2,Win32,60.0528465,,,space,3.3191,0,34,34,29,1,パツ　ホレト　シド,,,CartoonStims/chef_shoot_artist_r.jpg,audio/patsuhoretosido.mp3,,,,,,,,,,,,,,,,,,,,,,,,,,,,,,,,,,,,,,,,,,,,,,,,,,,,,,,,,,,,,,,,,,,,,,,,,,
,,,,,,,,,R_UKoR3YU7CRzn9iF,2022-06-25_16h34.28.459,jpn_C01,2022.1.2,Win32,60.0528465,,,space,2.7406,0,35,35,27,1,パツ　ルピン　ドキ,,,CartoonStims/burglar_shoot_boxer_r.jpg,audio/patsulupindoki.mp3,,,,,,,,,,,,,,,,,,,,,,,,,,,,,,,,,,,,,,,,,,,,,,,,,,,,,,,,,,,,,,,,,,,,,,,,,,
,,,,,,,,,R_UKoR3YU7CRzn9iF,2022-06-25_16h34.28.459,jpn_C01,2022.1.2,Win32,60.0528465,,,space,2.2306,0,36,36,24,1,パツ　シド　ムク,,,CartoonStims/artist_shoot_cowboy_r.jpg,audio/patsusidomuku.mp3,,,,,,,,,,,,,,,,,,,,,,,,,,,,,,,,,,,,,,,,,,,,,,,,,,,,,,,,,,,,,,,,,,,,,,,,,,
,,,,,,,,,R_UKoR3YU7CRzn9iF,2022-06-25_16h34.28.459,jpn_C01,2022.1.2,Win32,60.0528465,,,space,2.4041,0,37,37,1,1,セル 　シド 　ホレト,,,CartoonStims/artist_kick_chef_r.jpg,audio/serusidohoreto.mp3,,,,,,,,,,,,,,,,,,,,,,,,,,,,,,,,,,,,,,,,,,,,,,,,,,,,,,,,,,,,,,,,,,,,,,,,,,
,,,,,,,,,R_UKoR3YU7CRzn9iF,2022-06-25_16h34.28.459,jpn_C01,2022.1.2,Win32,60.0528465,,,space,2.0985,0,38,38,40,1,プミ　ホレト　シド,,,CartoonStims/chef_punch_artist_r.jpg,audio/pumihoretosido.mp3,,,,,,,,,,,,,,,,,,,,,,,,,,,,,,,,,,,,,,,,,,,,,,,,,,,,,,,,,,,,,,,,,,,,,,,,,,
,,,,,,,,,R_UKoR3YU7CRzn9iF,2022-06-25_16h34.28.459,jpn_C01,2022.1.2,Win32,60.0528465,,,space,2.4618,0,39,39,15,1,トマ　ルピン　ピポ,,,CartoonStims/burglar_point_doctor_r.jpg,audio/tomalupinpipo.mp3,,,,,,,,,,,,,,,,,,,,,,,,,,,,,,,,,,,,,,,,,,,,,,,,,,,,,,,,,,,,,,,,,,,,,,,,,,
,,,,,,,,,R_UKoR3YU7CRzn9iF,2022-06-25_16h34.28.459,jpn_C01,2022.1.2,Win32,60.0528465,,,space,2.2606,0,40,40,12,1,トマ　シド　ホレト,,,CartoonStims/artist_point_chef_r.jpg,audio/tomasidohoreto.mp3,,,,,,,,,,,,,,,,,,,,,,,,,,,,,,,,,,,,,,,,,,,,,,,,,,,,,,,,,,,,,,,,,,,,,,,,,,
,,,,,,,,,R_UKoR3YU7CRzn9iF,2022-06-25_16h34.28.459,jpn_C01,2022.1.2,Win32,60.0528465,,,space,2.3586,0,41,41,10,1,セル　ドキ　シド,,,CartoonStims/boxer_kick_artist_r.jpg,audio/serudokisido.mp3,,,,,,,,,,,,,,,,,,,,,,,,,,,,,,,,,,,,,,,,,,,,,,,,,,,,,,,,,,,,,,,,,,,,,,,,,,
,,,,,,,,,R_UKoR3YU7CRzn9iF,2022-06-25_16h34.28.459,jpn_C01,2022.1.2,Win32,60.0528465,,,space,3.4232,0,42,42,16,1,トマ　ホレト　ピポ,,,CartoonStims/chef_point_doctor_r.jpg,audio/tomahoretopipo.mp3,,,,,,,,,,,,,,,,,,,,,,,,,,,,,,,,,,,,,,,,,,,,,,,,,,,,,,,,,,,,,,,,,,,,,,,,,,
,,,,,,,,,R_UKoR3YU7CRzn9iF,2022-06-25_16h34.28.459,jpn_C01,2022.1.2,Win32,60.0528465,,,space,2.7281,0,43,43,21,1,トマ　ピポ　ルピン,,,CartoonStims/doctor_point_burglar_r.jpg,audio/tomapipolupin.mp3,,,,,,,,,,,,,,,,,,,,,,,,,,,,,,,,,,,,,,,,,,,,,,,,,,,,,,,,,,,,,,,,,,,,,,,,,,
,,,,,,,,,R_UKoR3YU7CRzn9iF,2022-06-25_16h34.28.459,jpn_C01,2022.1.2,Win32,60.0528465,,,space,2.8892,0,44,44,2,1,セル 　ルピン 　ホレト,,,CartoonStims/burglar_kick_chef_r.jpg,audio/serulupinhoreto.mp3,,,,,,,,,,,,,,,,,,,,,,,,,,,,,,,,,,,,,,,,,,,,,,,,,,,,,,,,,,,,,,,,,,,,,,,,,,
,,,,,,,,,R_UKoR3YU7CRzn9iF,2022-06-25_16h34.28.459,jpn_C01,2022.1.2,Win32,60.0528465,,,space,2.1019,0,45,45,14,1,トマ　ルピン　ムク,,,CartoonStims/burglar_point_cowboy_r.jpg,audio/tomalupinmuku.mp3,,,,,,,,,,,,,,,,,,,,,,,,,,,,,,,,,,,,,,,,,,,,,,,,,,,,,,,,,,,,,,,,,,,,,,,,,,
,,,,,,,,,R_UKoR3YU7CRzn9iF,2022-06-25_16h34.28.459,jpn_C01,2022.1.2,Win32,60.0528465,,,space,2.3059,0,46,46,4,1,セル　ホレト　ムク,,,CartoonStims/chef_kick_cowboy_r.jpg,audio/seruhoretomuku.mp3,,,,,,,,,,,,,,,,,,,,,,,,,,,,,,,,,,,,,,,,,,,,,,,,,,,,,,,,,,,,,,,,,,,,,,,,,,
,,,,,,,,,R_UKoR3YU7CRzn9iF,2022-06-25_16h34.28.459,jpn_C01,2022.1.2,Win32,60.0528465,,,space,2.4174,0,47,47,44,1,プミ　ピポ　ホレト,,,CartoonStims/doctor_punch_chef_r.jpg,audio/pumipipohoreto.mp3,,,,,,,,,,,,,,,,,,,,,,,,,,,,,,,,,,,,,,,,,,,,,,,,,,,,,,,,,,,,,,,,,,,,,,,,,,
,,,,,,,,,R_UKoR3YU7CRzn9iF,2022-06-25_16h34.28.459,jpn_C01,2022.1.2,Win32,60.0528465,,,,,,,,,,,,,,,space,1.4916,right,1,4.3779,0,0,0,0,1,,,,,,,,,,,,,,,,,,,,,,,,,,,,,,,,,,,,,,,,,,,,,,,,,,,,,,,,,,,,,,,,
,,,,,,,,,R_UKoR3YU7CRzn9iF,2022-06-25_16h34.28.459,jpn_C01,2022.1.2,Win32,60.0528465,,,,,,,,,,,,,,,,,,,,,,,,,0,0,0,11,1,CartoonStims/burglar_punch_cowboy_r.jpg,プミ　ホレト　ムク,CartoonStims/chef_punch_cowboy_r.jpg,right,CartoonStims/chef_punch_cowboy_r.jpg,audio/pumihoretomuku.mp3,残念！ こちらが正しい画像です。,,,,,,,,,,,,,,,,,,,,,,,,,,,,,,,,,,,,,,,,,,,,,,,,,,,,
,,,,,,,,,R_UKoR3YU7CRzn9iF,2022-06-25_16h34.28.459,jpn_C01,2022.1.2,Win32,60.0528465,,,,,,,,,,,,,,,,,right,1,2.0111,0,0,0,0,1,,,,,,,,,,,,,,,,,,,,,,,,,,,,,,,,,,,,,,,,,,,,,,,,,,,,,,,,,,,,,,,,
,,,,,,,,,R_UKoR3YU7CRzn9iF,2022-06-25_16h34.28.459,jpn_C01,2022.1.2,Win32,60.0528465,,,,,,,,,,,,,,,,,,,,,,,,,0,1,1,5,1,CartoonStims/cowboy_point_chef_r.jpg,パツ　ムク　ホレト,CartoonStims/cowboy_shoot_chef_r.jpg,right,CartoonStims/cowboy_shoot_chef_r.jpg,audio/patsumukuhoreto.mp3,残念！ こちらが正しい画像です。,,,,,,,,,,,,,,,,,,,,,,,,,,,,,,,,,,,,,,,,,,,,,,,,,,,,
,,,,,,,,,R_UKoR3YU7CRzn9iF,2022-06-25_16h34.28.459,jpn_C01,2022.1.2,Win32,60.0528465,,,,,,,,,,,,,,,,,right,1,4.5072,0,0,0,0,1,,,,,,,,,,,,,,,,,,,,,,,,,,,,,,,,,,,,,,,,,,,,,,,,,,,,,,,,,,,,,,,,
,,,,,,,,,R_UKoR3YU7CRzn9iF,2022-06-25_16h34.28.459,jpn_C01,2022.1.2,Win32,60.0528465,,,,,,,,,,,,,,,,,,,,,,,,,0,2,2,1,1,CartoonStims/chef_point_burglar_r.jpg,トマ　ホレト　シド,CartoonStims/chef_point_artist_r.jpg,right,CartoonStims/chef_point_artist_r.jpg,audio/tomahoretosido.mp3,残念！ こちらが正しい画像です。,,,,,,,,,,,,,,,,,,,,,,,,,,,,,,,,,,,,,,,,,,,,,,,,,,,,
,,,,,,,,,R_UKoR3YU7CRzn9iF,2022-06-25_16h34.28.459,jpn_C01,2022.1.2,Win32,60.0528465,,,,,,,,,,,,,,,,,left,1,2.7372,,,,,,,,,,,,,,,,,,0,0,0,0,1,,,,,,,,,,,,,,,,,,,,,,,,,,,,,,,,,,,,,,,,,,,,,,,
,,,,,,,,,R_UKoR3YU7CRzn9iF,2022-06-25_16h34.28.459,jpn_C01,2022.1.2,Win32,60.0528465,,,,,,,,,,,,,,,,,,,,,,,,,0,3,3,2,1,CartoonStims/boxer_shoot_doctor_r.jpg,パツ　ドキ　ピポ,CartoonStims/boxer_shoot_artist_r.jpg,left,CartoonStims/boxer_shoot_doctor_r.jpg,audio/patsudokipipo.mp3,残念！ こちらが正しい画像です。,,,,,,,,,,,,,,,,,,,,,,,,,,,,,,,,,,,,,,,,,,,,,,,,,,,,
,,,,,,,,,R_UKoR3YU7CRzn9iF,2022-06-25_16h34.28.459,jpn_C01,2022.1.2,Win32,60.0528465,,,,,,,,,,,,,,,,,left,1,5.2385,,,,,,,,,,,,,,,,,,0,0,0,0,1,,,,,,,,,,,,,,,,,,,,,,,,,,,,,,,,,,,,,,,,,,,,,,,
,,,,,,,,,R_UKoR3YU7CRzn9iF,2022-06-25_16h34.28.459,jpn_C01,2022.1.2,Win32,60.0528465,,,,,,,,,,,,,,,,,,,,,,,,,0,4,4,0,1,CartoonStims/doctor_kick_burglar_r.jpg,セル　ピポ　ルピン,CartoonStims/doctor_kick_chef_r.jpg,left,CartoonStims/doctor_kick_burglar_r.jpg,audio/serupipolupin.mp3,残念！ こちらが正しい画像です。,,,,,,,,,,,,,,,,,,,,,,,,,,,,,,,,,,,,,,,,,,,,,,,,,,,,
,,,,,,,,,R_UKoR3YU7CRzn9iF,2022-06-25_16h34.28.459,jpn_C01,2022.1.2,Win32,60.0528465,,,,,,,,,,,,,,,,,left,1,4.1244,,,,,,,,,,,,,,,,,,0,0,0,0,1,,,,,,,,,,,,,,,,,,,,,,,,,,,,,,,,,,,,,,,,,,,,,,,
,,,,,,,,,R_UKoR3YU7CRzn9iF,2022-06-25_16h34.28.459,jpn_C01,2022.1.2,Win32,60.0528465,,,,,,,,,,,,,,,,,,,,,,,,,0,5,5,6,1,CartoonStims/doctor_punch_boxer_r.jpg,プミ　ピポ　ドキ,CartoonStims/doctor_shoot_boxer_r.jpg,left,CartoonStims/doctor_punch_boxer_r.jpg,audio/pumipipodoki.mp3,残念！ こちらが正しい画像です。,,,,,,,,,,,,,,,,,,,,,,,,,,,,,,,,,,,,,,,,,,,,,,,,,,,,
,,,,,,,,,R_UKoR3YU7CRzn9iF,2022-06-25_16h34.28.459,jpn_C01,2022.1.2,Win32,60.0528465,,,,,,,,,,,,,,,,,right,1,3.7717,0,0,0,0,1,,,,,,,,,,,,,,,,,,,,,,,,,,,,,,,,,,,,,,,,,,,,,,,,,,,,,,,,,,,,,,,,
,,,,,,,,,R_UKoR3YU7CRzn9iF,2022-06-25_16h34.28.459,jpn_C01,2022.1.2,Win32,60.0528465,,,,,,,,,,,,,,,,,,,,,,,,,0,6,6,9,1,CartoonStims/chef_kick_artist_r.jpg,セル　ムク　シド,CartoonStims/cowboy_kick_artist_r.jpg,right,CartoonStims/cowboy_kick_artist_r.jpg,audio/serumukusido.mp3,残念！ こちらが正しい画像です。,,,,,,,,,,,,,,,,,,,,,,,,,,,,,,,,,,,,,,,,,,,,,,,,,,,,
,,,,,,,,,R_UKoR3YU7CRzn9iF,2022-06-25_16h34.28.459,jpn_C01,2022.1.2,Win32,60.0528465,,,,,,,,,,,,,,,,,left,1,9.6025,,,,,,,,,,,,,,,,,,0,0,0,0,1,,,,,,,,,,,,,,,,,,,,,,,,,,,,,,,,,,,,,,,,,,,,,,,
,,,,,,,,,R_UKoR3YU7CRzn9iF,2022-06-25_16h34.28.459,jpn_C01,2022.1.2,Win32,60.0528465,,,,,,,,,,,,,,,,,,,,,,,,,0,7,7,8,1,CartoonStims/doctor_point_cowboy_r.jpg,トマ　ピポ　ムク,CartoonStims/boxer_point_cowboy_r.jpg,left,CartoonStims/doctor_point_cowboy_r.jpg,audio/tomapipomuku.mp3,残念！ こちらが正しい画像です。,,,,,,,,,,,,,,,,,,,,,,,,,,,,,,,,,,,,,,,,,,,,,,,,,,,,
,,,,,,,,,R_UKoR3YU7CRzn9iF,2022-06-25_16h34.28.459,jpn_C01,2022.1.2,Win32,60.0528465,,,,,,,,,,,,,,,,,right,1,3.5663,0,0,0,0,1,,,,,,,,,,,,,,,,,,,,,,,,,,,,,,,,,,,,,,,,,,,,,,,,,,,,,,,,,,,,,,,,
,,,,,,,,,R_UKoR3YU7CRzn9iF,2022-06-25_16h34.28.459,jpn_C01,2022.1.2,Win32,60.0528465,,,,,,,,,,,,,,,,,,,,,,,,,0,8,8,7,1,CartoonStims/artist_punch_cowboy_r.jpg,セル　シド　ムク,CartoonStims/artist_kick_cowboy_r.jpg,right,CartoonStims/artist_kick_cowboy_r.jpg,audio/serusidomuku.mp3,残念！ こちらが正しい画像です。,,,,,,,,,,,,,,,,,,,,,,,,,,,,,,,,,,,,,,,,,,,,,,,,,,,,
,,,,,,,,,R_UKoR3YU7CRzn9iF,2022-06-25_16h34.28.459,jpn_C01,2022.1.2,Win32,60.0528465,,,,,,,,,,,,,,,,,left,0,2.4036,,,,,,,,,,,,,,,,,,,,,,,,,,,,,,,,,,,,,,,,,,,,,,,,,,,,,,,,,0,0,0,0,1,,,,,,,,
,,,,,,,,,R_UKoR3YU7CRzn9iF,2022-06-25_16h34.28.459,jpn_C01,2022.1.2,Win32,60.0528465,,,,,,,,,,,,,,,,,,,,,,,,,0,9,9,3,1,CartoonStims/cowboy_punch_doctor_r.jpg,プミ　ムク　ドキ,CartoonStims/cowboy_punch_boxer_r.jpg,right,CartoonStims/cowboy_punch_boxer_r.jpg,audio/pumimukudoki.mp3,残念！ こちらが正しい画像です。,,,,,,,,,,,,,,,,,,,,,,,,,,,,,,,,,,,,,,,,,,,,,,,,,,,,
,,,,,,,,,R_UKoR3YU7CRzn9iF,2022-06-25_16h34.28.459,jpn_C01,2022.1.2,Win32,60.0528465,,,,,,,,,,,,,,,,,left,1,2.8236,,,,,,,,,,,,,,,,,,0,0,0,0,1,,,,,,,,,,,,,,,,,,,,,,,,,,,,,,,,,,,,,,,,,,,,,,,
,,,,,,,,,R_UKoR3YU7CRzn9iF,2022-06-25_16h34.28.459,jpn_C01,2022.1.2,Win32,60.0528465,,,,,,,,,,,,,,,,,,,,,,,,,0,10,10,4,1,CartoonStims/burglar_point_boxer_r.jpg,トマ　ルピン　ドキ,CartoonStims/burglar_kick_boxer_r.jpg,left,CartoonStims/burglar_point_boxer_r.jpg,audio/tomalupindoki.mp3,残念！ こちらが正しい画像です。,,,,,,,,,,,,,,,,,,,,,,,,,,,,,,,,,,,,,,,,,,,,,,,,,,,,
,,,,,,,,,R_UKoR3YU7CRzn9iF,2022-06-25_16h34.28.459,jpn_C01,2022.1.2,Win32,60.0528465,,,,,,,,,,,,,,,,,left,1,4.7839,,,,,,,,,,,,,,,,,,0,0,0,0,1,,,,,,,,,,,,,,,,,,,,,,,,,,,,,,,,,,,,,,,,,,,,,,,
,,,,,,,,,R_UKoR3YU7CRzn9iF,2022-06-25_16h34.28.459,jpn_C01,2022.1.2,Win32,60.0528465,,,,,,,,,,,,,,,,,,,,,,,,,0,11,11,10,1,CartoonStims/artist_shoot_burglar_r.jpg,パツ　シド　ルピン,CartoonStims/chef_shoot_burglar_r.jpg,left,CartoonStims/artist_shoot_burglar_r.jpg,audio/patsusidolupin.mp3,残念！ こちらが正しい画像です。,,,,,,,,,,,,,,,,,,,,,,,,,,,,,,,,,,,,,,,,,,,,,,,,,,,,
,,,,,,,,,R_UKoR3YU7CRzn9iF,2022-06-25_16h34.28.459,jpn_C01,2022.1.2,Win32,60.0528465,,,,,,,,,,,,,,,,,,,,,,,,,,,,,,,,,,,,,,,,,,space,4.0443,プミ　ドキ　シド,right,19.0468,0,0,0,0,1,,,,,,,,,,,,,,,,,,,,,,,,,,,,,,,,,,,,,
,,,,,,,,,R_UKoR3YU7CRzn9iF,2022-06-25_16h34.28.459,jpn_C01,2022.1.2,Win32,60.0528465,,,,,,,,,,,,,CartoonStims/boxer_punch_artist_r.jpg,audio/pumidokisido.mp3,,,,,,,,,,,,,,,,,,,,,,,,,,,,,,,,,,,,,,0,0,0,11,1,プミ　ドキ　シド,,,,,,,,,,,,,,,,,,,,,,,,,,,,,,,
,,,,,,,,,R_UKoR3YU7CRzn9iF,2022-06-25_16h34.28.459,jpn_C01,2022.1.2,Win32,60.0528465,,,,,,,,,,,,,,,,,,,,,,,,,,,,,,,,,,,,,,,,,,,,プミ　シド　ルピン,right,11.3462,0,0,0,0,1,,,,,,,,,,,,,,,,,,,,,,,,,,,,,,,,,,,,,
,,,,,,,,,R_UKoR3YU7CRzn9iF,2022-06-25_16h34.28.459,jpn_C01,2022.1.2,Win32,60.0528465,,,,,,,,,,,,,CartoonStims/artist_punch_burglar_r.jpg,audio/pumisidolupin.mp3,,,,,,,,,,,,,,,,,,,,,,,,,,,,,,,,,,,,,,0,1,1,9,1,プミ　シド　ルピン,,,,,,,,,,,,,,,,,,,,,,,,,,,,,,,
,,,,,,,,,R_UKoR3YU7CRzn9iF,2022-06-25_16h34.28.459,jpn_C01,2022.1.2,Win32,60.0528465,,,,,,,,,,,,,,,,,,,,,,,,,,,,,,,,,,,,,,,,,,,,フツ　ドキ　シド,right,39.7143,0,0,0,0,1,,,,,,,,,,,,,,,,,,,,,,,,,,,,,,,,,,,,,
,,,,,,,,,R_UKoR3YU7CRzn9iF,2022-06-25_16h34.28.459,jpn_C01,2022.1.2,Win32,60.0528465,,,,,,,,,,,,,CartoonStims/boxer_kick_cowboy_r.jpg,audio/serudokimuku.mp3,,,,,,,,,,,,,,,,,,,,,,,,,,,,,,,,,,,,,,0,2,2,2,1,セル　ドキ　ムク,,,,,,,,,,,,,,,,,,,,,,,,,,,,,,,
,,,,,,,,,R_UKoR3YU7CRzn9iF,2022-06-25_16h34.28.459,jpn_C01,2022.1.2,Win32,60.0528465,,,,,,,,,,,,,,,,,,,,,,,,,,,,,,,,,,,,,,,,,,,,セル　ピポ　ホレソ,right,19.0989,0,0,0,0,1,,,,,,,,,,,,,,,,,,,,,,,,,,,,,,,,,,,,,
,,,,,,,,,R_UKoR3YU7CRzn9iF,2022-06-25_16h34.28.459,jpn_C01,2022.1.2,Win32,60.0528465,,,,,,,,,,,,,CartoonStims/doctor_kick_chef_r.jpg,audio/serupipohoreto.mp3,,,,,,,,,,,,,,,,,,,,,,,,,,,,,,,,,,,,,,0,3,3,1,1,セル　ピポ　ホレト,,,,,,,,,,,,,,,,,,,,,,,,,,,,,,,
,,,,,,,,,R_UKoR3YU7CRzn9iF,2022-06-25_16h34.28.459,jpn_C01,2022.1.2,Win32,60.0528465,,,,,,,,,,,,,,,,,,,,,,,,,,,,,,,,,,,,,,,,,,,,フス　シド　ドキ,right,20.711,0,0,0,0,1,,,,,,,,,,,,,,,,,,,,,,,,,,,,,,,,,,,,,
,,,,,,,,,R_UKoR3YU7CRzn9iF,2022-06-25_16h34.28.459,jpn_C01,2022.1.2,Win32,60.0528465,,,,,,,,,,,,,CartoonStims/artist_point_boxer_r.jpg,audio/tomasidodoki.mp3,,,,,,,,,,,,,,,,,,,,,,,,,,,,,,,,,,,,,,0,4,4,3,1,トマ　シド　ドキ,,,,,,,,,,,,,,,,,,,,,,,,,,,,,,,
,,,,,,,,,R_UKoR3YU7CRzn9iF,2022-06-25_16h34.28.459,jpn_C01,2022.1.2,Win32,60.0528465,,,,,,,,,,,,,,,,,,,,,,,,,,,,,,,,,,,,,,,,,,,,パツ　ホレト　ムク,right,18.3804,0,0,0,0,1,,,,,,,,,,,,,,,,,,,,,,,,,,,,,,,,,,,,,
,,,,,,,,,R_UKoR3YU7CRzn9iF,2022-06-25_16h34.28.459,jpn_C01,2022.1.2,Win32,60.0528465,,,,,,,,,,,,,CartoonStims/chef_shoot_cowboy_r.jpg,audio/patsuhoretomuku.mp3,,,,,,,,,,,,,,,,,,,,,,,,,,,,,,,,,,,,,,0,5,5,7,1,パツ　ホレト　ムク,,,,,,,,,,,,,,,,,,,,,,,,,,,,,,,
,,,,,,,,,R_UKoR3YU7CRzn9iF,2022-06-25_16h34.28.459,jpn_C01,2022.1.2,Win32,60.0528465,,,,,,,,,,,,,,,,,,,,,,,,,,,,,,,,,,,,,,,,,,,,セル　ムク　ルピン,right,15.2748,0,0,0,0,1,,,,,,,,,,,,,,,,,,,,,,,,,,,,,,,,,,,,,
,,,,,,,,,R_UKoR3YU7CRzn9iF,2022-06-25_16h34.28.459,jpn_C01,2022.1.2,Win32,60.0528465,,,,,,,,,,,,,CartoonStims/cowboy_kick_burglar_r.jpg,audio/serumukulupin.mp3,,,,,,,,,,,,,,,,,,,,,,,,,,,,,,,,,,,,,,0,6,6,0,1,セル　ムク　ルピン,,,,,,,,,,,,,,,,,,,,,,,,,,,,,,,
,,,,,,,,,R_UKoR3YU7CRzn9iF,2022-06-25_16h34.28.459,jpn_C01,2022.1.2,Win32,60.0528465,,,,,,,,,,,,,,,,,,,,,,,,,,,,,,,,,,,,,,,,,,,,パツ　ムク　ピポ,right,7.8697,0,0,0,0,1,,,,,,,,,,,,,,,,,,,,,,,,,,,,,,,,,,,,,
,,,,,,,,,R_UKoR3YU7CRzn9iF,2022-06-25_16h34.28.459,jpn_C01,2022.1.2,Win32,60.0528465,,,,,,,,,,,,,CartoonStims/cowboy_shoot_doctor_r.jpg,audio/patsumukupipo.mp3,,,,,,,,,,,,,,,,,,,,,,,,,,,,,,,,,,,,,,0,7,7,8,1,パツ　ムク　ピポ,,,,,,,,,,,,,,,,,,,,,,,,,,,,,,,
,,,,,,,,,R_UKoR3YU7CRzn9iF,2022-06-25_16h34.28.459,jpn_C01,2022.1.2,Win32,60.0528465,,,,,,,,,,,,,,,,,,,,,,,,,,,,,,,,,,,,,,,,,,,,パツ　ルピン　ホレト,right,12.8175,0,0,0,0,1,,,,,,,,,,,,,,,,,,,,,,,,,,,,,,,,,,,,,
,,,,,,,,,R_UKoR3YU7CRzn9iF,2022-06-25_16h34.28.459,jpn_C01,2022.1.2,Win32,60.0528465,,,,,,,,,,,,,CartoonStims/burglar_shoot_chef_r.jpg,audio/patsulupinhoreto.mp3,,,,,,,,,,,,,,,,,,,,,,,,,,,,,,,,,,,,,,0,8,8,6,1,パツ　ルピン　ホレト,,,,,,,,,,,,,,,,,,,,,,,,,,,,,,,
,,,,,,,,,R_UKoR3YU7CRzn9iF,2022-06-25_16h34.28.459,jpn_C01,2022.1.2,Win32,60.0528465,,,,,,,,,,,,,,,,,,,,,,,,,,,,,,,,,,,,,,,,,,,,プミ　ピポ　ドキ,right,14.7298,0,0,0,0,1,,,,,,,,,,,,,,,,,,,,,,,,,,,,,,,,,,,,,
,,,,,,,,,R_UKoR3YU7CRzn9iF,2022-06-25_16h34.28.459,jpn_C01,2022.1.2,Win32,60.0528465,,,,,,,,,,,,,CartoonStims/doctor_punch_boxer_r.jpg,audio/pumipipodoki.mp3,,,,,,,,,,,,,,,,,,,,,,,,,,,,,,,,,,,,,,0,9,9,10,1,プミ　ピポ　ドキ,,,,,,,,,,,,,,,,,,,,,,,,,,,,,,,
,,,,,,,,,R_UKoR3YU7CRzn9iF,2022-06-25_16h34.28.459,jpn_C01,2022.1.2,Win32,60.0528465,,,,,,,,,,,,,,,,,,,,,,,,,,,,,,,,,,,,,,,,,,,,ホレ　ルピン　シド,right,16.8901,0,0,0,0,1,,,,,,,,,,,,,,,,,,,,,,,,,,,,,,,,,,,,,
,,,,,,,,,R_UKoR3YU7CRzn9iF,2022-06-25_16h34.28.459,jpn_C01,2022.1.2,Win32,60.0528465,,,,,,,,,,,,,CartoonStims/burglar_point_artist_r.jpg,audio/tomalupinsido.mp3,,,,,,,,,,,,,,,,,,,,,,,,,,,,,,,,,,,,,,0,10,10,4,1,トマ　ルピン　シド,,,,,,,,,,,,,,,,,,,,,,,,,,,,,,,
,,,,,,,,,R_UKoR3YU7CRzn9iF,2022-06-25_16h34.28.459,jpn_C01,2022.1.2,Win32,60.0528465,,,,,,,,,,,,,,,,,,,,,,,,,,,,,,,,,,,,,,,,,,,,トマ　ホレソ　ルピン,right,18.5469,0,0,0,0,1,,,,,,,,,,,,,,,,,,,,,,,,,,,,,,,,,,,,,
,,,,,,,,,R_UKoR3YU7CRzn9iF,2022-06-25_16h34.28.459,jpn_C01,2022.1.2,Win32,60.0528465,,,,,,,,,,,,,CartoonStims/chef_point_burglar_r.jpg,audio/tomahoretolupin.mp3,,,,,,,,,,,,,,,,,,,,,,,,,,,,,,,,,,,,,,0,11,11,5,1,トマ　ホレト　ルピン,,,,,,,,,,,,,,,,,,,,,,,,,,,,,,,
,,,,,,,,,R_UKoR3YU7CRzn9iF,2022-06-25_16h34.28.459,jpn_C01,2022.1.2,Win32,60.0528465,,,,,,,,,,,,,,,,,,,,,,,,,,,,,,,,,,,,,,,,,,,,,,,,,,,,,,,,,,,space,3.3247,0,1,1,1,1,AffExposure.xlsx,"第二のトライアルの学習では、この言語で書かれた文を見ていただきます。引き続き注意して、 聞こえた音を復唱してください。


スペースキーを押してください。",1,AffFCT.xlsx,ここからクイズが始まります。 スクリーンに表示されるテキストに合う画像を選んでください。,AffTest.xlsx,1,次にここまで学んだことをアウトプットしていただきます。 表示される画像を描写していると思う単語を、テキストボックスにタイプしてください。 答えを提出したあとに正しい正解が少しの間画面に写ります。,1,"これで第二のトライアルが終了しました。 ここで休憩をとっていただいても構いません。

休憩が終わりましたら、 スペースキーを押して続きの学習を行いましょう。",,,,,,,,,,,,,
,,,,,,,,,R_UKoR3YU7CRzn9iF,2022-06-25_16h34.28.459,jpn_C01,2022.1.2,Win32,60.0528465,space,2.4429,space,8.8947,0,0,0,22,1,トマ　ピク　ドキ　ルピン,,,CartoonStims/boxer_point_burglar_r_no.jpg,audio/tomapikudokilupin.mp3,,,,,,,,,,,,,,,,,,,,,,,,,,,,,,,,,,,,,,,,,,,,,,,,,,,,,,,,,,,,,,,,,,,,,,,,,,
,,,,,,,,,R_UKoR3YU7CRzn9iF,2022-06-25_16h34.28.459,jpn_C01,2022.1.2,Win32,60.0528465,,,space,2.6909,0,1,1,47,1,プミ　ピク　ドキ　ピポ,,,CartoonStims/boxer_punch_doctor_r_no.jpg,audio/pumipikudokipipo.mp3,,,,,,,,,,,,,,,,,,,,,,,,,,,,,,,,,,,,,,,,,,,,,,,,,,,,,,,,,,,,,,,,,,,,,,,,,,
,,,,,,,,,R_UKoR3YU7CRzn9iF,2022-06-25_16h34.28.459,jpn_C01,2022.1.2,Win32,60.0528465,,,space,4.5947,0,2,2,2,1,ピク　セル　ルピン　ホレト,,,CartoonStims/burglar_kick_chef_r_no.jpg,audio/pikuserulupinhoreto.mp3,,,,,,,,,,,,,,,,,,,,,,,,,,,,,,,,,,,,,,,,,,,,,,,,,,,,,,,,,,,,,,,,,,,,,,,,,,
,,,,,,,,,R_UKoR3YU7CRzn9iF,2022-06-25_16h34.28.459,jpn_C01,2022.1.2,Win32,60.0528465,,,space,3.5482,0,3,3,21,1,ピク　トマ　ピポ　ルピン,,,CartoonStims/doctor_point_burglar_r_no.jpg,audio/pikutomapipolupin.mp3,,,,,,,,,,,,,,,,,,,,,,,,,,,,,,,,,,,,,,,,,,,,,,,,,,,,,,,,,,,,,,,,,,,,,,,,,,
,,,,,,,,,R_UKoR3YU7CRzn9iF,2022-06-25_16h34.28.459,jpn_C01,2022.1.2,Win32,60.0528465,,,space,2.6607,0,4,4,32,1,パツ　ピク　ピポ　ルピン,,,CartoonStims/doctor_shoot_burglar_r_no.jpg,audio/patsupikupipolupin.mp3,,,,,,,,,,,,,,,,,,,,,,,,,,,,,,,,,,,,,,,,,,,,,,,,,,,,,,,,,,,,,,,,,,,,,,,,,,
,,,,,,,,,R_UKoR3YU7CRzn9iF,2022-06-25_16h34.28.459,jpn_C01,2022.1.2,Win32,60.0528465,,,space,4.7553,0,5,5,25,1,ピク　パツ　シド　ピポ,,,CartoonStims/artist_shoot_doctor_r_no.jpg,audio/pikupatsusidopipo.mp3,,,,,,,,,,,,,,,,,,,,,,,,,,,,,,,,,,,,,,,,,,,,,,,,,,,,,,,,,,,,,,,,,,,,,,,,,,
,,,,,,,,,R_UKoR3YU7CRzn9iF,2022-06-25_16h34.28.459,jpn_C01,2022.1.2,Win32,60.0528465,,,space,3.4501,0,6,6,35,1,ピク　パツ　ドキ　ムク,,,CartoonStims/boxer_shoot_cowboy_r_no.jpg,audio/pikupatsudokimuku.mp3,,,,,,,,,,,,,,,,,,,,,,,,,,,,,,,,,,,,,,,,,,,,,,,,,,,,,,,,,,,,,,,,,,,,,,,,,,
,,,,,,,,,R_UKoR3YU7CRzn9iF,2022-06-25_16h34.28.459,jpn_C01,2022.1.2,Win32,60.0528465,,,space,2.7968,0,7,7,9,1,セル　ピク　ピポ　シド,,,CartoonStims/doctor_kick_artist_r_no.jpg,audio/serupikupiposido.mp3,,,,,,,,,,,,,,,,,,,,,,,,,,,,,,,,,,,,,,,,,,,,,,,,,,,,,,,,,,,,,,,,,,,,,,,,,,
,,,,,,,,,R_UKoR3YU7CRzn9iF,2022-06-25_16h34.28.459,jpn_C01,2022.1.2,Win32,60.0528465,,,space,7.4735,0,8,8,39,1,プミ　ピク　ルピン　シド,,,CartoonStims/burglar_punch_artist_r_no.jpg,audio/pumipikulupinsido.mp3,,,,,,,,,,,,,,,,,,,,,,,,,,,,,,,,,,,,,,,,,,,,,,,,,,,,,,,,,,,,,,,,,,,,,,,,,,
,,,,,,,,,R_UKoR3YU7CRzn9iF,2022-06-25_16h34.28.459,jpn_C01,2022.1.2,Win32,60.0528465,,,space,3.0757,0,9,9,1,1,セル　ピク　シド　ホレト,,,CartoonStims/artist_kick_chef_r_no.jpg,audio/serupikusidohoreto.mp3,,,,,,,,,,,,,,,,,,,,,,,,,,,,,,,,,,,,,,,,,,,,,,,,,,,,,,,,,,,,,,,,,,,,,,,,,,
,,,,,,,,,R_UKoR3YU7CRzn9iF,2022-06-25_16h34.28.459,jpn_C01,2022.1.2,Win32,60.0528465,,,space,6.9046,0,10,10,3,1,セル　ピク　ルピン　ムク,,,CartoonStims/burglar_kick_cowboy_r_no.jpg,audio/serupikulupinmuku.mp3,,,,,,,,,,,,,,,,,,,,,,,,,,,,,,,,,,,,,,,,,,,,,,,,,,,,,,,,,,,,,,,,,,,,,,,,,,
,,,,,,,,,R_UKoR3YU7CRzn9iF,2022-06-25_16h34.28.459,jpn_C01,2022.1.2,Win32,60.0528465,,,space,7.0501,0,11,11,44,1,ピク　プミ　ピポ　ホレト,,,CartoonStims/doctor_punch_chef_r_no.jpg,audio/pikupumipipohoreto.mp3,,,,,,,,,,,,,,,,,,,,,,,,,,,,,,,,,,,,,,,,,,,,,,,,,,,,,,,,,,,,,,,,,,,,,,,,,,
,,,,,,,,,R_UKoR3YU7CRzn9iF,2022-06-25_16h34.28.459,jpn_C01,2022.1.2,Win32,60.0528465,,,space,3.1748,0,12,12,17,1,ピク　トマ　ホレト　ドキ,,,CartoonStims/chef_point_boxer_r_no.jpg,audio/pikutomahoretodoki.mp3,,,,,,,,,,,,,,,,,,,,,,,,,,,,,,,,,,,,,,,,,,,,,,,,,,,,,,,,,,,,,,,,,,,,,,,,,,
,,,,,,,,,R_UKoR3YU7CRzn9iF,2022-06-25_16h34.28.459,jpn_C01,2022.1.2,Win32,60.0528465,,,space,1.9069,0,13,13,24,1,パツ　ピク　シド　ムク,,,CartoonStims/artist_shoot_cowboy_r_no.jpg,audio/patsupikusidomuku.mp3,,,,,,,,,,,,,,,,,,,,,,,,,,,,,,,,,,,,,,,,,,,,,,,,,,,,,,,,,,,,,,,,,,,,,,,,,,
,,,,,,,,,R_UKoR3YU7CRzn9iF,2022-06-25_16h34.28.459,jpn_C01,2022.1.2,Win32,60.0528465,,,space,1.9127,0,14,14,30,1,パツ　ピク　ムク　シド,,,CartoonStims/cowboy_shoot_artist_r_no.jpg,audio/patsupikumukusido.mp3,,,,,,,,,,,,,,,,,,,,,,,,,,,,,,,,,,,,,,,,,,,,,,,,,,,,,,,,,,,,,,,,,,,,,,,,,,
,,,,,,,,,R_UKoR3YU7CRzn9iF,2022-06-25_16h34.28.459,jpn_C01,2022.1.2,Win32,60.0528465,,,space,2.5875,0,15,15,34,1,パツ　ピク　ドキ　ホレト,,,CartoonStims/boxer_shoot_chef_r_no.jpg,audio/patsupikudokihoreto.mp3,,,,,,,,,,,,,,,,,,,,,,,,,,,,,,,,,,,,,,,,,,,,,,,,,,,,,,,,,,,,,,,,,,,,,,,,,,
,,,,,,,,,R_UKoR3YU7CRzn9iF,2022-06-25_16h34.28.459,jpn_C01,2022.1.2,Win32,60.0528465,,,space,2.3574,0,16,16,28,1,パツ　ピク　ホレト　ドキ,,,CartoonStims/chef_shoot_boxer_r_no.jpg,audio/patsupikuhoretodoki.mp3,,,,,,,,,,,,,,,,,,,,,,,,,,,,,,,,,,,,,,,,,,,,,,,,,,,,,,,,,,,,,,,,,,,,,,,,,,
,,,,,,,,,R_UKoR3YU7CRzn9iF,2022-06-25_16h34.28.459,jpn_C01,2022.1.2,Win32,60.0528465,,,space,3.1575,0,17,17,4,1,ピク　セル　ホレト　ムク,,,CartoonStims/chef_kick_cowboy_r_no.jpg,audio/pikuseruhoretomuku.mp3,,,,,,,,,,,,,,,,,,,,,,,,,,,,,,,,,,,,,,,,,,,,,,,,,,,,,,,,,,,,,,,,,,,,,,,,,,
,,,,,,,,,R_UKoR3YU7CRzn9iF,2022-06-25_16h34.28.459,jpn_C01,2022.1.2,Win32,60.0528465,,,space,2.1713,0,18,18,0,1,ピク　セル　シド　ルピン,,,CartoonStims/artist_kick_burglar_r_no.jpg,audio/pikuserusidolupin.mp3,,,,,,,,,,,,,,,,,,,,,,,,,,,,,,,,,,,,,,,,,,,,,,,,,,,,,,,,,,,,,,,,,,,,,,,,,,
,,,,,,,,,R_UKoR3YU7CRzn9iF,2022-06-25_16h34.28.459,jpn_C01,2022.1.2,Win32,60.0528465,,,space,4.674,0,19,19,37,1,プミ　ピク　シド　ドキ,,,CartoonStims/artist_punch_boxer_r_no.jpg,audio/pumipikusidodoki.mp3,,,,,,,,,,,,,,,,,,,,,,,,,,,,,,,,,,,,,,,,,,,,,,,,,,,,,,,,,,,,,,,,,,,,,,,,,,
,,,,,,,,,R_UKoR3YU7CRzn9iF,2022-06-25_16h34.28.459,jpn_C01,2022.1.2,Win32,60.0528465,,,space,2.1297,0,20,20,8,1,ピク　セル　ピポ　ドキ,,,CartoonStims/doctor_kick_boxer_r_no.jpg,audio/pikuserupipodoki.mp3,,,,,,,,,,,,,,,,,,,,,,,,,,,,,,,,,,,,,,,,,,,,,,,,,,,,,,,,,,,,,,,,,,,,,,,,,,
,,,,,,,,,R_UKoR3YU7CRzn9iF,2022-06-25_16h34.28.459,jpn_C01,2022.1.2,Win32,60.0528465,,,space,3.6951,0,21,21,27,1,ピク　パツ　ルピン　ドキ,,,CartoonStims/burglar_shoot_boxer_r_no.jpg,audio/pikupatsulupindoki.mp3,,,,,,,,,,,,,,,,,,,,,,,,,,,,,,,,,,,,,,,,,,,,,,,,,,,,,,,,,,,,,,,,,,,,,,,,,,
,,,,,,,,,R_UKoR3YU7CRzn9iF,2022-06-25_16h34.28.459,jpn_C01,2022.1.2,Win32,60.0528465,,,space,4.3994,0,22,22,36,1,ピク　プミ　シド　ピポ,,,CartoonStims/artist_punch_doctor_r_no.jpg,audio/pikupumisidopipo.mp3,,,,,,,,,,,,,,,,,,,,,,,,,,,,,,,,,,,,,,,,,,,,,,,,,,,,,,,,,,,,,,,,,,,,,,,,,,
,,,,,,,,,R_UKoR3YU7CRzn9iF,2022-06-25_16h34.28.459,jpn_C01,2022.1.2,Win32,60.0528465,,,space,2.5234,0,23,23,19,1,ピク　トマ　ムク　シド,,,CartoonStims/cowboy_point_artist_r_no.jpg,audio/pikutomamukusido.mp3,,,,,,,,,,,,,,,,,,,,,,,,,,,,,,,,,,,,,,,,,,,,,,,,,,,,,,,,,,,,,,,,,,,,,,,,,,
,,,,,,,,,R_UKoR3YU7CRzn9iF,2022-06-25_16h34.28.459,jpn_C01,2022.1.2,Win32,60.0528465,,,space,3.5346,0,24,24,46,1,ピク　プミ　ドキ　ムク,,,CartoonStims/boxer_punch_cowboy_r_no.jpg,audio/pikupumidokimuku.mp3,,,,,,,,,,,,,,,,,,,,,,,,,,,,,,,,,,,,,,,,,,,,,,,,,,,,,,,,,,,,,,,,,,,,,,,,,,
,,,,,,,,,R_UKoR3YU7CRzn9iF,2022-06-25_16h34.28.459,jpn_C01,2022.1.2,Win32,60.0528465,,,space,4.2299,0,25,25,42,1,ピク　プミ　ムク　ルピン,,,CartoonStims/cowboy_punch_burglar_r_no.jpg,audio/pikupumimukulupin.mp3,,,,,,,,,,,,,,,,,,,,,,,,,,,,,,,,,,,,,,,,,,,,,,,,,,,,,,,,,,,,,,,,,,,,,,,,,,
,,,,,,,,,R_UKoR3YU7CRzn9iF,2022-06-25_16h34.28.459,jpn_C01,2022.1.2,Win32,60.0528465,,,space,6.4912,0,26,26,43,1,プミ　ピク　ムク　ホレト,,,CartoonStims/cowboy_punch_chef_r_no.jpg,audio/pumipikumukuhoreto.mp3,,,,,,,,,,,,,,,,,,,,,,,,,,,,,,,,,,,,,,,,,,,,,,,,,,,,,,,,,,,,,,,,,,,,,,,,,,
,,,,,,,,,R_UKoR3YU7CRzn9iF,2022-06-25_16h34.28.459,jpn_C01,2022.1.2,Win32,60.0528465,,,space,6.0413,0,27,27,5,1,セル　ピク　ホレト　ピポ,,,CartoonStims/chef_kick_doctor_r_no.jpg,audio/serupikuhoretopipo.mp3,,,,,,,,,,,,,,,,,,,,,,,,,,,,,,,,,,,,,,,,,,,,,,,,,,,,,,,,,,,,,,,,,,,,,,,,,,
,,,,,,,,,R_UKoR3YU7CRzn9iF,2022-06-25_16h34.28.459,jpn_C01,2022.1.2,Win32,60.0528465,,,space,5.6293,0,28,28,26,1,パツ　ピク　ルピン　ピポ,,,CartoonStims/burglar_shoot_doctor_r_no.jpg,audio/patsupikulupinpipo.mp3,,,,,,,,,,,,,,,,,,,,,,,,,,,,,,,,,,,,,,,,,,,,,,,,,,,,,,,,,,,,,,,,,,,,,,,,,,
,,,,,,,,,R_UKoR3YU7CRzn9iF,2022-06-25_16h34.28.459,jpn_C01,2022.1.2,Win32,60.0528465,,,space,2.3995,0,29,29,23,1,ピク　トマ　ドキ　ホレト,,,CartoonStims/boxer_point_chef_r_no.jpg,audio/pikutomadokihoreto.mp3,,,,,,,,,,,,,,,,,,,,,,,,,,,,,,,,,,,,,,,,,,,,,,,,,,,,,,,,,,,,,,,,,,,,,,,,,,
,,,,,,,,,R_UKoR3YU7CRzn9iF,2022-06-25_16h34.28.459,jpn_C01,2022.1.2,Win32,60.0528465,,,space,2.1304,0,30,30,7,1,セル　ピク　ムク　ドキ,,,CartoonStims/cowboy_kick_boxer_r_no.jpg,audio/serupikumukudoki.mp3,,,,,,,,,,,,,,,,,,,,,,,,,,,,,,,,,,,,,,,,,,,,,,,,,,,,,,,,,,,,,,,,,,,,,,,,,,
,,,,,,,,,R_UKoR3YU7CRzn9iF,2022-06-25_16h34.28.459,jpn_C01,2022.1.2,Win32,60.0528465,,,space,8.603,0,31,31,31,1,ピク　パツ　ムク　ルピン,,,CartoonStims/cowboy_shoot_burglar_r_no.jpg,audio/pikupatsumukulupin.mp3,,,,,,,,,,,,,,,,,,,,,,,,,,,,,,,,,,,,,,,,,,,,,,,,,,,,,,,,,,,,,,,,,,,,,,,,,,
,,,,,,,,,R_UKoR3YU7CRzn9iF,2022-06-25_16h34.28.459,jpn_C01,2022.1.2,Win32,60.0528465,,,space,3.8829,0,32,32,41,1,プミ　ピク　ホレト　ルピン,,,CartoonStims/chef_punch_burglar_r_no.jpg,audio/pumipikuhoretolupin.mp3,,,,,,,,,,,,,,,,,,,,,,,,,,,,,,,,,,,,,,,,,,,,,,,,,,,,,,,,,,,,,,,,,,,,,,,,,,
,,,,,,,,,R_UKoR3YU7CRzn9iF,2022-06-25_16h34.28.459,jpn_C01,2022.1.2,Win32,60.0528465,,,space,7.3258,0,33,33,29,1,ピク　パツ　ホレト　シド,,,CartoonStims/chef_shoot_artist_r_no.jpg,audio/pikupatsuhoretosido.mp3,,,,,,,,,,,,,,,,,,,,,,,,,,,,,,,,,,,,,,,,,,,,,,,,,,,,,,,,,,,,,,,,,,,,,,,,,,
,,,,,,,,,R_UKoR3YU7CRzn9iF,2022-06-25_16h34.28.459,jpn_C01,2022.1.2,Win32,60.0528465,,,space,2.9779,0,34,34,20,1,トマ　ピク　ピポ　シド,,,CartoonStims/doctor_point_artist_r_no.jpg,audio/tomapikupiposido.mp3,,,,,,,,,,,,,,,,,,,,,,,,,,,,,,,,,,,,,,,,,,,,,,,,,,,,,,,,,,,,,,,,,,,,,,,,,,
,,,,,,,,,R_UKoR3YU7CRzn9iF,2022-06-25_16h34.28.459,jpn_C01,2022.1.2,Win32,60.0528465,,,space,5.1523,0,35,35,13,1,ピク　トマ　シド　ムク,,,CartoonStims/artist_point_cowboy_r_no.jpg,audio/pikutomasidomuku.mp3,,,,,,,,,,,,,,,,,,,,,,,,,,,,,,,,,,,,,,,,,,,,,,,,,,,,,,,,,,,,,,,,,,,,,,,,,,
,,,,,,,,,R_UKoR3YU7CRzn9iF,2022-06-25_16h34.28.459,jpn_C01,2022.1.2,Win32,60.0528465,,,space,1.9696,0,36,36,10,1,ピク　セル　ドキ　シド,,,CartoonStims/boxer_kick_artist_r_no.jpg,audio/pikuserudokisido.mp3,,,,,,,,,,,,,,,,,,,,,,,,,,,,,,,,,,,,,,,,,,,,,,,,,,,,,,,,,,,,,,,,,,,,,,,,,,
,,,,,,,,,R_UKoR3YU7CRzn9iF,2022-06-25_16h34.28.459,jpn_C01,2022.1.2,Win32,60.0528465,,,space,4.8333,0,37,37,15,1,ピク　トマ　ルピン　ピポ,,,CartoonStims/burglar_point_doctor_r_no.jpg,audio/pikutomalupinpipo.mp3,,,,,,,,,,,,,,,,,,,,,,,,,,,,,,,,,,,,,,,,,,,,,,,,,,,,,,,,,,,,,,,,,,,,,,,,,,
,,,,,,,,,R_UKoR3YU7CRzn9iF,2022-06-25_16h34.28.459,jpn_C01,2022.1.2,Win32,60.0528465,,,space,15.0797,0,38,38,40,1,ピク　プミ　ホレト　シド,,,CartoonStims/chef_punch_artist_r_no.jpg,audio/pikupumihoretosido.mp3,,,,,,,,,,,,,,,,,,,,,,,,,,,,,,,,,,,,,,,,,,,,,,,,,,,,,,,,,,,,,,,,,,,,,,,,,,
,,,,,,,,,R_UKoR3YU7CRzn9iF,2022-06-25_16h34.28.459,jpn_C01,2022.1.2,Win32,60.0528465,,,space,7.9713,0,39,39,45,1,プミ　ピク　ピポ　ムク,,,CartoonStims/doctor_punch_cowboy_r_no.jpg,audio/pumipikupipomuku.mp3,,,,,,,,,,,,,,,,,,,,,,,,,,,,,,,,,,,,,,,,,,,,,,,,,,,,,,,,,,,,,,,,,,,,,,,,,,
,,,,,,,,,R_UKoR3YU7CRzn9iF,2022-06-25_16h34.28.459,jpn_C01,2022.1.2,Win32,60.0528465,,,space,3.5671,0,40,40,6,1,ピク　セル　ムク　ピポ,,,CartoonStims/cowboy_kick_doctor_r_no.jpg,audio/pikuserumukupipo.mp3,,,,,,,,,,,,,,,,,,,,,,,,,,,,,,,,,,,,,,,,,,,,,,,,,,,,,,,,,,,,,,,,,,,,,,,,,,
,,,,,,,,,R_UKoR3YU7CRzn9iF,2022-06-25_16h34.28.459,jpn_C01,2022.1.2,Win32,60.0528465,,,space,3.0541,0,41,41,11,1,セル　ピク　ドキ　ルピン,,,CartoonStims/boxer_kick_burglar_r_no.jpg,audio/serupikudokilupin.mp3,,,,,,,,,,,,,,,,,,,,,,,,,,,,,,,,,,,,,,,,,,,,,,,,,,,,,,,,,,,,,,,,,,,,,,,,,,
,,,,,,,,,R_UKoR3YU7CRzn9iF,2022-06-25_16h34.28.459,jpn_C01,2022.1.2,Win32,60.0528465,,,space,2.6701,0,42,42,14,1,トマ　ピク　ルピン　ムク,,,CartoonStims/burglar_point_cowboy_r_no.jpg,audio/tomapikulupinmuku.mp3,,,,,,,,,,,,,,,,,,,,,,,,,,,,,,,,,,,,,,,,,,,,,,,,,,,,,,,,,,,,,,,,,,,,,,,,,,
,,,,,,,,,R_UKoR3YU7CRzn9iF,2022-06-25_16h34.28.459,jpn_C01,2022.1.2,Win32,60.0528465,,,space,2.6118,0,43,43,16,1,トマ　ピク　ホレト　ピポ,,,CartoonStims/chef_point_doctor_r_no.jpg,audio/tomapikuhoretopipo.mp3,,,,,,,,,,,,,,,,,,,,,,,,,,,,,,,,,,,,,,,,,,,,,,,,,,,,,,,,,,,,,,,,,,,,,,,,,,
,,,,,,,,,R_UKoR3YU7CRzn9iF,2022-06-25_16h34.28.459,jpn_C01,2022.1.2,Win32,60.0528465,,,space,2.4674,0,44,44,38,1,ピク　プミ　ルピン　ドキ,,,CartoonStims/burglar_punch_boxer_r_no.jpg,audio/pikupumilupindoki.mp3,,,,,,,,,,,,,,,,,,,,,,,,,,,,,,,,,,,,,,,,,,,,,,,,,,,,,,,,,,,,,,,,,,,,,,,,,,
,,,,,,,,,R_UKoR3YU7CRzn9iF,2022-06-25_16h34.28.459,jpn_C01,2022.1.2,Win32,60.0528465,,,space,3.6698,0,45,45,12,1,トマ　ピク　シド　ホレト,,,CartoonStims/artist_point_chef_r_no.jpg,audio/tomapikusidohoreto.mp3,,,,,,,,,,,,,,,,,,,,,,,,,,,,,,,,,,,,,,,,,,,,,,,,,,,,,,,,,,,,,,,,,,,,,,,,,,
,,,,,,,,,R_UKoR3YU7CRzn9iF,2022-06-25_16h34.28.459,jpn_C01,2022.1.2,Win32,60.0528465,,,space,3.3034,0,46,46,33,1,ピク　パツ　ピポ　ホレト,,,CartoonStims/doctor_shoot_chef_r_no.jpg,audio/pikupatsupipohoreto.mp3,,,,,,,,,,,,,,,,,,,,,,,,,,,,,,,,,,,,,,,,,,,,,,,,,,,,,,,,,,,,,,,,,,,,,,,,,,
,,,,,,,,,R_UKoR3YU7CRzn9iF,2022-06-25_16h34.28.459,jpn_C01,2022.1.2,Win32,60.0528465,,,space,2.4456,0,47,47,18,1,トマ　ピク　ムク　ドキ,,,CartoonStims/cowboy_point_boxer_r_no.jpg,audio/tomapikumukudoki.mp3,,,,,,,,,,,,,,,,,,,,,,,,,,,,,,,,,,,,,,,,,,,,,,,,,,,,,,,,,,,,,,,,,,,,,,,,,,
,,,,,,,,,R_UKoR3YU7CRzn9iF,2022-06-25_16h34.28.459,jpn_C01,2022.1.2,Win32,60.0528465,,,,,,,,,,,,,,,space,0.3391,right,0,4.6033,,,,,,,,,,,,,,,,,,,,,,,,,,,,,,,,,,,,,,,,,,,,,,,,,,,,,,,,,,,,,,0,0,0,0,1,,,
,,,,,,,,,R_UKoR3YU7CRzn9iF,2022-06-25_16h34.28.459,jpn_C01,2022.1.2,Win32,60.0528465,,,,,,,,,,,,,,,,,,,,,,,,,0,0,0,2,1,CartoonStims/doctor_point_boxer_r.jpg,ピク　プミ　ピポ　ドキ,CartoonStims/doctor_punch_boxer_r.jpg,left,CartoonStims/doctor_point_boxer_r.jpg,audio/pikupumipipodoki.mp3,"残念！ こちらが正しい画像です。

否定文は起きていないことを示しているのを思い出してください。",,,,,,,,,,,,,,,,,,,,,,,,,,,,,,,,,,,,,,,,,,,,,,,,,,,,
,,,,,,,,,R_UKoR3YU7CRzn9iF,2022-06-25_16h34.28.459,jpn_C01,2022.1.2,Win32,60.0528465,,,,,,,,,,,,,,,,,right,1,2.3492,0,0,0,0,1,,,,,,,,,,,,,,,,,,,,,,,,,,,,,,,,,,,,,,,,,,,,,,,,,,,,,,,,,,,,,,,,
,,,,,,,,,R_UKoR3YU7CRzn9iF,2022-06-25_16h34.28.459,jpn_C01,2022.1.2,Win32,60.0528465,,,,,,,,,,,,,,,,,,,,,,,,,0,1,1,5,1,CartoonStims/boxer_kick_cowboy_r.jpg,ピク　セル　ドキ　ムク,CartoonStims/boxer_punch_cowboy_r.jpg,right,CartoonStims/boxer_punch_cowboy_r.jpg,audio/pikuserudokimuku.mp3,"残念！ こちらが正しい画像です。

否定文は起きていないことを示しているのを思い出してください。",,,,,,,,,,,,,,,,,,,,,,,,,,,,,,,,,,,,,,,,,,,,,,,,,,,,
,,,,,,,,,R_UKoR3YU7CRzn9iF,2022-06-25_16h34.28.459,jpn_C01,2022.1.2,Win32,60.0528465,,,,,,,,,,,,,,,,,left,1,8.7961,,,,,,,,,,,,,,,,,,0,0,0,0,1,,,,,,,,,,,,,,,,,,,,,,,,,,,,,,,,,,,,,,,,,,,,,,,
,,,,,,,,,R_UKoR3YU7CRzn9iF,2022-06-25_16h34.28.459,jpn_C01,2022.1.2,Win32,60.0528465,,,,,,,,,,,,,,,,,,,,,,,,,0,2,2,0,1,CartoonStims/artist_shoot_burglar_r.jpg,ピク　プミ　シド　ルピン,CartoonStims/artist_punch_burglar_r.jpg,left,CartoonStims/artist_shoot_burglar_r.jpg,audio/pikupumisidolupin.mp3,"残念！ こちらが正しい画像です。

否定文は起きていないことを示しているのを思い出してください。",,,,,,,,,,,,,,,,,,,,,,,,,,,,,,,,,,,,,,,,,,,,,,,,,,,,
,,,,,,,,,R_UKoR3YU7CRzn9iF,2022-06-25_16h34.28.459,jpn_C01,2022.1.2,Win32,60.0528465,,,,,,,,,,,,,,,,,left,1,1.5991,,,,,,,,,,,,,,,,,,0,0,0,0,1,,,,,,,,,,,,,,,,,,,,,,,,,,,,,,,,,,,,,,,,,,,,,,,
,,,,,,,,,R_UKoR3YU7CRzn9iF,2022-06-25_16h34.28.459,jpn_C01,2022.1.2,Win32,60.0528465,,,,,,,,,,,,,,,,,,,,,,,,,0,3,3,4,1,CartoonStims/burglar_shoot_doctor_r.jpg,セル　ピク　ルピン　ピポ,CartoonStims/burglar_kick_doctor_r.jpg,left,CartoonStims/burglar_shoot_doctor_r.jpg,audio/serupikulupinpipo.mp3,"残念！ こちらが正しい画像です。

否定文は起きていないことを示しているのを思い出してください。",,,,,,,,,,,,,,,,,,,,,,,,,,,,,,,,,,,,,,,,,,,,,,,,,,,,
,,,,,,,,,R_UKoR3YU7CRzn9iF,2022-06-25_16h34.28.459,jpn_C01,2022.1.2,Win32,60.0528465,,,,,,,,,,,,,,,,,left,1,3.5669,,,,,,,,,,,,,,,,,,0,0,0,0,1,,,,,,,,,,,,,,,,,,,,,,,,,,,,,,,,,,,,,,,,,,,,,,,
,,,,,,,,,R_UKoR3YU7CRzn9iF,2022-06-25_16h34.28.459,jpn_C01,2022.1.2,Win32,60.0528465,,,,,,,,,,,,,,,,,,,,,,,,,0,4,4,10,1,CartoonStims/doctor_punch_cowboy_r.jpg,ピク　パツ　ピポ　ムク,CartoonStims/doctor_shoot_cowboy_r.jpg,left,CartoonStims/doctor_punch_cowboy_r.jpg,audio/pikupatsupipomuku.mp3,"残念！ こちらが正しい画像です。

否定文は起きていないことを示しているのを思い出してください。",,,,,,,,,,,,,,,,,,,,,,,,,,,,,,,,,,,,,,,,,,,,,,,,,,,,
,,,,,,,,,R_UKoR3YU7CRzn9iF,2022-06-25_16h34.28.459,jpn_C01,2022.1.2,Win32,60.0528465,,,,,,,,,,,,,,,,,left,1,3.0599,,,,,,,,,,,,,,,,,,0,0,0,0,1,,,,,,,,,,,,,,,,,,,,,,,,,,,,,,,,,,,,,,,,,,,,,,,
,,,,,,,,,R_UKoR3YU7CRzn9iF,2022-06-25_16h34.28.459,jpn_C01,2022.1.2,Win32,60.0528465,,,,,,,,,,,,,,,,,,,,,,,,,0,5,5,6,1,CartoonStims/artist_shoot_boxer_r.jpg,トマ　ピク　シド　ドキ,CartoonStims/artist_point_boxer_r.jpg,left,CartoonStims/artist_shoot_boxer_r.jpg,audio/tomapikusidodoki.mp3,"残念！ こちらが正しい画像です。

否定文は起きていないことを示しているのを思い出してください。",,,,,,,,,,,,,,,,,,,,,,,,,,,,,,,,,,,,,,,,,,,,,,,,,,,,
,,,,,,,,,R_UKoR3YU7CRzn9iF,2022-06-25_16h34.28.459,jpn_C01,2022.1.2,Win32,60.0528465,,,,,,,,,,,,,,,,,left,1,1.6942,,,,,,,,,,,,,,,,,,0,0,0,0,1,,,,,,,,,,,,,,,,,,,,,,,,,,,,,,,,,,,,,,,,,,,,,,,
,,,,,,,,,R_UKoR3YU7CRzn9iF,2022-06-25_16h34.28.459,jpn_C01,2022.1.2,Win32,60.0528465,,,,,,,,,,,,,,,,,,,,,,,,,0,6,6,8,1,CartoonStims/burglar_punch_artist_r.jpg,トマ　ピク　ルピン　シド,CartoonStims/burglar_point_artist_r.jpg,left,CartoonStims/burglar_punch_artist_r.jpg,audio/tomapikulupinsido.mp3,"残念！ こちらが正しい画像です。

否定文は起きていないことを示しているのを思い出してください。",,,,,,,,,,,,,,,,,,,,,,,,,,,,,,,,,,,,,,,,,,,,,,,,,,,,
,,,,,,,,,R_UKoR3YU7CRzn9iF,2022-06-25_16h34.28.459,jpn_C01,2022.1.2,Win32,60.0528465,,,,,,,,,,,,,,,,,right,1,1.6505,0,0,0,0,1,,,,,,,,,,,,,,,,,,,,,,,,,,,,,,,,,,,,,,,,,,,,,,,,,,,,,,,,,,,,,,,,
,,,,,,,,,R_UKoR3YU7CRzn9iF,2022-06-25_16h34.28.459,jpn_C01,2022.1.2,Win32,60.0528465,,,,,,,,,,,,,,,,,,,,,,,,,0,7,7,1,1,CartoonStims/chef_punch_cowboy_r.jpg,プミ　ピク　ホレト　ムク,CartoonStims/chef_kick_cowboy_r.jpg,right,CartoonStims/chef_kick_cowboy_r.jpg,audio/pumipikuhoretomuku.mp3,"残念！ こちらが正しい画像です。

否定文は起きていないことを示しているのを思い出してください。",,,,,,,,,,,,,,,,,,,,,,,,,,,,,,,,,,,,,,,,,,,,,,,,,,,,
,,,,,,,,,R_UKoR3YU7CRzn9iF,2022-06-25_16h34.28.459,jpn_C01,2022.1.2,Win32,60.0528465,,,,,,,,,,,,,,,,,right,1,1.7138,0,0,0,0,1,,,,,,,,,,,,,,,,,,,,,,,,,,,,,,,,,,,,,,,,,,,,,,,,,,,,,,,,,,,,,,,,
,,,,,,,,,R_UKoR3YU7CRzn9iF,2022-06-25_16h34.28.459,jpn_C01,2022.1.2,Win32,60.0528465,,,,,,,,,,,,,,,,,,,,,,,,,0,8,8,11,1,CartoonStims/chef_shoot_burglar_r.jpg,パツ　ピク　ホレト　ルピン,CartoonStims/chef_kick_burglar_r.jpg,right,CartoonStims/chef_kick_burglar_r.jpg,audio/patsupikuhoretolupin.mp3,"残念！ こちらが正しい画像です。

否定文は起きていないことを示しているのを思い出してください。",,,,,,,,,,,,,,,,,,,,,,,,,,,,,,,,,,,,,,,,,,,,,,,,,,,,
,,,,,,,,,R_UKoR3YU7CRzn9iF,2022-06-25_16h34.28.459,jpn_C01,2022.1.2,Win32,60.0528465,,,,,,,,,,,,,,,,,right,1,1.6024,0,0,0,0,1,,,,,,,,,,,,,,,,,,,,,,,,,,,,,,,,,,,,,,,,,,,,,,,,,,,,,,,,,,,,,,,,
,,,,,,,,,R_UKoR3YU7CRzn9iF,2022-06-25_16h34.28.459,jpn_C01,2022.1.2,Win32,60.0528465,,,,,,,,,,,,,,,,,,,,,,,,,0,9,9,9,1,CartoonStims/boxer_shoot_doctor_r.jpg,パツ　ピク　ドキ　ピポ,CartoonStims/boxer_point_doctor_r.jpg,right,CartoonStims/boxer_point_doctor_r.jpg,audio/patsupikudokipipo.mp3,"残念！ こちらが正しい画像です。

否定文は起きていないことを示しているのを思い出してください。",,,,,,,,,,,,,,,,,,,,,,,,,,,,,,,,,,,,,,,,,,,,,,,,,,,,
,,,,,,,,,R_UKoR3YU7CRzn9iF,2022-06-25_16h34.28.459,jpn_C01,2022.1.2,Win32,60.0528465,,,,,,,,,,,,,,,,,right,1,1.2435,0,0,0,0,1,,,,,,,,,,,,,,,,,,,,,,,,,,,,,,,,,,,,,,,,,,,,,,,,,,,,,,,,,,,,,,,,
,,,,,,,,,R_UKoR3YU7CRzn9iF,2022-06-25_16h34.28.459,jpn_C01,2022.1.2,Win32,60.0528465,,,,,,,,,,,,,,,,,,,,,,,,,0,10,10,3,1,CartoonStims/chef_kick_artist_r.jpg,ピク　セル　ホレト　シド,CartoonStims/chef_point_artist_r.jpg,right,CartoonStims/chef_point_artist_r.jpg,audio/pikuseruhoretosido.mp3,"残念！ こちらが正しい画像です。

否定文は起きていないことを示しているのを思い出してください。",,,,,,,,,,,,,,,,,,,,,,,,,,,,,,,,,,,,,,,,,,,,,,,,,,,,
,,,,,,,,,R_UKoR3YU7CRzn9iF,2022-06-25_16h34.28.459,jpn_C01,2022.1.2,Win32,60.0528465,,,,,,,,,,,,,,,,,right,1,1.9725,0,0,0,0,1,,,,,,,,,,,,,,,,,,,,,,,,,,,,,,,,,,,,,,,,,,,,,,,,,,,,,,,,,,,,,,,,
,,,,,,,,,R_UKoR3YU7CRzn9iF,2022-06-25_16h34.28.459,jpn_C01,2022.1.2,Win32,60.0528465,,,,,,,,,,,,,,,,,,,,,,,,,0,11,11,7,1,CartoonStims/cowboy_point_chef_r.jpg,ピク　トマ　ムク　ホレト,CartoonStims/cowboy_kick_chef_r.jpg,right,CartoonStims/cowboy_kick_chef_r.jpg,audio/pikutomamukuhoreto.mp3,"残念！ こちらが正しい画像です。

否定文は起きていないことを示しているのを思い出してください。",,,,,,,,,,,,,,,,,,,,,,,,,,,,,,,,,,,,,,,,,,,,,,,,,,,,
,,,,,,,,,R_UKoR3YU7CRzn9iF,2022-06-25_16h34.28.459,jpn_C01,2022.1.2,Win32,60.0528465,,,,,,,,,,,,,CartoonStims/doctor_kick_cowboy_r_no.jpg,,,,,,,,,,,,,,,,,,,,,,,,,,,,,space,2.394,ピク　セル　ピポ　ムク,right,21.0611,,,,,,0,0,0,4,1,,,,,,,,,,,,,,,,,,,,,,,,,,,,,,ピク　セル　ピポ　ムク,セル　ピク　ピポ　ムク,1
,,,,,,,,,R_UKoR3YU7CRzn9iF,2022-06-25_16h34.28.459,jpn_C01,2022.1.2,Win32,60.0528465,,,,,,,,,,,,,CartoonStims/chef_kick_burglar_r_no.jpg,,,,,,,,,,,,,,,,,,,,,,,,,,,,,,,ピク　セル　ホレト　ルピン,right,30.2032,,,,,,0,1,1,2,1,,,,,,,,,,,,,,,,,,,,,,,,,,,,,,ピク　セル　ホレト　ルピン,セル　ピク　ホレト　ルピン,1
,,,,,,,,,R_UKoR3YU7CRzn9iF,2022-06-25_16h34.28.459,jpn_C01,2022.1.2,Win32,60.0528465,,,,,,,,,,,,,CartoonStims/artist_kick_boxer_r_no.jpg,,,,,,,,,,,,,,,,,,,,,,,,,,,,,,,ピク　セル　シド　ドキ,right,10.7929,,,,,,0,2,2,0,1,,,,,,,,,,,,,,,,,,,,,,,,,,,,,,ピク　セル　シド　ドキ,セル　ピク　シド　ドキ,1
,,,,,,,,,R_UKoR3YU7CRzn9iF,2022-06-25_16h34.28.459,jpn_C01,2022.1.2,Win32,60.0528465,,,,,,,,,,,,,CartoonStims/burglar_punch_doctor_r_no.jpg,,,,,,,,,,,,,,,,,,,,,,,,,,,,,,,ピク　プミ　ルピン　ピポ,right,16.985,,,,,,0,3,3,19,1,,,,,,,,,,,,,,,,,,,,,,,,,,,,,,ピク　プミ　ルピン　ピポ,プミ　ピク　ルピン　ピポ,1
,,,,,,,,,R_UKoR3YU7CRzn9iF,2022-06-25_16h34.28.459,jpn_C01,2022.1.2,Win32,60.0528465,,,,,,,,,,,,,CartoonStims/doctor_kick_chef_r.jpg,,,,,,,,,,,,,,,,,,,,,,,,,,,,,,,セル　ピポ　ホレト,right,15.2749,,,,,,0,4,4,25,1,,,,,,,,,,,,,,,,,,,,,,,,,,,,,,セル　ピポ　ホレト,セル　ピポ　ホレト,0
,,,,,,,,,R_UKoR3YU7CRzn9iF,2022-06-25_16h34.28.459,jpn_C01,2022.1.2,Win32,60.0528465,,,,,,,,,,,,,CartoonStims/doctor_shoot_artist_r_no.jpg,,,,,,,,,,,,,,,,,,,,,,,,,,,,,,,プミ　パツ　ピポ　シド,right,15.5052,,,,,,0,5,5,16,1,,,,,,,,,,,,,,,,,,,,,,,,,,,,,,ピク　パツ　ピポ　シド,パツ　ピク　ピポ　シド,1
,,,,,,,,,R_UKoR3YU7CRzn9iF,2022-06-25_16h34.28.459,jpn_C01,2022.1.2,Win32,60.0528465,,,,,,,,,,,,,CartoonStims/boxer_shoot_burglar_r_no.jpg,,,,,,,,,,,,,,,,,,,,,,,,,,,,,,,ピク　パツ　ドキ　ルピン,right,20.1865,,,,,,0,6,6,17,1,,,,,,,,,,,,,,,,,,,,,,,,,,,,,,ピク　パツ　ドキ　ルピン,パツ　ピク　ドキ　ルピン,1
,,,,,,,,,R_UKoR3YU7CRzn9iF,2022-06-25_16h34.28.459,jpn_C01,2022.1.2,Win32,60.0528465,,,,,,,,,,,,,CartoonStims/cowboy_point_doctor_r_no.jpg,,,,,,,,,,,,,,,,,,,,,,,,,,,,,,,ピク　トマ　シド　ピポ,right,15.741,,,,,,0,7,7,9,1,,,,,,,,,,,,,,,,,,,,,,,,,,,,,,ピク　トマ　ムク　ピポ,トマ　ピク　ムク　ピポ,1
,,,,,,,,,R_UKoR3YU7CRzn9iF,2022-06-25_16h34.28.459,jpn_C01,2022.1.2,Win32,60.0528465,,,,,,,,,,,,,CartoonStims/cowboy_kick_burglar_r.jpg,,,,,,,,,,,,,,,,,,,,,,,,,,,,,,,セル　シド　ルピン,right,15.0608,,,,,,0,8,8,24,1,,,,,,,,,,,,,,,,,,,,,,,,,,,,,,セル　ムク　ルピン,セル　ムク　ルピン,0
,,,,,,,,,R_UKoR3YU7CRzn9iF,2022-06-25_16h34.28.459,jpn_C01,2022.1.2,Win32,60.0528465,,,,,,,,,,,,,CartoonStims/cowboy_shoot_boxer_r_no.jpg,,,,,,,,,,,,,,,,,,,,,,,,,,,,,,,ピク　パツ　シド　ドキ,right,13.8346,,,,,,0,9,9,15,1,,,,,,,,,,,,,,,,,,,,,,,,,,,,,,ピク　パツ　ムク　ドキ,パツ　ピク　ムク　ドキ,1
,,,,,,,,,R_UKoR3YU7CRzn9iF,2022-06-25_16h34.28.459,jpn_C01,2022.1.2,Win32,60.0528465,,,,,,,,,,,,,CartoonStims/chef_punch_boxer_r_no.jpg,,,,,,,,,,,,,,,,,,,,,,,,,,,,,,,プミ　ピク　ホレト　ドキ,right,37.152,,,,,,0,10,10,20,1,,,,,,,,,,,,,,,,,,,,,,,,,,,,,,ピク　プミ　ホレト　ドキ,プミ　ピク　ホレト　ドキ,1
,,,,,,,,,R_UKoR3YU7CRzn9iF,2022-06-25_16h34.28.459,jpn_C01,2022.1.2,Win32,60.0528465,,,,,,,,,,,,,CartoonStims/chef_shoot_cowboy_r.jpg,,,,,,,,,,,,,,,,,,,,,,,,,,,,,,,パツ　ホレト　シド,right,11.2406,,,,,,0,11,11,31,1,,,,,,,,,,,,,,,,,,,,,,,,,,,,,,パツ　ホレト　ムク,パツ　ホレト　ムク,0
,,,,,,,,,R_UKoR3YU7CRzn9iF,2022-06-25_16h34.28.459,jpn_C01,2022.1.2,Win32,60.0528465,,,,,,,,,,,,,CartoonStims/artist_shoot_chef_r_no.jpg,,,,,,,,,,,,,,,,,,,,,,,,,,,,,,,ピク　パツ　シド　ホレト,right,22.2228,,,,,,0,12,12,12,1,,,,,,,,,,,,,,,,,,,,,,,,,,,,,,ピク　パツ　シド　ホレト,パツ　ピク　シド　ホレト,1
,,,,,,,,,R_UKoR3YU7CRzn9iF,2022-06-25_16h34.28.459,jpn_C01,2022.1.2,Win32,60.0528465,,,,,,,,,,,,,CartoonStims/boxer_punch_chef_r_no.jpg,,,,,,,,,,,,,,,,,,,,,,,,,,,,,,,プミ　ピク　ドキ　ホレト,right,18.6906,,,,,,0,13,13,23,1,,,,,,,,,,,,,,,,,,,,,,,,,,,,,,ピク　プミ　ドキ　ホレト,プミ　ピク　ドキ　ホレト,1
,,,,,,,,,R_UKoR3YU7CRzn9iF,2022-06-25_16h34.28.459,jpn_C01,2022.1.2,Win32,60.0528465,,,,,,,,,,,,,CartoonStims/boxer_kick_doctor_r_no.jpg,,,,,,,,,,,,,,,,,,,,,,,,,,,,,,,ピク　セル　ドキ　ピポ,right,18.977,,,,,,0,14,14,5,1,,,,,,,,,,,,,,,,,,,,,,,,,,,,,,ピク　セル　ドキ　ピポ,セル　ピク　ドキ　ピポ,1
,,,,,,,,,R_UKoR3YU7CRzn9iF,2022-06-25_16h34.28.459,jpn_C01,2022.1.2,Win32,60.0528465,,,,,,,,,,,,,CartoonStims/artist_punch_cowboy_r_no.jpg,,,,,,,,,,,,,,,,,,,,,,,,,,,,,,,プミ　ピク　シド　ムク,right,23.3717,,,,,,0,15,15,18,1,,,,,,,,,,,,,,,,,,,,,,,,,,,,,,ピク　プミ　シド　ムク,プミ　ピク　シド　ムク,1
,,,,,,,,,R_UKoR3YU7CRzn9iF,2022-06-25_16h34.28.459,jpn_C01,2022.1.2,Win32,60.0528465,,,,,,,,,,,,,CartoonStims/chef_point_burglar_r.jpg,,,,,,,,,,,,,,,,,,,,,,,,,,,,,,,トマ　ホレト　ルピン,right,12.7767,,,,,,0,16,16,29,1,,,,,,,,,,,,,,,,,,,,,,,,,,,,,,トマ　ホレト　ルピン,トマ　ホレト　ルピン,0
,,,,,,,,,R_UKoR3YU7CRzn9iF,2022-06-25_16h34.28.459,jpn_C01,2022.1.2,Win32,60.0528465,,,,,,,,,,,,,CartoonStims/doctor_point_boxer_r_no.jpg,,,,,,,,,,,,,,,,,,,,,,,,,,,,,,,ピク　トマ　ピポ　ドキ,right,19.822,,,,,,0,17,17,10,1,,,,,,,,,,,,,,,,,,,,,,,,,,,,,,ピク　トマ　ピポ　ドキ,トマ　ピク　ピポ　ドキ,1
,,,,,,,,,R_UKoR3YU7CRzn9iF,2022-06-25_16h34.28.459,jpn_C01,2022.1.2,Win32,60.0528465,,,,,,,,,,,,,CartoonStims/artist_point_burglar_r_no.jpg,,,,,,,,,,,,,,,,,,,,,,,,,,,,,,,ピク　トマ,right,16.311,,,,,,0,18,18,6,1,,,,,,,,,,,,,,,,,,,,,,,,,,,,,,ピク　トマ　シド　ルピン,トマ　ピク　シド　ルピン,1
,,,,,,,,,R_UKoR3YU7CRzn9iF,2022-06-25_16h34.28.459,jpn_C01,2022.1.2,Win32,60.0528465,,,,,,,,,,,,,CartoonStims/doctor_punch_boxer_r.jpg,,,,,,,,,,,,,,,,,,,,,,,,,,,,,,,プミ　ピポ　ドキ,right,20.513,,,,,,0,19,19,34,1,,,,,,,,,,,,,,,,,,,,,,,,,,,,,,プミ　ピポ　ドキ,プミ　ピポ　ドキ,0
,,,,,,,,,R_UKoR3YU7CRzn9iF,2022-06-25_16h34.28.459,jpn_C01,2022.1.2,Win32,60.0528465,,,,,,,,,,,,,CartoonStims/burglar_shoot_cowboy_r_no.jpg,,,,,,,,,,,,,,,,,,,,,,,,,,,,,,,ピク　パツ　ルピン　ムク,right,15.6775,,,,,,0,20,20,13,1,,,,,,,,,,,,,,,,,,,,,,,,,,,,,,ピク　パツ　ルピン　ムク,パツ　ピク　ルピン　ムク,1
,,,,,,,,,R_UKoR3YU7CRzn9iF,2022-06-25_16h34.28.459,jpn_C01,2022.1.2,Win32,60.0528465,,,,,,,,,,,,,CartoonStims/burglar_point_artist_r.jpg,,,,,,,,,,,,,,,,,,,,,,,,,,,,,,,トマ　ルピン　シド,right,7.5131,,,,,,0,21,21,28,1,,,,,,,,,,,,,,,,,,,,,,,,,,,,,,トマ　ルピン　シド,トマ　ルピン　シド,0
,,,,,,,,,R_UKoR3YU7CRzn9iF,2022-06-25_16h34.28.459,jpn_C01,2022.1.2,Win32,60.0528465,,,,,,,,,,,,,CartoonStims/doctor_punch_burglar_r_no.jpg,,,,,,,,,,,,,,,,,,,,,,,,,,,,,,,プミ　ピク　ピポ　ルピン,right,24.2462,,,,,,0,22,22,22,1,,,,,,,,,,,,,,,,,,,,,,,,,,,,,,ピク　プミ　ピポ　ルピン,プミ　ピク　ピポ　ルピン,1
,,,,,,,,,R_UKoR3YU7CRzn9iF,2022-06-25_16h34.28.459,jpn_C01,2022.1.2,Win32,60.0528465,,,,,,,,,,,,,CartoonStims/burglar_shoot_chef_r.jpg,,,,,,,,,,,,,,,,,,,,,,,,,,,,,,,パツ　ルピン　ホレト,right,9.2645,,,,,,0,23,23,30,1,,,,,,,,,,,,,,,,,,,,,,,,,,,,,,パツ　ルピン　ホレト,パツ　ルピン　ホレト,0
,,,,,,,,,R_UKoR3YU7CRzn9iF,2022-06-25_16h34.28.459,jpn_C01,2022.1.2,Win32,60.0528465,,,,,,,,,,,,,CartoonStims/burglar_point_chef_r_no.jpg,,,,,,,,,,,,,,,,,,,,,,,,,,,,,,,ピク　トマ　ルピン　ホレト,right,24.0831,,,,,,0,24,24,7,1,,,,,,,,,,,,,,,,,,,,,,,,,,,,,,ピク　トマ　ルピン　ホレト,トマ　ピク　ルピン　ホレト,1
,,,,,,,,,R_UKoR3YU7CRzn9iF,2022-06-25_16h34.28.459,jpn_C01,2022.1.2,Win32,60.0528465,,,,,,,,,,,,,CartoonStims/cowboy_kick_chef_r_no.jpg,,,,,,,,,,,,,,,,,,,,,,,,,,,,,,,ピク　セル　ムク　ホレト,right,20.683,,,,,,0,25,25,3,1,,,,,,,,,,,,,,,,,,,,,,,,,,,,,,ピク　セル　ムク　ホレト,セル　ピク　ムク　ホレト,1
,,,,,,,,,R_UKoR3YU7CRzn9iF,2022-06-25_16h34.28.459,jpn_C01,2022.1.2,Win32,60.0528465,,,,,,,,,,,,,CartoonStims/artist_punch_burglar_r.jpg,,,,,,,,,,,,,,,,,,,,,,,,,,,,,,,プミ　シド　ルピン,right,10.2734,,,,,,0,26,26,33,1,,,,,,,,,,,,,,,,,,,,,,,,,,,,,,プミ　シド　ルピン,プミ　シド　ルピン,0
,,,,,,,,,R_UKoR3YU7CRzn9iF,2022-06-25_16h34.28.459,jpn_C01,2022.1.2,Win32,60.0528465,,,,,,,,,,,,,CartoonStims/cowboy_punch_artist_r_no.jpg,,,,,,,,,,,,,,,,,,,,,,,,,,,,,,,プミ　ピク　ムク　シド,right,15.9739,,,,,,0,27,27,21,1,,,,,,,,,,,,,,,,,,,,,,,,,,,,,,ピク　プミ　ムク　シド,プミ　ピク　ムク　シド,1
,,,,,,,,,R_UKoR3YU7CRzn9iF,2022-06-25_16h34.28.459,jpn_C01,2022.1.2,Win32,60.0528465,,,,,,,,,,,,,CartoonStims/artist_point_boxer_r.jpg,,,,,,,,,,,,,,,,,,,,,,,,,,,,,,,トマ　シド　ドキ,right,7.1606,,,,,,0,28,28,27,1,,,,,,,,,,,,,,,,,,,,,,,,,,,,,,トマ　シド　ドキ,トマ　シド　ドキ,0
,,,,,,,,,R_UKoR3YU7CRzn9iF,2022-06-25_16h34.28.459,jpn_C01,2022.1.2,Win32,60.0528465,,,,,,,,,,,,,CartoonStims/chef_shoot_doctor_r_no.jpg,,,,,,,,,,,,,,,,,,,,,,,,,,,,,,,ピク　パツ　ホレト　ピポ,right,20.4922,,,,,,0,29,29,14,1,,,,,,,,,,,,,,,,,,,,,,,,,,,,,,ピク　パツ　ホレト　ピポ,パツ　ピク　ホレト　ピポ,1
,,,,,,,,,R_UKoR3YU7CRzn9iF,2022-06-25_16h34.28.459,jpn_C01,2022.1.2,Win32,60.0528465,,,,,,,,,,,,,CartoonStims/boxer_punch_artist_r.jpg,,,,,,,,,,,,,,,,,,,,,,,,,,,,,,,プミ　ドキ　シド,right,7.8319,,,,,,0,30,30,35,1,,,,,,,,,,,,,,,,,,,,,,,,,,,,,,プミ　ドキ　シド,プミ　ドキ　シド,0
,,,,,,,,,R_UKoR3YU7CRzn9iF,2022-06-25_16h34.28.459,jpn_C01,2022.1.2,Win32,60.0528465,,,,,,,,,,,,,CartoonStims/boxer_point_artist_r_no.jpg,,,,,,,,,,,,,,,,,,,,,,,,,,,,,,,ピク　トマ　ドキ　シド,right,10.6907,,,,,,0,31,31,11,1,,,,,,,,,,,,,,,,,,,,,,,,,,,,,,ピク　トマ　ドキ　シド,トマ　ピク　ドキ　シド,1
,,,,,,,,,R_UKoR3YU7CRzn9iF,2022-06-25_16h34.28.459,jpn_C01,2022.1.2,Win32,60.0528465,,,,,,,,,,,,,CartoonStims/chef_point_cowboy_r_no.jpg,,,,,,,,,,,,,,,,,,,,,,,,,,,,,,,ピク　トマ　ホレト　ムク,right,14.2939,,,,,,0,32,32,8,1,,,,,,,,,,,,,,,,,,,,,,,,,,,,,,ピク　トマ　ホレト　ムク,トマ　ピク　ホレト　ムク,1
,,,,,,,,,R_UKoR3YU7CRzn9iF,2022-06-25_16h34.28.459,jpn_C01,2022.1.2,Win32,60.0528465,,,,,,,,,,,,,CartoonStims/burglar_kick_artist_r_no.jpg,,,,,,,,,,,,,,,,,,,,,,,,,,,,,,,ピク　セル,right,8.4514,,,,,,0,33,33,1,1,,,,,,,,,,,,,,,,,,,,,,,,,,,,,,ピク　セル　ルピン　シド,セル　ピク　ルピン　シド,1
,,,,,,,,,R_UKoR3YU7CRzn9iF,2022-06-25_16h34.28.459,jpn_C01,2022.1.2,Win32,60.0528465,,,,,,,,,,,,,CartoonStims/cowboy_shoot_doctor_r.jpg,,,,,,,,,,,,,,,,,,,,,,,,,,,,,,,パツ　ムク　ピポ,right,15.319,,,,,,0,34,34,32,1,,,,,,,,,,,,,,,,,,,,,,,,,,,,,,パツ　ムク　ピポ,パツ　ムク　ピポ,0
,,,,,,,,,R_UKoR3YU7CRzn9iF,2022-06-25_16h34.28.459,jpn_C01,2022.1.2,Win32,60.0528465,,,,,,,,,,,,,CartoonStims/boxer_kick_cowboy_r.jpg,,,,,,,,,,,,,,,,,,,,,,,,,,,,,,,セル　ドキ　ムク,right,18.7185,,,,,,0,35,35,26,1,,,,,,,,,,,,,,,,,,,,,,,,,,,,,,セル　ドキ　ムク,セル　ドキ　ムク,0
,,,,,,,,,R_UKoR3YU7CRzn9iF,2022-06-25_16h34.28.459,jpn_C01,2022.1.2,Win32,60.0528465,,,,,,,,,,,,,,,,,,,,,,,,,,,,,,,,,,,,,,,,,,,,,,,,,,,,,,,,,,,space,4.3642,0,2,2,2,1,EquiprobableCondition.xlsx,"ここではこの言語における否定の文を学習していただきます。引き続き注意して、 聞こえた音を復唱してください。

スペースキーを押してください。",1,EquiFCT.xlsx,ここからクイズが始まります。 スクリーンに表示されるテキストに合うイメージを選んでください。,NegTest.xlsx,1,最後にここまで学んだことをアウトプットしていただきます。 テキストボックスにあるイメージを描写するテキストを入力してください。 このタスクでは、 答え合わせは行いません。,0,これですべての実験が終わりました。 お疲れさまです。 この後はアンケートに答えていただきます。,,,,,,,,,,,,,