key_resp_instr_a.keys,key_resp_instr_a.rt,key_resp_instr_b.keys,key_resp_instr_b.rt,dummy.thisRepN,dummy.thisTrialN,dummy.thisN,dummy.thisIndex,dummy.ran,participant,date,expName,psychopyVersion,OS,frameRate,key_resp_instr1.keys,key_resp_instr1.rt,key_resp.keys,key_resp.rt,exp_loop.thisRepN,exp_loop.thisTrialN,exp_loop.thisN,exp_loop.thisIndex,exp_loop.ran,Word,English,Flip,Path,Audio,key_resp_instr2.keys,key_resp_instr2.rt,key_resp_fct.keys,key_resp_fct.corr,key_resp_fct.rt,trials_2.thisRepN,trials_2.thisTrialN,trials_2.thisN,trials_2.thisIndex,trials_2.ran,fct_loop.thisRepN,fct_loop.thisTrialN,fct_loop.thisN,fct_loop.thisIndex,fct_loop.ran,left_img,word,right_img,correctans,correct_img,audio,incorrect_feedback,trials.thisRepN,trials.thisTrialN,trials.thisN,trials.thisIndex,trials.ran,trials_3.thisRepN,trials_3.thisTrialN,trials_3.thisN,trials_3.thisIndex,trials_3.ran,key_resp_instr3.keys,key_resp_instr3.rt,textbox.text,key_resp_2.keys,key_resp_2.rt,fb_yn.thisRepN,fb_yn.thisTrialN,fb_yn.thisN,fb_yn.thisIndex,fb_yn.ran,gather_loop.thisRepN,gather_loop.thisTrialN,gather_loop.thisN,gather_loop.thisIndex,gather_loop.ran,Text,Wordbank,key_resp_instr4.keys,key_resp_instr4.rt,master_loop.thisRepN,master_loop.thisTrialN,master_loop.thisN,master_loop.thisIndex,master_loop.ran,exposure_file,instr_1,exp_reps,fct_file,instr_2,gather_file,gather_reps,instr_3,fReps,instr_4,trials_4.thisRepN,trials_4.thisTrialN,trials_4.thisN,trials_4.thisIndex,trials_4.ran,NegVSentence,VNegSentence,NegTF
space,6.083,space,12.4214,0,0,0,0,1,R_5BWLoNagODpTBTz,2022-07-02_18h07.01.454,jpn_C01,2022.1.2,Win32,59.63384817,,,,,,,,,,,,,,,,,,,,,,,,,,,,,,,,,,,,,,,,,,,,,,,,,,,,,,,,,,,,,,,,,,,,,,,,,,,,,,,,,,,,,,,,
,,,,,,,,,R_5BWLoNagODpTBTz,2022-07-02_18h07.01.454,jpn_C01,2022.1.2,Win32,59.63384817,space,8.1765,space,6.8098,0,0,0,1,1,ルピン,burglar,,CartoonStims/burglar_r.jpg,audio/lupin.mp3,,,,,,,,,,,,,,,,,,,,,,,,,,,,,,,,,,,,,,,,,,,,,,,,,,,,,,,,,,,,,,,,,,,,,,,,,,
,,,,,,,,,R_5BWLoNagODpTBTz,2022-07-02_18h07.01.454,jpn_C01,2022.1.2,Win32,59.63384817,,,space,5.7608,0,1,1,3,1,ムク,cowboy,,CartoonStims/cowboy_r.jpg,audio/muku.mp3,,,,,,,,,,,,,,,,,,,,,,,,,,,,,,,,,,,,,,,,,,,,,,,,,,,,,,,,,,,,,,,,,,,,,,,,,,
,,,,,,,,,R_5BWLoNagODpTBTz,2022-07-02_18h07.01.454,jpn_C01,2022.1.2,Win32,59.63384817,,,space,3.6045,0,2,2,0,1,シド,artist,,CartoonStims/artist_r.jpg,audio/sido.mp3,,,,,,,,,,,,,,,,,,,,,,,,,,,,,,,,,,,,,,,,,,,,,,,,,,,,,,,,,,,,,,,,,,,,,,,,,,
,,,,,,,,,R_5BWLoNagODpTBTz,2022-07-02_18h07.01.454,jpn_C01,2022.1.2,Win32,59.63384817,,,space,3.9183,0,3,3,2,1,ホレト,chef,,CartoonStims/chef_r.jpg,audio/horeto.mp3,,,,,,,,,,,,,,,,,,,,,,,,,,,,,,,,,,,,,,,,,,,,,,,,,,,,,,,,,,,,,,,,,,,,,,,,,,
,,,,,,,,,R_5BWLoNagODpTBTz,2022-07-02_18h07.01.454,jpn_C01,2022.1.2,Win32,59.63384817,,,space,4.735599999,0,4,4,5,1,ドキ,boxer,,CartoonStims/boxer_r.jpg,audio/doki.mp3,,,,,,,,,,,,,,,,,,,,,,,,,,,,,,,,,,,,,,,,,,,,,,,,,,,,,,,,,,,,,,,,,,,,,,,,,,
,,,,,,,,,R_5BWLoNagODpTBTz,2022-07-02_18h07.01.454,jpn_C01,2022.1.2,Win32,59.63384817,,,space,3.6933,0,5,5,4,1,ピポ,doctor,,CartoonStims/doctor_r.jpg,audio/pipo.mp3,,,,,,,,,,,,,,,,,,,,,,,,,,,,,,,,,,,,,,,,,,,,,,,,,,,,,,,,,,,,,,,,,,,,,,,,,,
,,,,,,,,,R_5BWLoNagODpTBTz,2022-07-02_18h07.01.454,jpn_C01,2022.1.2,Win32,59.63384817,,,space,2.841400001,1,0,6,5,1,ドキ,boxer,,CartoonStims/boxer_r.jpg,audio/doki.mp3,,,,,,,,,,,,,,,,,,,,,,,,,,,,,,,,,,,,,,,,,,,,,,,,,,,,,,,,,,,,,,,,,,,,,,,,,,
,,,,,,,,,R_5BWLoNagODpTBTz,2022-07-02_18h07.01.454,jpn_C01,2022.1.2,Win32,59.63384817,,,space,2.651700001,1,1,7,4,1,ピポ,doctor,,CartoonStims/doctor_r.jpg,audio/pipo.mp3,,,,,,,,,,,,,,,,,,,,,,,,,,,,,,,,,,,,,,,,,,,,,,,,,,,,,,,,,,,,,,,,,,,,,,,,,,
,,,,,,,,,R_5BWLoNagODpTBTz,2022-07-02_18h07.01.454,jpn_C01,2022.1.2,Win32,59.63384817,,,space,3.0674,1,2,8,2,1,ホレト,chef,,CartoonStims/chef_r.jpg,audio/horeto.mp3,,,,,,,,,,,,,,,,,,,,,,,,,,,,,,,,,,,,,,,,,,,,,,,,,,,,,,,,,,,,,,,,,,,,,,,,,,
,,,,,,,,,R_5BWLoNagODpTBTz,2022-07-02_18h07.01.454,jpn_C01,2022.1.2,Win32,59.63384817,,,space,2.3667,1,3,9,3,1,ムク,cowboy,,CartoonStims/cowboy_r.jpg,audio/muku.mp3,,,,,,,,,,,,,,,,,,,,,,,,,,,,,,,,,,,,,,,,,,,,,,,,,,,,,,,,,,,,,,,,,,,,,,,,,,
,,,,,,,,,R_5BWLoNagODpTBTz,2022-07-02_18h07.01.454,jpn_C01,2022.1.2,Win32,59.63384817,,,space,2.9786,1,4,10,0,1,シド,artist,,CartoonStims/artist_r.jpg,audio/sido.mp3,,,,,,,,,,,,,,,,,,,,,,,,,,,,,,,,,,,,,,,,,,,,,,,,,,,,,,,,,,,,,,,,,,,,,,,,,,
,,,,,,,,,R_5BWLoNagODpTBTz,2022-07-02_18h07.01.454,jpn_C01,2022.1.2,Win32,59.63384817,,,space,2.253299999,1,5,11,1,1,ルピン,burglar,,CartoonStims/burglar_r.jpg,audio/lupin.mp3,,,,,,,,,,,,,,,,,,,,,,,,,,,,,,,,,,,,,,,,,,,,,,,,,,,,,,,,,,,,,,,,,,,,,,,,,,
,,,,,,,,,R_5BWLoNagODpTBTz,2022-07-02_18h07.01.454,jpn_C01,2022.1.2,Win32,59.63384817,,,space,2.0464,2,0,12,0,1,シド,artist,,CartoonStims/artist_r.jpg,audio/sido.mp3,,,,,,,,,,,,,,,,,,,,,,,,,,,,,,,,,,,,,,,,,,,,,,,,,,,,,,,,,,,,,,,,,,,,,,,,,,
,,,,,,,,,R_5BWLoNagODpTBTz,2022-07-02_18h07.01.454,jpn_C01,2022.1.2,Win32,59.63384817,,,space,2.2931,2,1,13,1,1,ルピン,burglar,,CartoonStims/burglar_r.jpg,audio/lupin.mp3,,,,,,,,,,,,,,,,,,,,,,,,,,,,,,,,,,,,,,,,,,,,,,,,,,,,,,,,,,,,,,,,,,,,,,,,,,
,,,,,,,,,R_5BWLoNagODpTBTz,2022-07-02_18h07.01.454,jpn_C01,2022.1.2,Win32,59.63384817,,,space,2.243700001,2,2,14,3,1,ムク,cowboy,,CartoonStims/cowboy_r.jpg,audio/muku.mp3,,,,,,,,,,,,,,,,,,,,,,,,,,,,,,,,,,,,,,,,,,,,,,,,,,,,,,,,,,,,,,,,,,,,,,,,,,
,,,,,,,,,R_5BWLoNagODpTBTz,2022-07-02_18h07.01.454,jpn_C01,2022.1.2,Win32,59.63384817,,,space,1.9348,2,3,15,5,1,ドキ,boxer,,CartoonStims/boxer_r.jpg,audio/doki.mp3,,,,,,,,,,,,,,,,,,,,,,,,,,,,,,,,,,,,,,,,,,,,,,,,,,,,,,,,,,,,,,,,,,,,,,,,,,
,,,,,,,,,R_5BWLoNagODpTBTz,2022-07-02_18h07.01.454,jpn_C01,2022.1.2,Win32,59.63384817,,,space,1.5463,2,4,16,4,1,ピポ,doctor,,CartoonStims/doctor_r.jpg,audio/pipo.mp3,,,,,,,,,,,,,,,,,,,,,,,,,,,,,,,,,,,,,,,,,,,,,,,,,,,,,,,,,,,,,,,,,,,,,,,,,,
,,,,,,,,,R_5BWLoNagODpTBTz,2022-07-02_18h07.01.454,jpn_C01,2022.1.2,Win32,59.63384817,,,space,3.0055,2,5,17,2,1,ホレト,chef,,CartoonStims/chef_r.jpg,audio/horeto.mp3,,,,,,,,,,,,,,,,,,,,,,,,,,,,,,,,,,,,,,,,,,,,,,,,,,,,,,,,,,,,,,,,,,,,,,,,,,
,,,,,,,,,R_5BWLoNagODpTBTz,2022-07-02_18h07.01.454,jpn_C01,2022.1.2,Win32,59.63384817,,,,,,,,,,,,,,,space,2.2349,right,1,2.435700001,0,0,0,0,1,,,,,,,,,,,,,,,,,,,,,,,,,,,,,,,,,,,,,,,,,,,,,,,,,,,,,,,,,,,,,,,,
,,,,,,,,,R_5BWLoNagODpTBTz,2022-07-02_18h07.01.454,jpn_C01,2022.1.2,Win32,59.63384817,,,,,,,,,,,,,,,,,,,,,,,,,0,0,0,9,1,CartoonStims/boxer_r.jpg,ムク,CartoonStims/cowboy_r.jpg,right,CartoonStims/cowboy_r.jpg,audio/muku.mp3,残念！ こちらが正しい画像です。,,,,,,,,,,,,,,,,,,,,,,,,,,,,,,,,,,,,,,,,,,,,,,,,,,,,
,,,,,,,,,R_5BWLoNagODpTBTz,2022-07-02_18h07.01.454,jpn_C01,2022.1.2,Win32,59.63384817,,,,,,,,,,,,,,,,,right,1,1.947900001,0,0,0,0,1,,,,,,,,,,,,,,,,,,,,,,,,,,,,,,,,,,,,,,,,,,,,,,,,,,,,,,,,,,,,,,,,
,,,,,,,,,R_5BWLoNagODpTBTz,2022-07-02_18h07.01.454,jpn_C01,2022.1.2,Win32,59.63384817,,,,,,,,,,,,,,,,,,,,,,,,,0,1,1,8,1,CartoonStims/doctor_r.jpg,ホレト,CartoonStims/chef_r.jpg,right,CartoonStims/chef_r.jpg,audio/horeto.mp3,残念！ こちらが正しい画像です。,,,,,,,,,,,,,,,,,,,,,,,,,,,,,,,,,,,,,,,,,,,,,,,,,,,,
,,,,,,,,,R_5BWLoNagODpTBTz,2022-07-02_18h07.01.454,jpn_C01,2022.1.2,Win32,59.63384817,,,,,,,,,,,,,,,,,right,1,1.310400001,0,0,0,0,1,,,,,,,,,,,,,,,,,,,,,,,,,,,,,,,,,,,,,,,,,,,,,,,,,,,,,,,,,,,,,,,,
,,,,,,,,,R_5BWLoNagODpTBTz,2022-07-02_18h07.01.454,jpn_C01,2022.1.2,Win32,59.63384817,,,,,,,,,,,,,,,,,,,,,,,,,0,2,2,7,1,CartoonStims/cowboy_r.jpg,ルピン,CartoonStims/burglar_r.jpg,right,CartoonStims/burglar_r.jpg,audio/lupin.mp3,残念！ こちらが正しい画像です。,,,,,,,,,,,,,,,,,,,,,,,,,,,,,,,,,,,,,,,,,,,,,,,,,,,,
,,,,,,,,,R_5BWLoNagODpTBTz,2022-07-02_18h07.01.454,jpn_C01,2022.1.2,Win32,59.63384817,,,,,,,,,,,,,,,,,left,1,0.9557,,,,,,,,,,,,,,,,,,0,0,0,0,1,,,,,,,,,,,,,,,,,,,,,,,,,,,,,,,,,,,,,,,,,,,,,,,
,,,,,,,,,R_5BWLoNagODpTBTz,2022-07-02_18h07.01.454,jpn_C01,2022.1.2,Win32,59.63384817,,,,,,,,,,,,,,,,,,,,,,,,,0,3,3,1,1,CartoonStims/burglar_r.jpg,ルピン,CartoonStims/chef_r.jpg,left,CartoonStims/burglar_r.jpg,audio/lupin.mp3,残念！ こちらが正しい画像です。,,,,,,,,,,,,,,,,,,,,,,,,,,,,,,,,,,,,,,,,,,,,,,,,,,,,
,,,,,,,,,R_5BWLoNagODpTBTz,2022-07-02_18h07.01.454,jpn_C01,2022.1.2,Win32,59.63384817,,,,,,,,,,,,,,,,,left,1,1.56,,,,,,,,,,,,,,,,,,0,0,0,0,1,,,,,,,,,,,,,,,,,,,,,,,,,,,,,,,,,,,,,,,,,,,,,,,
,,,,,,,,,R_5BWLoNagODpTBTz,2022-07-02_18h07.01.454,jpn_C01,2022.1.2,Win32,59.63384817,,,,,,,,,,,,,,,,,,,,,,,,,0,4,4,4,1,CartoonStims/doctor_r.jpg,ピポ,CartoonStims/boxer_r.jpg,left,CartoonStims/doctor_r.jpg,audio/pipo.mp3,残念！ こちらが正しい画像です。,,,,,,,,,,,,,,,,,,,,,,,,,,,,,,,,,,,,,,,,,,,,,,,,,,,,
,,,,,,,,,R_5BWLoNagODpTBTz,2022-07-02_18h07.01.454,jpn_C01,2022.1.2,Win32,59.63384817,,,,,,,,,,,,,,,,,right,1,0.657900001,0,0,0,0,1,,,,,,,,,,,,,,,,,,,,,,,,,,,,,,,,,,,,,,,,,,,,,,,,,,,,,,,,,,,,,,,,
,,,,,,,,,R_5BWLoNagODpTBTz,2022-07-02_18h07.01.454,jpn_C01,2022.1.2,Win32,59.63384817,,,,,,,,,,,,,,,,,,,,,,,,,0,5,5,11,1,CartoonStims/burglar_r.jpg,ドキ,CartoonStims/boxer_r.jpg,right,CartoonStims/boxer_r.jpg,audio/doki.mp3,残念！ こちらが正しい画像です。,,,,,,,,,,,,,,,,,,,,,,,,,,,,,,,,,,,,,,,,,,,,,,,,,,,,
,,,,,,,,,R_5BWLoNagODpTBTz,2022-07-02_18h07.01.454,jpn_C01,2022.1.2,Win32,59.63384817,,,,,,,,,,,,,,,,,left,1,1.3694,,,,,,,,,,,,,,,,,,0,0,0,0,1,,,,,,,,,,,,,,,,,,,,,,,,,,,,,,,,,,,,,,,,,,,,,,,
,,,,,,,,,R_5BWLoNagODpTBTz,2022-07-02_18h07.01.454,jpn_C01,2022.1.2,Win32,59.63384817,,,,,,,,,,,,,,,,,,,,,,,,,0,6,6,0,1,CartoonStims/artist_r.jpg,シド,CartoonStims/burglar_r.jpg,left,CartoonStims/artist_r.jpg,audio/sido.mp3,残念！ こちらが正しい画像です。,,,,,,,,,,,,,,,,,,,,,,,,,,,,,,,,,,,,,,,,,,,,,,,,,,,,
,,,,,,,,,R_5BWLoNagODpTBTz,2022-07-02_18h07.01.454,jpn_C01,2022.1.2,Win32,59.63384817,,,,,,,,,,,,,,,,,right,1,2.0053,0,0,0,0,1,,,,,,,,,,,,,,,,,,,,,,,,,,,,,,,,,,,,,,,,,,,,,,,,,,,,,,,,,,,,,,,,
,,,,,,,,,R_5BWLoNagODpTBTz,2022-07-02_18h07.01.454,jpn_C01,2022.1.2,Win32,59.63384817,,,,,,,,,,,,,,,,,,,,,,,,,0,7,7,10,1,CartoonStims/artist_r.jpg,ピポ,CartoonStims/doctor_r.jpg,right,CartoonStims/doctor_r.jpg,audio/pipo.mp3,残念！ こちらが正しい画像です。,,,,,,,,,,,,,,,,,,,,,,,,,,,,,,,,,,,,,,,,,,,,,,,,,,,,
,,,,,,,,,R_5BWLoNagODpTBTz,2022-07-02_18h07.01.454,jpn_C01,2022.1.2,Win32,59.63384817,,,,,,,,,,,,,,,,,left,1,1.011900001,,,,,,,,,,,,,,,,,,0,0,0,0,1,,,,,,,,,,,,,,,,,,,,,,,,,,,,,,,,,,,,,,,,,,,,,,,
,,,,,,,,,R_5BWLoNagODpTBTz,2022-07-02_18h07.01.454,jpn_C01,2022.1.2,Win32,59.63384817,,,,,,,,,,,,,,,,,,,,,,,,,0,8,8,5,1,CartoonStims/boxer_r.jpg,ドキ,CartoonStims/artist_r.jpg,left,CartoonStims/boxer_r.jpg,audio/doki.mp3,残念！ こちらが正しい画像です。,,,,,,,,,,,,,,,,,,,,,,,,,,,,,,,,,,,,,,,,,,,,,,,,,,,,
,,,,,,,,,R_5BWLoNagODpTBTz,2022-07-02_18h07.01.454,jpn_C01,2022.1.2,Win32,59.63384817,,,,,,,,,,,,,,,,,right,0,1.802,,,,,,,,,,,,,,,,,,,,,,,0,0,0,0,1,,,,,,,,,,,,,,,,,,,,,,,,,,,,,,,,,,,,,,,,,,
,,,,,,,,,R_5BWLoNagODpTBTz,2022-07-02_18h07.01.454,jpn_C01,2022.1.2,Win32,59.63384817,,,,,,,,,,,,,,,,,,,,,,,,,0,9,9,3,1,CartoonStims/cowboy_r.jpg,ムク,CartoonStims/doctor_r.jpg,left,CartoonStims/cowboy_r.jpg,audio/muku.mp3,残念！ こちらが正しい画像です。,,,,,,,,,,,,,,,,,,,,,,,,,,,,,,,,,,,,,,,,,,,,,,,,,,,,
,,,,,,,,,R_5BWLoNagODpTBTz,2022-07-02_18h07.01.454,jpn_C01,2022.1.2,Win32,59.63384817,,,,,,,,,,,,,,,,,left,1,3.2404,,,,,,,,,,,,,,,,,,0,0,0,0,1,,,,,,,,,,,,,,,,,,,,,,,,,,,,,,,,,,,,,,,,,,,,,,,
,,,,,,,,,R_5BWLoNagODpTBTz,2022-07-02_18h07.01.454,jpn_C01,2022.1.2,Win32,59.63384817,,,,,,,,,,,,,,,,,,,,,,,,,0,10,10,2,1,CartoonStims/chef_r.jpg,ホレト,CartoonStims/cowboy_r.jpg,left,CartoonStims/chef_r.jpg,audio/horeto.mp3,残念！ こちらが正しい画像です。,,,,,,,,,,,,,,,,,,,,,,,,,,,,,,,,,,,,,,,,,,,,,,,,,,,,
,,,,,,,,,R_5BWLoNagODpTBTz,2022-07-02_18h07.01.454,jpn_C01,2022.1.2,Win32,59.63384817,,,,,,,,,,,,,,,,,right,1,5.0603,0,0,0,0,1,,,,,,,,,,,,,,,,,,,,,,,,,,,,,,,,,,,,,,,,,,,,,,,,,,,,,,,,,,,,,,,,
,,,,,,,,,R_5BWLoNagODpTBTz,2022-07-02_18h07.01.454,jpn_C01,2022.1.2,Win32,59.63384817,,,,,,,,,,,,,,,,,,,,,,,,,0,11,11,6,1,CartoonStims/chef_r.jpg,シド,CartoonStims/artist_r.jpg,right,CartoonStims/artist_r.jpg,audio/sido.mp3,残念！ こちらが正しい画像です。,,,,,,,,,,,,,,,,,,,,,,,,,,,,,,,,,,,,,,,,,,,,,,,,,,,,
,,,,,,,,,R_5BWLoNagODpTBTz,2022-07-02_18h07.01.454,jpn_C01,2022.1.2,Win32,59.63384817,,,,,,,,,,,,,,,,,,,,,,,,,,,,,,,,,,,,,,,,,,,,,,,space,2.8018,ホレト,right,10.3525,0,0,0,0,1,,,,,,,,,,,,,,,,,,,,,,,,,,,,,,,,
,,,,,,,,,R_5BWLoNagODpTBTz,2022-07-02_18h07.01.454,jpn_C01,2022.1.2,Win32,59.63384817,,,,,,,,,,,,,CartoonStims/chef_r.jpg,audio/horeto.mp3,,,,,,,,,,,,,,,,,,,,,,,,,,,,,,,,,,,,,,,,,,,0,0,0,2,1,ホレト,,,,,,,,,,,,,,,,,,,,,,,,,,
,,,,,,,,,R_5BWLoNagODpTBTz,2022-07-02_18h07.01.454,jpn_C01,2022.1.2,Win32,59.63384817,,,,,,,,,,,,,,,,,,,,,,,,,,,,,,,,,,,,,,,,,,,,,,,,,ルピン,right,4.1518,0,0,0,0,1,,,,,,,,,,,,,,,,,,,,,,,,,,,,,,,,
,,,,,,,,,R_5BWLoNagODpTBTz,2022-07-02_18h07.01.454,jpn_C01,2022.1.2,Win32,59.63384817,,,,,,,,,,,,,CartoonStims/burglar_r.jpg,audio/lupin.mp3,,,,,,,,,,,,,,,,,,,,,,,,,,,,,,,,,,,,,,,,,,,0,1,1,1,1,ルピン,,,,,,,,,,,,,,,,,,,,,,,,,,
,,,,,,,,,R_5BWLoNagODpTBTz,2022-07-02_18h07.01.454,jpn_C01,2022.1.2,Win32,59.63384817,,,,,,,,,,,,,,,,,,,,,,,,,,,,,,,,,,,,,,,,,,,,,,,,,シド,right,17.263,0,0,0,0,1,,,,,,,,,,,,,,,,,,,,,,,,,,,,,,,,
,,,,,,,,,R_5BWLoNagODpTBTz,2022-07-02_18h07.01.454,jpn_C01,2022.1.2,Win32,59.63384817,,,,,,,,,,,,,CartoonStims/doctor_r.jpg,audio/pipo.mp3,,,,,,,,,,,,,,,,,,,,,,,,,,,,,,,,,,,,,,,,,,,0,2,2,4,1,ピポ,,,,,,,,,,,,,,,,,,,,,,,,,,
,,,,,,,,,R_5BWLoNagODpTBTz,2022-07-02_18h07.01.454,jpn_C01,2022.1.2,Win32,59.63384817,,,,,,,,,,,,,,,,,,,,,,,,,,,,,,,,,,,,,,,,,,,,,,,,,ソレト,right,6.3863,0,0,0,0,1,,,,,,,,,,,,,,,,,,,,,,,,,,,,,,,,
,,,,,,,,,R_5BWLoNagODpTBTz,2022-07-02_18h07.01.454,jpn_C01,2022.1.2,Win32,59.63384817,,,,,,,,,,,,,CartoonStims/artist_r.jpg,audio/sido.mp3,,,,,,,,,,,,,,,,,,,,,,,,,,,,,,,,,,,,,,,,,,,0,3,3,0,1,シド,,,,,,,,,,,,,,,,,,,,,,,,,,
,,,,,,,,,R_5BWLoNagODpTBTz,2022-07-02_18h07.01.454,jpn_C01,2022.1.2,Win32,59.63384817,,,,,,,,,,,,,,,,,,,,,,,,,,,,,,,,,,,,,,,,,,,,,,,,,ソレト,right,9.9047,0,0,0,0,1,,,,,,,,,,,,,,,,,,,,,,,,,,,,,,,,
,,,,,,,,,R_5BWLoNagODpTBTz,2022-07-02_18h07.01.454,jpn_C01,2022.1.2,Win32,59.63384817,,,,,,,,,,,,,CartoonStims/cowboy_r.jpg,audio/muku.mp3,,,,,,,,,,,,,,,,,,,,,,,,,,,,,,,,,,,,,,,,,,,0,4,4,3,1,ムク,,,,,,,,,,,,,,,,,,,,,,,,,,
,,,,,,,,,R_5BWLoNagODpTBTz,2022-07-02_18h07.01.454,jpn_C01,2022.1.2,Win32,59.63384817,,,,,,,,,,,,,,,,,,,,,,,,,,,,,,,,,,,,,,,,,,,,,,,,,シド,right,8.1828,0,0,0,0,1,,,,,,,,,,,,,,,,,,,,,,,,,,,,,,,,
,,,,,,,,,R_5BWLoNagODpTBTz,2022-07-02_18h07.01.454,jpn_C01,2022.1.2,Win32,59.63384817,,,,,,,,,,,,,CartoonStims/boxer_r.jpg,audio/doki.mp3,,,,,,,,,,,,,,,,,,,,,,,,,,,,,,,,,,,,,,,,,,,0,5,5,5,1,ドキ,,,,,,,,,,,,,,,,,,,,,,,,,,
,,,,,,,,,R_5BWLoNagODpTBTz,2022-07-02_18h07.01.454,jpn_C01,2022.1.2,Win32,59.63384817,,,,,,,,,,,,,,,,,,,,,,,,,,,,,,,,,,,,,,,,,,,,,,,,,シド,right,7.640900001,0,0,0,0,1,,,,,,,,,,,,,,,,,,,,,,,,,,,,,,,,
,,,,,,,,,R_5BWLoNagODpTBTz,2022-07-02_18h07.01.454,jpn_C01,2022.1.2,Win32,59.63384817,,,,,,,,,,,,,CartoonStims/doctor_r.jpg,audio/pipo.mp3,,,,,,,,,,,,,,,,,,,,,,,,,,,,,,,,,,,,,,,,,,,1,0,6,4,1,ピポ,,,,,,,,,,,,,,,,,,,,,,,,,,
,,,,,,,,,R_5BWLoNagODpTBTz,2022-07-02_18h07.01.454,jpn_C01,2022.1.2,Win32,59.63384817,,,,,,,,,,,,,,,,,,,,,,,,,,,,,,,,,,,,,,,,,,,,,,,,,ムク,right,9.253799999,0,0,0,0,1,,,,,,,,,,,,,,,,,,,,,,,,,,,,,,,,
,,,,,,,,,R_5BWLoNagODpTBTz,2022-07-02_18h07.01.454,jpn_C01,2022.1.2,Win32,59.63384817,,,,,,,,,,,,,CartoonStims/chef_r.jpg,audio/horeto.mp3,,,,,,,,,,,,,,,,,,,,,,,,,,,,,,,,,,,,,,,,,,,1,1,7,2,1,ホレト,,,,,,,,,,,,,,,,,,,,,,,,,,
,,,,,,,,,R_5BWLoNagODpTBTz,2022-07-02_18h07.01.454,jpn_C01,2022.1.2,Win32,59.63384817,,,,,,,,,,,,,,,,,,,,,,,,,,,,,,,,,,,,,,,,,,,,,,,,,ピ歩,right,5.8363,0,0,0,0,1,,,,,,,,,,,,,,,,,,,,,,,,,,,,,,,,
,,,,,,,,,R_5BWLoNagODpTBTz,2022-07-02_18h07.01.454,jpn_C01,2022.1.2,Win32,59.63384817,,,,,,,,,,,,,CartoonStims/artist_r.jpg,audio/sido.mp3,,,,,,,,,,,,,,,,,,,,,,,,,,,,,,,,,,,,,,,,,,,1,2,8,0,1,シド,,,,,,,,,,,,,,,,,,,,,,,,,,
,,,,,,,,,R_5BWLoNagODpTBTz,2022-07-02_18h07.01.454,jpn_C01,2022.1.2,Win32,59.63384817,,,,,,,,,,,,,,,,,,,,,,,,,,,,,,,,,,,,,,,,,,,,,,,,,ピポ,right,12.9388,0,0,0,0,1,,,,,,,,,,,,,,,,,,,,,,,,,,,,,,,,
,,,,,,,,,R_5BWLoNagODpTBTz,2022-07-02_18h07.01.454,jpn_C01,2022.1.2,Win32,59.63384817,,,,,,,,,,,,,CartoonStims/cowboy_r.jpg,audio/muku.mp3,,,,,,,,,,,,,,,,,,,,,,,,,,,,,,,,,,,,,,,,,,,1,3,9,3,1,ムク,,,,,,,,,,,,,,,,,,,,,,,,,,
,,,,,,,,,R_5BWLoNagODpTBTz,2022-07-02_18h07.01.454,jpn_C01,2022.1.2,Win32,59.63384817,,,,,,,,,,,,,,,,,,,,,,,,,,,,,,,,,,,,,,,,,,,,,,,,,ドキ,right,7.035900001,0,0,0,0,1,,,,,,,,,,,,,,,,,,,,,,,,,,,,,,,,
,,,,,,,,,R_5BWLoNagODpTBTz,2022-07-02_18h07.01.454,jpn_C01,2022.1.2,Win32,59.63384817,,,,,,,,,,,,,CartoonStims/boxer_r.jpg,audio/doki.mp3,,,,,,,,,,,,,,,,,,,,,,,,,,,,,,,,,,,,,,,,,,,1,4,10,5,1,ドキ,,,,,,,,,,,,,,,,,,,,,,,,,,
,,,,,,,,,R_5BWLoNagODpTBTz,2022-07-02_18h07.01.454,jpn_C01,2022.1.2,Win32,59.63384817,,,,,,,,,,,,,,,,,,,,,,,,,,,,,,,,,,,,,,,,,,,,,,,,,ルピン,right,4.318599999,0,0,0,0,1,,,,,,,,,,,,,,,,,,,,,,,,,,,,,,,,
,,,,,,,,,R_5BWLoNagODpTBTz,2022-07-02_18h07.01.454,jpn_C01,2022.1.2,Win32,59.63384817,,,,,,,,,,,,,CartoonStims/burglar_r.jpg,audio/lupin.mp3,,,,,,,,,,,,,,,,,,,,,,,,,,,,,,,,,,,,,,,,,,,1,5,11,1,1,ルピン,,,,,,,,,,,,,,,,,,,,,,,,,,
,,,,,,,,,R_5BWLoNagODpTBTz,2022-07-02_18h07.01.454,jpn_C01,2022.1.2,Win32,59.63384817,,,,,,,,,,,,,,,,,,,,,,,,,,,,,,,,,,,,,,,,,,,,,,,,,,,,,,,,,,,,,,,,space,2.534099999,0,0,0,0,1,NounExposure.xlsx,"最初のトライアルでは、 画像が表示され、 その画像の下に単語が出てきます。 またこの単語の音も聞くことができます。 この音を大きな声で復唱してください。 そしてこの画像がどのような単語を示しているのか, 考えてみてください。 その後、 続きのボタンを押すと次の単語の学習が始まります。

スペースキーを押して、学習を始めましょう。",3,NounFCT.xlsx,ここから語彙のクイズが始まります。スクリーンに表示される単語に合う画像をキーボードの右と左の矢印キーを使って選択してください。,NounTest.xlsx,2,次に、これまで学習してきたことをアウトプットしていただきます。 表示される画像を描写していると思う単語を、テキストボックスにタイプしてください。,1,"ここまでが最初のトライアルです。ここで休憩をとっても構いません。

休憩が済みましたら、スペースキーを押して続きを始めましょう。",,,,,,,,
,,,,,,,,,R_5BWLoNagODpTBTz,2022-07-02_18h07.01.454,jpn_C01,2022.1.2,Win32,59.63384817,space,7.7704,space,11.4336,0,0,0,28,1,パツ　ホレト　ドキ,,,CartoonStims/chef_shoot_boxer_r.jpg,audio/patsuhoretodoki.mp3,,,,,,,,,,,,,,,,,,,,,,,,,,,,,,,,,,,,,,,,,,,,,,,,,,,,,,,,,,,,,,,,,,,,,,,,,,
,,,,,,,,,R_5BWLoNagODpTBTz,2022-07-02_18h07.01.454,jpn_C01,2022.1.2,Win32,59.63384817,,,space,6.1982,0,1,1,38,1,プミ　ルピン　ドキ,,,CartoonStims/burglar_punch_boxer_r.jpg,audio/pumilupindoki.mp3,,,,,,,,,,,,,,,,,,,,,,,,,,,,,,,,,,,,,,,,,,,,,,,,,,,,,,,,,,,,,,,,,,,,,,,,,,
,,,,,,,,,R_5BWLoNagODpTBTz,2022-07-02_18h07.01.454,jpn_C01,2022.1.2,Win32,59.63384817,,,space,7.4964,0,2,2,19,1,トマ　ムク　シド,,,CartoonStims/cowboy_point_artist_r.jpg,audio/tomamukusido.mp3,,,,,,,,,,,,,,,,,,,,,,,,,,,,,,,,,,,,,,,,,,,,,,,,,,,,,,,,,,,,,,,,,,,,,,,,,,
,,,,,,,,,R_5BWLoNagODpTBTz,2022-07-02_18h07.01.454,jpn_C01,2022.1.2,Win32,59.63384817,,,space,4.7556,0,3,3,7,1,セル　ムク　ドキ,,,CartoonStims/cowboy_kick_boxer_r.jpg,audio/serumukudoki.mp3,,,,,,,,,,,,,,,,,,,,,,,,,,,,,,,,,,,,,,,,,,,,,,,,,,,,,,,,,,,,,,,,,,,,,,,,,,
,,,,,,,,,R_5BWLoNagODpTBTz,2022-07-02_18h07.01.454,jpn_C01,2022.1.2,Win32,59.63384817,,,space,6.2551,0,4,4,30,1,パツ　ムク　シド,,,CartoonStims/cowboy_shoot_artist_r.jpg,audio/patsumukusido.mp3,,,,,,,,,,,,,,,,,,,,,,,,,,,,,,,,,,,,,,,,,,,,,,,,,,,,,,,,,,,,,,,,,,,,,,,,,,
,,,,,,,,,R_5BWLoNagODpTBTz,2022-07-02_18h07.01.454,jpn_C01,2022.1.2,Win32,59.63384817,,,space,6.0862,0,5,5,40,1,プミ　ホレト　シド,,,CartoonStims/chef_punch_artist_r.jpg,audio/pumihoretosido.mp3,,,,,,,,,,,,,,,,,,,,,,,,,,,,,,,,,,,,,,,,,,,,,,,,,,,,,,,,,,,,,,,,,,,,,,,,,,
,,,,,,,,,R_5BWLoNagODpTBTz,2022-07-02_18h07.01.454,jpn_C01,2022.1.2,Win32,59.63384817,,,space,7.7365,0,6,6,36,1,プミ　シド　ピポ,,,CartoonStims/artist_punch_doctor_r.jpg,audio/pumisidopipo.mp3,,,,,,,,,,,,,,,,,,,,,,,,,,,,,,,,,,,,,,,,,,,,,,,,,,,,,,,,,,,,,,,,,,,,,,,,,,
,,,,,,,,,R_5BWLoNagODpTBTz,2022-07-02_18h07.01.454,jpn_C01,2022.1.2,Win32,59.63384817,,,space,8.661,0,7,7,8,1,セル　ピポ　ドキ,,,CartoonStims/doctor_kick_boxer_r.jpg,audio/serupipodoki.mp3,,,,,,,,,,,,,,,,,,,,,,,,,,,,,,,,,,,,,,,,,,,,,,,,,,,,,,,,,,,,,,,,,,,,,,,,,,
,,,,,,,,,R_5BWLoNagODpTBTz,2022-07-02_18h07.01.454,jpn_C01,2022.1.2,Win32,59.63384817,,,space,3.5071,0,8,8,37,1,プミ　シド　ドキ,,,CartoonStims/artist_punch_boxer_r.jpg,audio/pumisidodoki.mp3,,,,,,,,,,,,,,,,,,,,,,,,,,,,,,,,,,,,,,,,,,,,,,,,,,,,,,,,,,,,,,,,,,,,,,,,,,
,,,,,,,,,R_5BWLoNagODpTBTz,2022-07-02_18h07.01.454,jpn_C01,2022.1.2,Win32,59.63384817,,,space,7.231,0,9,9,43,1,プミ　ムク　ホレト,,,CartoonStims/cowboy_punch_chef_r.jpg,audio/pumimukuhoreto.mp3,,,,,,,,,,,,,,,,,,,,,,,,,,,,,,,,,,,,,,,,,,,,,,,,,,,,,,,,,,,,,,,,,,,,,,,,,,
,,,,,,,,,R_5BWLoNagODpTBTz,2022-07-02_18h07.01.454,jpn_C01,2022.1.2,Win32,59.63384817,,,space,4.2945,0,10,10,12,1,トマ　シド　ホレト,,,CartoonStims/artist_point_chef_r.jpg,audio/tomasidohoreto.mp3,,,,,,,,,,,,,,,,,,,,,,,,,,,,,,,,,,,,,,,,,,,,,,,,,,,,,,,,,,,,,,,,,,,,,,,,,,
,,,,,,,,,R_5BWLoNagODpTBTz,2022-07-02_18h07.01.454,jpn_C01,2022.1.2,Win32,59.63384817,,,space,4.4269,0,11,11,4,1,セル　ホレト　ムク,,,CartoonStims/chef_kick_cowboy_r.jpg,audio/seruhoretomuku.mp3,,,,,,,,,,,,,,,,,,,,,,,,,,,,,,,,,,,,,,,,,,,,,,,,,,,,,,,,,,,,,,,,,,,,,,,,,,
,,,,,,,,,R_5BWLoNagODpTBTz,2022-07-02_18h07.01.454,jpn_C01,2022.1.2,Win32,59.63384817,,,space,4.853,0,12,12,9,1,セル　ピポ　シド,,,CartoonStims/doctor_kick_artist_r.jpg,audio/serupiposido.mp3,,,,,,,,,,,,,,,,,,,,,,,,,,,,,,,,,,,,,,,,,,,,,,,,,,,,,,,,,,,,,,,,,,,,,,,,,,
,,,,,,,,,R_5BWLoNagODpTBTz,2022-07-02_18h07.01.454,jpn_C01,2022.1.2,Win32,59.63384817,,,space,3.7379,0,13,13,32,1,パツ　ピポ　ルピン,,,CartoonStims/doctor_shoot_burglar_r.jpg,audio/patsupipolupin.mp3,,,,,,,,,,,,,,,,,,,,,,,,,,,,,,,,,,,,,,,,,,,,,,,,,,,,,,,,,,,,,,,,,,,,,,,,,,
,,,,,,,,,R_5BWLoNagODpTBTz,2022-07-02_18h07.01.454,jpn_C01,2022.1.2,Win32,59.63384817,,,space,5.854900001,0,14,14,13,1,トマ　シド　ムク,,,CartoonStims/artist_point_cowboy_r.jpg,audio/tomasidomuku.mp3,,,,,,,,,,,,,,,,,,,,,,,,,,,,,,,,,,,,,,,,,,,,,,,,,,,,,,,,,,,,,,,,,,,,,,,,,,
,,,,,,,,,R_5BWLoNagODpTBTz,2022-07-02_18h07.01.454,jpn_C01,2022.1.2,Win32,59.63384817,,,space,4.8842,0,15,15,22,1,トマ　ドキ　ルピン,,,CartoonStims/boxer_point_burglar_r.jpg,audio/tomadokilupin.mp3,,,,,,,,,,,,,,,,,,,,,,,,,,,,,,,,,,,,,,,,,,,,,,,,,,,,,,,,,,,,,,,,,,,,,,,,,,
,,,,,,,,,R_5BWLoNagODpTBTz,2022-07-02_18h07.01.454,jpn_C01,2022.1.2,Win32,59.63384817,,,space,2.834799999,0,16,16,14,1,トマ　ルピン　ムク,,,CartoonStims/burglar_point_cowboy_r.jpg,audio/tomalupinmuku.mp3,,,,,,,,,,,,,,,,,,,,,,,,,,,,,,,,,,,,,,,,,,,,,,,,,,,,,,,,,,,,,,,,,,,,,,,,,,
,,,,,,,,,R_5BWLoNagODpTBTz,2022-07-02_18h07.01.454,jpn_C01,2022.1.2,Win32,59.63384817,,,space,4.7645,0,17,17,21,1,トマ　ピポ　ルピン,,,CartoonStims/doctor_point_burglar_r.jpg,audio/tomapipolupin.mp3,,,,,,,,,,,,,,,,,,,,,,,,,,,,,,,,,,,,,,,,,,,,,,,,,,,,,,,,,,,,,,,,,,,,,,,,,,
,,,,,,,,,R_5BWLoNagODpTBTz,2022-07-02_18h07.01.454,jpn_C01,2022.1.2,Win32,59.63384817,,,space,2.876900001,0,18,18,27,1,パツ　ルピン　ドキ,,,CartoonStims/burglar_shoot_boxer_r.jpg,audio/patsulupindoki.mp3,,,,,,,,,,,,,,,,,,,,,,,,,,,,,,,,,,,,,,,,,,,,,,,,,,,,,,,,,,,,,,,,,,,,,,,,,,
,,,,,,,,,R_5BWLoNagODpTBTz,2022-07-02_18h07.01.454,jpn_C01,2022.1.2,Win32,59.63384817,,,space,5.3237,0,19,19,47,1,プミ　ドキ　ピポ,,,CartoonStims/boxer_punch_doctor_r.jpg,audio/pumidokipipo.mp3,,,,,,,,,,,,,,,,,,,,,,,,,,,,,,,,,,,,,,,,,,,,,,,,,,,,,,,,,,,,,,,,,,,,,,,,,,
,,,,,,,,,R_5BWLoNagODpTBTz,2022-07-02_18h07.01.454,jpn_C01,2022.1.2,Win32,59.63384817,,,space,3.5052,0,20,20,24,1,パツ　シド　ムク,,,CartoonStims/artist_shoot_cowboy_r.jpg,audio/patsusidomuku.mp3,,,,,,,,,,,,,,,,,,,,,,,,,,,,,,,,,,,,,,,,,,,,,,,,,,,,,,,,,,,,,,,,,,,,,,,,,,
,,,,,,,,,R_5BWLoNagODpTBTz,2022-07-02_18h07.01.454,jpn_C01,2022.1.2,Win32,59.63384817,,,space,3.773099999,0,21,21,25,1,パツ　シド　ピポ,,,CartoonStims/artist_shoot_doctor_r.jpg,audio/patsusidopipo.mp3,,,,,,,,,,,,,,,,,,,,,,,,,,,,,,,,,,,,,,,,,,,,,,,,,,,,,,,,,,,,,,,,,,,,,,,,,,
,,,,,,,,,R_5BWLoNagODpTBTz,2022-07-02_18h07.01.454,jpn_C01,2022.1.2,Win32,59.63384817,,,space,4.169,0,22,22,5,1,セル　ホレト　ピポ,,,CartoonStims/chef_kick_doctor_r.jpg,audio/seruhoretopipo.mp3,,,,,,,,,,,,,,,,,,,,,,,,,,,,,,,,,,,,,,,,,,,,,,,,,,,,,,,,,,,,,,,,,,,,,,,,,,
,,,,,,,,,R_5BWLoNagODpTBTz,2022-07-02_18h07.01.454,jpn_C01,2022.1.2,Win32,59.63384817,,,space,3.6514,0,23,23,26,1,パツ　ルピン　ピポ,,,CartoonStims/burglar_shoot_doctor_r.jpg,audio/patsulupinpipo.mp3,,,,,,,,,,,,,,,,,,,,,,,,,,,,,,,,,,,,,,,,,,,,,,,,,,,,,,,,,,,,,,,,,,,,,,,,,,
,,,,,,,,,R_5BWLoNagODpTBTz,2022-07-02_18h07.01.454,jpn_C01,2022.1.2,Win32,59.63384817,,,space,4.4248,0,24,24,34,1,パツ　ドキ　ホレト,,,CartoonStims/boxer_shoot_chef_r.jpg,audio/patsudokihoreto.mp3,,,,,,,,,,,,,,,,,,,,,,,,,,,,,,,,,,,,,,,,,,,,,,,,,,,,,,,,,,,,,,,,,,,,,,,,,,
,,,,,,,,,R_5BWLoNagODpTBTz,2022-07-02_18h07.01.454,jpn_C01,2022.1.2,Win32,59.63384817,,,space,3.4512,0,25,25,39,1,プミ　ルピン　シド,,,CartoonStims/burglar_punch_artist_r.jpg,audio/pumilupinsido.mp3,,,,,,,,,,,,,,,,,,,,,,,,,,,,,,,,,,,,,,,,,,,,,,,,,,,,,,,,,,,,,,,,,,,,,,,,,,
,,,,,,,,,R_5BWLoNagODpTBTz,2022-07-02_18h07.01.454,jpn_C01,2022.1.2,Win32,59.63384817,,,space,3.5215,0,26,26,31,1,パツ　ムク　ルピン,,,CartoonStims/cowboy_shoot_burglar_r.jpg,audio/patsumukulupin.mp3,,,,,,,,,,,,,,,,,,,,,,,,,,,,,,,,,,,,,,,,,,,,,,,,,,,,,,,,,,,,,,,,,,,,,,,,,,
,,,,,,,,,R_5BWLoNagODpTBTz,2022-07-02_18h07.01.454,jpn_C01,2022.1.2,Win32,59.63384817,,,space,4.5888,0,27,27,20,1,トマ　ピポ　シド,,,CartoonStims/doctor_point_artist_r.jpg,audio/tomapiposido.mp3,,,,,,,,,,,,,,,,,,,,,,,,,,,,,,,,,,,,,,,,,,,,,,,,,,,,,,,,,,,,,,,,,,,,,,,,,,
,,,,,,,,,R_5BWLoNagODpTBTz,2022-07-02_18h07.01.454,jpn_C01,2022.1.2,Win32,59.63384817,,,space,3.494299999,0,28,28,11,1,セル　ドキ　ルピン,,,CartoonStims/boxer_kick_burglar_r.jpg,audio/serudokilupin.mp3,,,,,,,,,,,,,,,,,,,,,,,,,,,,,,,,,,,,,,,,,,,,,,,,,,,,,,,,,,,,,,,,,,,,,,,,,,
,,,,,,,,,R_5BWLoNagODpTBTz,2022-07-02_18h07.01.454,jpn_C01,2022.1.2,Win32,59.63384817,,,space,3.3724,0,29,29,15,1,トマ　ルピン　ピポ,,,CartoonStims/burglar_point_doctor_r.jpg,audio/tomalupinpipo.mp3,,,,,,,,,,,,,,,,,,,,,,,,,,,,,,,,,,,,,,,,,,,,,,,,,,,,,,,,,,,,,,,,,,,,,,,,,,
,,,,,,,,,R_5BWLoNagODpTBTz,2022-07-02_18h07.01.454,jpn_C01,2022.1.2,Win32,59.63384817,,,space,2.6384,0,30,30,3,1,セル　ルピン　ムク,,,CartoonStims/burglar_kick_cowboy_r.jpg,audio/serulupinmuku.mp3,,,,,,,,,,,,,,,,,,,,,,,,,,,,,,,,,,,,,,,,,,,,,,,,,,,,,,,,,,,,,,,,,,,,,,,,,,
,,,,,,,,,R_5BWLoNagODpTBTz,2022-07-02_18h07.01.454,jpn_C01,2022.1.2,Win32,59.63384817,,,space,2.862,0,31,31,16,1,トマ　ホレト　ピポ,,,CartoonStims/chef_point_doctor_r.jpg,audio/tomahoretopipo.mp3,,,,,,,,,,,,,,,,,,,,,,,,,,,,,,,,,,,,,,,,,,,,,,,,,,,,,,,,,,,,,,,,,,,,,,,,,,
,,,,,,,,,R_5BWLoNagODpTBTz,2022-07-02_18h07.01.454,jpn_C01,2022.1.2,Win32,59.63384817,,,space,2.5821,0,32,32,6,1,セル　ムク　ピポ,,,CartoonStims/cowboy_kick_doctor_r.jpg,audio/serumukupipo.mp3,,,,,,,,,,,,,,,,,,,,,,,,,,,,,,,,,,,,,,,,,,,,,,,,,,,,,,,,,,,,,,,,,,,,,,,,,,
,,,,,,,,,R_5BWLoNagODpTBTz,2022-07-02_18h07.01.454,jpn_C01,2022.1.2,Win32,59.63384817,,,space,3.2687,0,33,33,2,1,セル 　ルピン 　ホレト,,,CartoonStims/burglar_kick_chef_r.jpg,audio/serulupinhoreto.mp3,,,,,,,,,,,,,,,,,,,,,,,,,,,,,,,,,,,,,,,,,,,,,,,,,,,,,,,,,,,,,,,,,,,,,,,,,,
,,,,,,,,,R_5BWLoNagODpTBTz,2022-07-02_18h07.01.454,jpn_C01,2022.1.2,Win32,59.63384817,,,space,3.3366,0,34,34,42,1,プミ　ムク　ルピン,,,CartoonStims/cowboy_punch_burglar_r.jpg,audio/pumimukulupin.mp3,,,,,,,,,,,,,,,,,,,,,,,,,,,,,,,,,,,,,,,,,,,,,,,,,,,,,,,,,,,,,,,,,,,,,,,,,,
,,,,,,,,,R_5BWLoNagODpTBTz,2022-07-02_18h07.01.454,jpn_C01,2022.1.2,Win32,59.63384817,,,space,3.5794,0,35,35,33,1,パツ　ピポ　ホレト,,,CartoonStims/doctor_shoot_chef_r.jpg,audio/patsupipohoreto.mp3,,,,,,,,,,,,,,,,,,,,,,,,,,,,,,,,,,,,,,,,,,,,,,,,,,,,,,,,,,,,,,,,,,,,,,,,,,
,,,,,,,,,R_5BWLoNagODpTBTz,2022-07-02_18h07.01.454,jpn_C01,2022.1.2,Win32,59.63384817,,,space,4.0229,0,36,36,10,1,セル　ドキ　シド,,,CartoonStims/boxer_kick_artist_r.jpg,audio/serudokisido.mp3,,,,,,,,,,,,,,,,,,,,,,,,,,,,,,,,,,,,,,,,,,,,,,,,,,,,,,,,,,,,,,,,,,,,,,,,,,
,,,,,,,,,R_5BWLoNagODpTBTz,2022-07-02_18h07.01.454,jpn_C01,2022.1.2,Win32,59.63384817,,,space,3.869599999,0,37,37,46,1,プミ　ドキ　ムク,,,CartoonStims/boxer_punch_cowboy_r.jpg,audio/pumidokimuku.mp3,,,,,,,,,,,,,,,,,,,,,,,,,,,,,,,,,,,,,,,,,,,,,,,,,,,,,,,,,,,,,,,,,,,,,,,,,,
,,,,,,,,,R_5BWLoNagODpTBTz,2022-07-02_18h07.01.454,jpn_C01,2022.1.2,Win32,59.63384817,,,space,6.3194,0,38,38,45,1,プミ　ピポ　ムク,,,CartoonStims/doctor_punch_cowboy_r.jpg,audio/pumipipomuku.mp3,,,,,,,,,,,,,,,,,,,,,,,,,,,,,,,,,,,,,,,,,,,,,,,,,,,,,,,,,,,,,,,,,,,,,,,,,,
,,,,,,,,,R_5BWLoNagODpTBTz,2022-07-02_18h07.01.454,jpn_C01,2022.1.2,Win32,59.63384817,,,space,4.104,0,39,39,1,1,セル 　シド 　ホレト,,,CartoonStims/artist_kick_chef_r.jpg,audio/serusidohoreto.mp3,,,,,,,,,,,,,,,,,,,,,,,,,,,,,,,,,,,,,,,,,,,,,,,,,,,,,,,,,,,,,,,,,,,,,,,,,,
,,,,,,,,,R_5BWLoNagODpTBTz,2022-07-02_18h07.01.454,jpn_C01,2022.1.2,Win32,59.63384817,,,space,2.725,0,40,40,17,1,トマ　ホレト　ドキ,,,CartoonStims/chef_point_boxer_r.jpg,audio/tomahoretodoki.mp3,,,,,,,,,,,,,,,,,,,,,,,,,,,,,,,,,,,,,,,,,,,,,,,,,,,,,,,,,,,,,,,,,,,,,,,,,,
,,,,,,,,,R_5BWLoNagODpTBTz,2022-07-02_18h07.01.454,jpn_C01,2022.1.2,Win32,59.63384817,,,space,2.459,0,41,41,23,1,トマ　ドキ　ホレト,,,CartoonStims/boxer_point_chef_r.jpg,audio/tomadokihoreto.mp3,,,,,,,,,,,,,,,,,,,,,,,,,,,,,,,,,,,,,,,,,,,,,,,,,,,,,,,,,,,,,,,,,,,,,,,,,,
,,,,,,,,,R_5BWLoNagODpTBTz,2022-07-02_18h07.01.454,jpn_C01,2022.1.2,Win32,59.63384817,,,space,4.1292,0,42,42,41,1,プミ　ホレト　ルピン,,,CartoonStims/chef_punch_burglar_r.jpg,audio/pumihoretolupin.mp3,,,,,,,,,,,,,,,,,,,,,,,,,,,,,,,,,,,,,,,,,,,,,,,,,,,,,,,,,,,,,,,,,,,,,,,,,,
,,,,,,,,,R_5BWLoNagODpTBTz,2022-07-02_18h07.01.454,jpn_C01,2022.1.2,Win32,59.63384817,,,space,4.309599999,0,43,43,29,1,パツ　ホレト　シド,,,CartoonStims/chef_shoot_artist_r.jpg,audio/patsuhoretosido.mp3,,,,,,,,,,,,,,,,,,,,,,,,,,,,,,,,,,,,,,,,,,,,,,,,,,,,,,,,,,,,,,,,,,,,,,,,,,
,,,,,,,,,R_5BWLoNagODpTBTz,2022-07-02_18h07.01.454,jpn_C01,2022.1.2,Win32,59.63384817,,,space,2.918599999,0,44,44,0,1,セル　シド　ルピン,,,CartoonStims/artist_kick_burglar_r.jpg,audio/serusidolupin.mp3,,,,,,,,,,,,,,,,,,,,,,,,,,,,,,,,,,,,,,,,,,,,,,,,,,,,,,,,,,,,,,,,,,,,,,,,,,
,,,,,,,,,R_5BWLoNagODpTBTz,2022-07-02_18h07.01.454,jpn_C01,2022.1.2,Win32,59.63384817,,,space,3.3268,0,45,45,44,1,プミ　ピポ　ホレト,,,CartoonStims/doctor_punch_chef_r.jpg,audio/pumipipohoreto.mp3,,,,,,,,,,,,,,,,,,,,,,,,,,,,,,,,,,,,,,,,,,,,,,,,,,,,,,,,,,,,,,,,,,,,,,,,,,
,,,,,,,,,R_5BWLoNagODpTBTz,2022-07-02_18h07.01.454,jpn_C01,2022.1.2,Win32,59.63384817,,,space,4.9637,0,46,46,18,1,トマ　ムク　ドキ,,,CartoonStims/cowboy_point_boxer_r.jpg,audio/tomamukudoki.mp3,,,,,,,,,,,,,,,,,,,,,,,,,,,,,,,,,,,,,,,,,,,,,,,,,,,,,,,,,,,,,,,,,,,,,,,,,,
,,,,,,,,,R_5BWLoNagODpTBTz,2022-07-02_18h07.01.454,jpn_C01,2022.1.2,Win32,59.63384817,,,space,3.2015,0,47,47,35,1,パツ　ドキ　ムク,,,CartoonStims/boxer_shoot_cowboy_r.jpg,audio/patsudokimuku.mp3,,,,,,,,,,,,,,,,,,,,,,,,,,,,,,,,,,,,,,,,,,,,,,,,,,,,,,,,,,,,,,,,,,,,,,,,,,
,,,,,,,,,R_5BWLoNagODpTBTz,2022-07-02_18h07.01.454,jpn_C01,2022.1.2,Win32,59.63384817,,,,,,,,,,,,,,,space,0.517,left,1,7.4208,,,,,,,,,,,,,,,,,,0,0,0,0,1,,,,,,,,,,,,,,,,,,,,,,,,,,,,,,,,,,,,,,,,,,,,,,,
,,,,,,,,,R_5BWLoNagODpTBTz,2022-07-02_18h07.01.454,jpn_C01,2022.1.2,Win32,59.63384817,,,,,,,,,,,,,,,,,,,,,,,,,0,0,0,4,1,CartoonStims/burglar_point_boxer_r.jpg,トマ　ルピン　ドキ,CartoonStims/burglar_kick_boxer_r.jpg,left,CartoonStims/burglar_point_boxer_r.jpg,audio/tomalupindoki.mp3,残念！ こちらが正しい画像です。,,,,,,,,,,,,,,,,,,,,,,,,,,,,,,,,,,,,,,,,,,,,,,,,,,,,
,,,,,,,,,R_5BWLoNagODpTBTz,2022-07-02_18h07.01.454,jpn_C01,2022.1.2,Win32,59.63384817,,,,,,,,,,,,,,,,,left,1,4.0732,,,,,,,,,,,,,,,,,,0,0,0,0,1,,,,,,,,,,,,,,,,,,,,,,,,,,,,,,,,,,,,,,,,,,,,,,,
,,,,,,,,,R_5BWLoNagODpTBTz,2022-07-02_18h07.01.454,jpn_C01,2022.1.2,Win32,59.63384817,,,,,,,,,,,,,,,,,,,,,,,,,0,1,1,8,1,CartoonStims/doctor_point_cowboy_r.jpg,トマ　ピポ　ムク,CartoonStims/boxer_point_cowboy_r.jpg,left,CartoonStims/doctor_point_cowboy_r.jpg,audio/tomapipomuku.mp3,残念！ こちらが正しい画像です。,,,,,,,,,,,,,,,,,,,,,,,,,,,,,,,,,,,,,,,,,,,,,,,,,,,,
,,,,,,,,,R_5BWLoNagODpTBTz,2022-07-02_18h07.01.454,jpn_C01,2022.1.2,Win32,59.63384817,,,,,,,,,,,,,,,,,right,1,3.6535,0,0,0,0,1,,,,,,,,,,,,,,,,,,,,,,,,,,,,,,,,,,,,,,,,,,,,,,,,,,,,,,,,,,,,,,,,
,,,,,,,,,R_5BWLoNagODpTBTz,2022-07-02_18h07.01.454,jpn_C01,2022.1.2,Win32,59.63384817,,,,,,,,,,,,,,,,,,,,,,,,,0,2,2,1,1,CartoonStims/chef_point_burglar_r.jpg,トマ　ホレト　シド,CartoonStims/chef_point_artist_r.jpg,right,CartoonStims/chef_point_artist_r.jpg,audio/tomahoretosido.mp3,残念！ こちらが正しい画像です。,,,,,,,,,,,,,,,,,,,,,,,,,,,,,,,,,,,,,,,,,,,,,,,,,,,,
,,,,,,,,,R_5BWLoNagODpTBTz,2022-07-02_18h07.01.454,jpn_C01,2022.1.2,Win32,59.63384817,,,,,,,,,,,,,,,,,left,1,3.0365,,,,,,,,,,,,,,,,,,0,0,0,0,1,,,,,,,,,,,,,,,,,,,,,,,,,,,,,,,,,,,,,,,,,,,,,,,
,,,,,,,,,R_5BWLoNagODpTBTz,2022-07-02_18h07.01.454,jpn_C01,2022.1.2,Win32,59.63384817,,,,,,,,,,,,,,,,,,,,,,,,,0,3,3,0,1,CartoonStims/doctor_kick_burglar_r.jpg,セル　ピポ　ルピン,CartoonStims/doctor_kick_chef_r.jpg,left,CartoonStims/doctor_kick_burglar_r.jpg,audio/serupipolupin.mp3,残念！ こちらが正しい画像です。,,,,,,,,,,,,,,,,,,,,,,,,,,,,,,,,,,,,,,,,,,,,,,,,,,,,
,,,,,,,,,R_5BWLoNagODpTBTz,2022-07-02_18h07.01.454,jpn_C01,2022.1.2,Win32,59.63384817,,,,,,,,,,,,,,,,,right,1,4.6825,0,0,0,0,1,,,,,,,,,,,,,,,,,,,,,,,,,,,,,,,,,,,,,,,,,,,,,,,,,,,,,,,,,,,,,,,,
,,,,,,,,,R_5BWLoNagODpTBTz,2022-07-02_18h07.01.454,jpn_C01,2022.1.2,Win32,59.63384817,,,,,,,,,,,,,,,,,,,,,,,,,0,4,4,7,1,CartoonStims/artist_punch_cowboy_r.jpg,セル　シド　ムク,CartoonStims/artist_kick_cowboy_r.jpg,right,CartoonStims/artist_kick_cowboy_r.jpg,audio/serusidomuku.mp3,残念！ こちらが正しい画像です。,,,,,,,,,,,,,,,,,,,,,,,,,,,,,,,,,,,,,,,,,,,,,,,,,,,,
,,,,,,,,,R_5BWLoNagODpTBTz,2022-07-02_18h07.01.454,jpn_C01,2022.1.2,Win32,59.63384817,,,,,,,,,,,,,,,,,left,1,3.921599999,,,,,,,,,,,,,,,,,,0,0,0,0,1,,,,,,,,,,,,,,,,,,,,,,,,,,,,,,,,,,,,,,,,,,,,,,,
,,,,,,,,,R_5BWLoNagODpTBTz,2022-07-02_18h07.01.454,jpn_C01,2022.1.2,Win32,59.63384817,,,,,,,,,,,,,,,,,,,,,,,,,0,5,5,2,1,CartoonStims/boxer_shoot_doctor_r.jpg,パツ　ドキ　ピポ,CartoonStims/boxer_shoot_artist_r.jpg,left,CartoonStims/boxer_shoot_doctor_r.jpg,audio/patsudokipipo.mp3,残念！ こちらが正しい画像です。,,,,,,,,,,,,,,,,,,,,,,,,,,,,,,,,,,,,,,,,,,,,,,,,,,,,
,,,,,,,,,R_5BWLoNagODpTBTz,2022-07-02_18h07.01.454,jpn_C01,2022.1.2,Win32,59.63384817,,,,,,,,,,,,,,,,,right,1,3.4281,0,0,0,0,1,,,,,,,,,,,,,,,,,,,,,,,,,,,,,,,,,,,,,,,,,,,,,,,,,,,,,,,,,,,,,,,,
,,,,,,,,,R_5BWLoNagODpTBTz,2022-07-02_18h07.01.454,jpn_C01,2022.1.2,Win32,59.63384817,,,,,,,,,,,,,,,,,,,,,,,,,0,6,6,3,1,CartoonStims/cowboy_punch_doctor_r.jpg,プミ　ムク　ドキ,CartoonStims/cowboy_punch_boxer_r.jpg,right,CartoonStims/cowboy_punch_boxer_r.jpg,audio/pumimukudoki.mp3,残念！ こちらが正しい画像です。,,,,,,,,,,,,,,,,,,,,,,,,,,,,,,,,,,,,,,,,,,,,,,,,,,,,
,,,,,,,,,R_5BWLoNagODpTBTz,2022-07-02_18h07.01.454,jpn_C01,2022.1.2,Win32,59.63384817,,,,,,,,,,,,,,,,,right,1,5.035400001,0,0,0,0,1,,,,,,,,,,,,,,,,,,,,,,,,,,,,,,,,,,,,,,,,,,,,,,,,,,,,,,,,,,,,,,,,
,,,,,,,,,R_5BWLoNagODpTBTz,2022-07-02_18h07.01.454,jpn_C01,2022.1.2,Win32,59.63384817,,,,,,,,,,,,,,,,,,,,,,,,,0,7,7,11,1,CartoonStims/burglar_punch_cowboy_r.jpg,プミ　ホレト　ムク,CartoonStims/chef_punch_cowboy_r.jpg,right,CartoonStims/chef_punch_cowboy_r.jpg,audio/pumihoretomuku.mp3,残念！ こちらが正しい画像です。,,,,,,,,,,,,,,,,,,,,,,,,,,,,,,,,,,,,,,,,,,,,,,,,,,,,
,,,,,,,,,R_5BWLoNagODpTBTz,2022-07-02_18h07.01.454,jpn_C01,2022.1.2,Win32,59.63384817,,,,,,,,,,,,,,,,,right,1,10.3161,0,0,0,0,1,,,,,,,,,,,,,,,,,,,,,,,,,,,,,,,,,,,,,,,,,,,,,,,,,,,,,,,,,,,,,,,,
,,,,,,,,,R_5BWLoNagODpTBTz,2022-07-02_18h07.01.454,jpn_C01,2022.1.2,Win32,59.63384817,,,,,,,,,,,,,,,,,,,,,,,,,0,8,8,9,1,CartoonStims/chef_kick_artist_r.jpg,セル　ムク　シド,CartoonStims/cowboy_kick_artist_r.jpg,right,CartoonStims/cowboy_kick_artist_r.jpg,audio/serumukusido.mp3,残念！ こちらが正しい画像です。,,,,,,,,,,,,,,,,,,,,,,,,,,,,,,,,,,,,,,,,,,,,,,,,,,,,
,,,,,,,,,R_5BWLoNagODpTBTz,2022-07-02_18h07.01.454,jpn_C01,2022.1.2,Win32,59.63384817,,,,,,,,,,,,,,,,,right,1,3.9409,0,0,0,0,1,,,,,,,,,,,,,,,,,,,,,,,,,,,,,,,,,,,,,,,,,,,,,,,,,,,,,,,,,,,,,,,,
,,,,,,,,,R_5BWLoNagODpTBTz,2022-07-02_18h07.01.454,jpn_C01,2022.1.2,Win32,59.63384817,,,,,,,,,,,,,,,,,,,,,,,,,0,9,9,5,1,CartoonStims/cowboy_point_chef_r.jpg,パツ　ムク　ホレト,CartoonStims/cowboy_shoot_chef_r.jpg,right,CartoonStims/cowboy_shoot_chef_r.jpg,audio/patsumukuhoreto.mp3,残念！ こちらが正しい画像です。,,,,,,,,,,,,,,,,,,,,,,,,,,,,,,,,,,,,,,,,,,,,,,,,,,,,
,,,,,,,,,R_5BWLoNagODpTBTz,2022-07-02_18h07.01.454,jpn_C01,2022.1.2,Win32,59.63384817,,,,,,,,,,,,,,,,,left,1,4.264200001,,,,,,,,,,,,,,,,,,0,0,0,0,1,,,,,,,,,,,,,,,,,,,,,,,,,,,,,,,,,,,,,,,,,,,,,,,
,,,,,,,,,R_5BWLoNagODpTBTz,2022-07-02_18h07.01.454,jpn_C01,2022.1.2,Win32,59.63384817,,,,,,,,,,,,,,,,,,,,,,,,,0,10,10,6,1,CartoonStims/doctor_punch_boxer_r.jpg,プミ　ピポ　ドキ,CartoonStims/doctor_shoot_boxer_r.jpg,left,CartoonStims/doctor_punch_boxer_r.jpg,audio/pumipipodoki.mp3,残念！ こちらが正しい画像です。,,,,,,,,,,,,,,,,,,,,,,,,,,,,,,,,,,,,,,,,,,,,,,,,,,,,
,,,,,,,,,R_5BWLoNagODpTBTz,2022-07-02_18h07.01.454,jpn_C01,2022.1.2,Win32,59.63384817,,,,,,,,,,,,,,,,,left,1,10.1047,,,,,,,,,,,,,,,,,,0,0,0,0,1,,,,,,,,,,,,,,,,,,,,,,,,,,,,,,,,,,,,,,,,,,,,,,,
,,,,,,,,,R_5BWLoNagODpTBTz,2022-07-02_18h07.01.454,jpn_C01,2022.1.2,Win32,59.63384817,,,,,,,,,,,,,,,,,,,,,,,,,0,11,11,10,1,CartoonStims/artist_shoot_burglar_r.jpg,パツ　シド　ルピン,CartoonStims/chef_shoot_burglar_r.jpg,left,CartoonStims/artist_shoot_burglar_r.jpg,audio/patsusidolupin.mp3,残念！ こちらが正しい画像です。,,,,,,,,,,,,,,,,,,,,,,,,,,,,,,,,,,,,,,,,,,,,,,,,,,,,
,,,,,,,,,R_5BWLoNagODpTBTz,2022-07-02_18h07.01.454,jpn_C01,2022.1.2,Win32,59.63384817,,,,,,,,,,,,,,,,,,,,,,,,,,,,,,,,,,,,,,,,,,,,,,,space,5.069099999,セル　シド　ルピン,right,20.5454,0,0,0,0,1,,,,,,,,,,,,,,,,,,,,,,,,,,,,,,,,
,,,,,,,,,R_5BWLoNagODpTBTz,2022-07-02_18h07.01.454,jpn_C01,2022.1.2,Win32,59.63384817,,,,,,,,,,,,,CartoonStims/cowboy_kick_burglar_r.jpg,audio/serumukulupin.mp3,,,,,,,,,,,,,,,,,,,,,,,,,,,,,,,,,,,,,,,,,,,0,0,0,0,1,セル　ムク　ルピン,,,,,,,,,,,,,,,,,,,,,,,,,,
,,,,,,,,,R_5BWLoNagODpTBTz,2022-07-02_18h07.01.454,jpn_C01,2022.1.2,Win32,59.63384817,,,,,,,,,,,,,,,,,,,,,,,,,,,,,,,,,,,,,,,,,,,,,,,,,パツ　ルピン　ソレト,right,18.1489,0,0,0,0,1,,,,,,,,,,,,,,,,,,,,,,,,,,,,,,,,
,,,,,,,,,R_5BWLoNagODpTBTz,2022-07-02_18h07.01.454,jpn_C01,2022.1.2,Win32,59.63384817,,,,,,,,,,,,,CartoonStims/burglar_shoot_chef_r.jpg,audio/patsulupinhoreto.mp3,,,,,,,,,,,,,,,,,,,,,,,,,,,,,,,,,,,,,,,,,,,0,1,1,6,1,パツ　ルピン　ホレト,,,,,,,,,,,,,,,,,,,,,,,,,,
,,,,,,,,,R_5BWLoNagODpTBTz,2022-07-02_18h07.01.454,jpn_C01,2022.1.2,Win32,59.63384817,,,,,,,,,,,,,,,,,,,,,,,,,,,,,,,,,,,,,,,,,,,,,,,,,パツ　ホレト　シド,right,19.891,0,0,0,0,1,,,,,,,,,,,,,,,,,,,,,,,,,,,,,,,,
,,,,,,,,,R_5BWLoNagODpTBTz,2022-07-02_18h07.01.454,jpn_C01,2022.1.2,Win32,59.63384817,,,,,,,,,,,,,CartoonStims/chef_shoot_cowboy_r.jpg,audio/patsuhoretomuku.mp3,,,,,,,,,,,,,,,,,,,,,,,,,,,,,,,,,,,,,,,,,,,0,2,2,7,1,パツ　ホレト　ムク,,,,,,,,,,,,,,,,,,,,,,,,,,
,,,,,,,,,R_5BWLoNagODpTBTz,2022-07-02_18h07.01.454,jpn_C01,2022.1.2,Win32,59.63384817,,,,,,,,,,,,,,,,,,,,,,,,,,,,,,,,,,,,,,,,,,,,,,,,,ホレト　ドキ,right,30.747,0,0,0,0,1,,,,,,,,,,,,,,,,,,,,,,,,,,,,,,,,
,,,,,,,,,R_5BWLoNagODpTBTz,2022-07-02_18h07.01.454,jpn_C01,2022.1.2,Win32,59.63384817,,,,,,,,,,,,,CartoonStims/artist_point_boxer_r.jpg,audio/tomasidodoki.mp3,,,,,,,,,,,,,,,,,,,,,,,,,,,,,,,,,,,,,,,,,,,0,3,3,3,1,トマ　シド　ドキ,,,,,,,,,,,,,,,,,,,,,,,,,,
,,,,,,,,,R_5BWLoNagODpTBTz,2022-07-02_18h07.01.454,jpn_C01,2022.1.2,Win32,59.63384817,,,,,,,,,,,,,,,,,,,,,,,,,,,,,,,,,,,,,,,,,,,,,,,,,トマ　ホレト　ルピン,right,60.047,0,0,0,0,1,,,,,,,,,,,,,,,,,,,,,,,,,,,,,,,,
,,,,,,,,,R_5BWLoNagODpTBTz,2022-07-02_18h07.01.454,jpn_C01,2022.1.2,Win32,59.63384817,,,,,,,,,,,,,CartoonStims/artist_punch_burglar_r.jpg,audio/pumisidolupin.mp3,,,,,,,,,,,,,,,,,,,,,,,,,,,,,,,,,,,,,,,,,,,0,4,4,9,1,プミ　シド　ルピン,,,,,,,,,,,,,,,,,,,,,,,,,,
,,,,,,,,,R_5BWLoNagODpTBTz,2022-07-02_18h07.01.454,jpn_C01,2022.1.2,Win32,59.63384817,,,,,,,,,,,,,,,,,,,,,,,,,,,,,,,,,,,,,,,,,,,,,,,,,,right,26.5684,0,0,0,0,1,,,,,,,,,,,,,,,,,,,,,,,,,,,,,,,,
,,,,,,,,,R_5BWLoNagODpTBTz,2022-07-02_18h07.01.454,jpn_C01,2022.1.2,Win32,59.63384817,,,,,,,,,,,,,CartoonStims/doctor_kick_chef_r.jpg,audio/serupipohoreto.mp3,,,,,,,,,,,,,,,,,,,,,,,,,,,,,,,,,,,,,,,,,,,0,5,5,1,1,セル　ピポ　ホレト,,,,,,,,,,,,,,,,,,,,,,,,,,
,,,,,,,,,R_5BWLoNagODpTBTz,2022-07-02_18h07.01.454,jpn_C01,2022.1.2,Win32,59.63384817,,,,,,,,,,,,,,,,,,,,,,,,,,,,,,,,,,,,,,,,,,,,,,,,,トマ　ドキ　シド,right,19.4942,0,0,0,0,1,,,,,,,,,,,,,,,,,,,,,,,,,,,,,,,,
,,,,,,,,,R_5BWLoNagODpTBTz,2022-07-02_18h07.01.454,jpn_C01,2022.1.2,Win32,59.63384817,,,,,,,,,,,,,CartoonStims/boxer_punch_artist_r.jpg,audio/pumidokisido.mp3,,,,,,,,,,,,,,,,,,,,,,,,,,,,,,,,,,,,,,,,,,,0,6,6,11,1,プミ　ドキ　シド,,,,,,,,,,,,,,,,,,,,,,,,,,
,,,,,,,,,R_5BWLoNagODpTBTz,2022-07-02_18h07.01.454,jpn_C01,2022.1.2,Win32,59.63384817,,,,,,,,,,,,,,,,,,,,,,,,,,,,,,,,,,,,,,,,,,,,,,,,,トマ　ホレト　ルピン,right,13.9706,0,0,0,0,1,,,,,,,,,,,,,,,,,,,,,,,,,,,,,,,,
,,,,,,,,,R_5BWLoNagODpTBTz,2022-07-02_18h07.01.454,jpn_C01,2022.1.2,Win32,59.63384817,,,,,,,,,,,,,CartoonStims/chef_point_burglar_r.jpg,audio/tomahoretolupin.mp3,,,,,,,,,,,,,,,,,,,,,,,,,,,,,,,,,,,,,,,,,,,0,7,7,5,1,トマ　ホレト　ルピン,,,,,,,,,,,,,,,,,,,,,,,,,,
,,,,,,,,,R_5BWLoNagODpTBTz,2022-07-02_18h07.01.454,jpn_C01,2022.1.2,Win32,59.63384817,,,,,,,,,,,,,,,,,,,,,,,,,,,,,,,,,,,,,,,,,,,,,,,,,セル　ドキ　シド,right,34.2225,0,0,0,0,1,,,,,,,,,,,,,,,,,,,,,,,,,,,,,,,,
,,,,,,,,,R_5BWLoNagODpTBTz,2022-07-02_18h07.01.454,jpn_C01,2022.1.2,Win32,59.63384817,,,,,,,,,,,,,CartoonStims/boxer_kick_cowboy_r.jpg,audio/serudokimuku.mp3,,,,,,,,,,,,,,,,,,,,,,,,,,,,,,,,,,,,,,,,,,,0,8,8,2,1,セル　ドキ　ムク,,,,,,,,,,,,,,,,,,,,,,,,,,
,,,,,,,,,R_5BWLoNagODpTBTz,2022-07-02_18h07.01.454,jpn_C01,2022.1.2,Win32,59.63384817,,,,,,,,,,,,,,,,,,,,,,,,,,,,,,,,,,,,,,,,,,,,,,,,,パツ　ホレト　シド,right,17.4307,0,0,0,0,1,,,,,,,,,,,,,,,,,,,,,,,,,,,,,,,,
,,,,,,,,,R_5BWLoNagODpTBTz,2022-07-02_18h07.01.454,jpn_C01,2022.1.2,Win32,59.63384817,,,,,,,,,,,,,CartoonStims/cowboy_shoot_doctor_r.jpg,audio/patsumukupipo.mp3,,,,,,,,,,,,,,,,,,,,,,,,,,,,,,,,,,,,,,,,,,,0,9,9,8,1,パツ　ムク　ピポ,,,,,,,,,,,,,,,,,,,,,,,,,,
,,,,,,,,,R_5BWLoNagODpTBTz,2022-07-02_18h07.01.454,jpn_C01,2022.1.2,Win32,59.63384817,,,,,,,,,,,,,,,,,,,,,,,,,,,,,,,,,,,,,,,,,,,,,,,,,トマ　ピポ　ドキ,right,24.7861,0,0,0,0,1,,,,,,,,,,,,,,,,,,,,,,,,,,,,,,,,
,,,,,,,,,R_5BWLoNagODpTBTz,2022-07-02_18h07.01.454,jpn_C01,2022.1.2,Win32,59.63384817,,,,,,,,,,,,,CartoonStims/doctor_punch_boxer_r.jpg,audio/pumipipodoki.mp3,,,,,,,,,,,,,,,,,,,,,,,,,,,,,,,,,,,,,,,,,,,0,10,10,10,1,プミ　ピポ　ドキ,,,,,,,,,,,,,,,,,,,,,,,,,,
,,,,,,,,,R_5BWLoNagODpTBTz,2022-07-02_18h07.01.454,jpn_C01,2022.1.2,Win32,59.63384817,,,,,,,,,,,,,,,,,,,,,,,,,,,,,,,,,,,,,,,,,,,,,,,,,トマ　ルピン　ピポ,right,13.9223,0,0,0,0,1,,,,,,,,,,,,,,,,,,,,,,,,,,,,,,,,
,,,,,,,,,R_5BWLoNagODpTBTz,2022-07-02_18h07.01.454,jpn_C01,2022.1.2,Win32,59.63384817,,,,,,,,,,,,,CartoonStims/burglar_point_artist_r.jpg,audio/tomalupinsido.mp3,,,,,,,,,,,,,,,,,,,,,,,,,,,,,,,,,,,,,,,,,,,0,11,11,4,1,トマ　ルピン　シド,,,,,,,,,,,,,,,,,,,,,,,,,,
,,,,,,,,,R_5BWLoNagODpTBTz,2022-07-02_18h07.01.454,jpn_C01,2022.1.2,Win32,59.63384817,,,,,,,,,,,,,,,,,,,,,,,,,,,,,,,,,,,,,,,,,,,,,,,,,,,,,,,,,,,,,,,,space,3.7809,0,1,1,1,1,AffExposure.xlsx,"第二のトライアルの学習では、この言語で書かれた文を見ていただきます。引き続き注意して、 聞こえた音を復唱してください。


スペースキーを押してください。",1,AffFCT.xlsx,ここからクイズが始まります。 スクリーンに表示されるテキストに合う画像を選んでください。,AffTest.xlsx,1,次にここまで学んだことをアウトプットしていただきます。 表示される画像を描写していると思う単語を、テキストボックスにタイプしてください。 答えを提出したあとに正しい正解が少しの間画面に写ります。,1,"これで第二のトライアルが終了しました。 ここで休憩をとっていただいても構いません。

休憩が終わりましたら、 スペースキーを押して続きの学習を行いましょう。",,,,,,,,
,,,,,,,,,R_5BWLoNagODpTBTz,2022-07-02_18h07.01.454,jpn_C01,2022.1.2,Win32,59.63384817,space,5.278400001,space,13.0058,0,0,0,22,1,トマ　ピク　ドキ　ルピン,,,CartoonStims/boxer_point_burglar_r_no.jpg,audio/tomapikudokilupin.mp3,,,,,,,,,,,,,,,,,,,,,,,,,,,,,,,,,,,,,,,,,,,,,,,,,,,,,,,,,,,,,,,,,,,,,,,,,,
,,,,,,,,,R_5BWLoNagODpTBTz,2022-07-02_18h07.01.454,jpn_C01,2022.1.2,Win32,59.63384817,,,space,8.0033,0,1,1,33,1,ピク　パツ　ピポ　ホレト,,,CartoonStims/doctor_shoot_chef_r_no.jpg,audio/pikupatsupipohoreto.mp3,,,,,,,,,,,,,,,,,,,,,,,,,,,,,,,,,,,,,,,,,,,,,,,,,,,,,,,,,,,,,,,,,,,,,,,,,,
,,,,,,,,,R_5BWLoNagODpTBTz,2022-07-02_18h07.01.454,jpn_C01,2022.1.2,Win32,59.63384817,,,space,18.3868,0,2,2,45,1,プミ　ピク　ピポ　ムク,,,CartoonStims/doctor_punch_cowboy_r_no.jpg,audio/pumipikupipomuku.mp3,,,,,,,,,,,,,,,,,,,,,,,,,,,,,,,,,,,,,,,,,,,,,,,,,,,,,,,,,,,,,,,,,,,,,,,,,,
,,,,,,,,,R_5BWLoNagODpTBTz,2022-07-02_18h07.01.454,jpn_C01,2022.1.2,Win32,59.63384817,,,space,7.6627,0,3,3,19,1,ピク　トマ　ムク　シド,,,CartoonStims/cowboy_point_artist_r_no.jpg,audio/pikutomamukusido.mp3,,,,,,,,,,,,,,,,,,,,,,,,,,,,,,,,,,,,,,,,,,,,,,,,,,,,,,,,,,,,,,,,,,,,,,,,,,
,,,,,,,,,R_5BWLoNagODpTBTz,2022-07-02_18h07.01.454,jpn_C01,2022.1.2,Win32,59.63384817,,,space,10.7239,0,4,4,1,1,セル　ピク　シド　ホレト,,,CartoonStims/artist_kick_chef_r_no.jpg,audio/serupikusidohoreto.mp3,,,,,,,,,,,,,,,,,,,,,,,,,,,,,,,,,,,,,,,,,,,,,,,,,,,,,,,,,,,,,,,,,,,,,,,,,,
,,,,,,,,,R_5BWLoNagODpTBTz,2022-07-02_18h07.01.454,jpn_C01,2022.1.2,Win32,59.63384817,,,space,8.4539,0,5,5,29,1,ピク　パツ　ホレト　シド,,,CartoonStims/chef_shoot_artist_r_no.jpg,audio/pikupatsuhoretosido.mp3,,,,,,,,,,,,,,,,,,,,,,,,,,,,,,,,,,,,,,,,,,,,,,,,,,,,,,,,,,,,,,,,,,,,,,,,,,
,,,,,,,,,R_5BWLoNagODpTBTz,2022-07-02_18h07.01.454,jpn_C01,2022.1.2,Win32,59.63384817,,,space,38.1831,0,6,6,32,1,パツ　ピク　ピポ　ルピン,,,CartoonStims/doctor_shoot_burglar_r_no.jpg,audio/patsupikupipolupin.mp3,,,,,,,,,,,,,,,,,,,,,,,,,,,,,,,,,,,,,,,,,,,,,,,,,,,,,,,,,,,,,,,,,,,,,,,,,,
,,,,,,,,,R_5BWLoNagODpTBTz,2022-07-02_18h07.01.454,jpn_C01,2022.1.2,Win32,59.63384817,,,space,13.0424,0,7,7,38,1,ピク　プミ　ルピン　ドキ,,,CartoonStims/burglar_punch_boxer_r_no.jpg,audio/pikupumilupindoki.mp3,,,,,,,,,,,,,,,,,,,,,,,,,,,,,,,,,,,,,,,,,,,,,,,,,,,,,,,,,,,,,,,,,,,,,,,,,,
,,,,,,,,,R_5BWLoNagODpTBTz,2022-07-02_18h07.01.454,jpn_C01,2022.1.2,Win32,59.63384817,,,space,18.4867,0,8,8,20,1,トマ　ピク　ピポ　シド,,,CartoonStims/doctor_point_artist_r_no.jpg,audio/tomapikupiposido.mp3,,,,,,,,,,,,,,,,,,,,,,,,,,,,,,,,,,,,,,,,,,,,,,,,,,,,,,,,,,,,,,,,,,,,,,,,,,
,,,,,,,,,R_5BWLoNagODpTBTz,2022-07-02_18h07.01.454,jpn_C01,2022.1.2,Win32,59.63384817,,,space,8.2544,0,9,9,4,1,ピク　セル　ホレト　ムク,,,CartoonStims/chef_kick_cowboy_r_no.jpg,audio/pikuseruhoretomuku.mp3,,,,,,,,,,,,,,,,,,,,,,,,,,,,,,,,,,,,,,,,,,,,,,,,,,,,,,,,,,,,,,,,,,,,,,,,,,
,,,,,,,,,R_5BWLoNagODpTBTz,2022-07-02_18h07.01.454,jpn_C01,2022.1.2,Win32,59.63384817,,,space,7.245099999,0,10,10,44,1,ピク　プミ　ピポ　ホレト,,,CartoonStims/doctor_punch_chef_r_no.jpg,audio/pikupumipipohoreto.mp3,,,,,,,,,,,,,,,,,,,,,,,,,,,,,,,,,,,,,,,,,,,,,,,,,,,,,,,,,,,,,,,,,,,,,,,,,,
,,,,,,,,,R_5BWLoNagODpTBTz,2022-07-02_18h07.01.454,jpn_C01,2022.1.2,Win32,59.63384817,,,space,9.8515,0,11,11,34,1,パツ　ピク　ドキ　ホレト,,,CartoonStims/boxer_shoot_chef_r_no.jpg,audio/patsupikudokihoreto.mp3,,,,,,,,,,,,,,,,,,,,,,,,,,,,,,,,,,,,,,,,,,,,,,,,,,,,,,,,,,,,,,,,,,,,,,,,,,
,,,,,,,,,R_5BWLoNagODpTBTz,2022-07-02_18h07.01.454,jpn_C01,2022.1.2,Win32,59.63384817,,,space,8.2867,0,12,12,6,1,ピク　セル　ムク　ピポ,,,CartoonStims/cowboy_kick_doctor_r_no.jpg,audio/pikuserumukupipo.mp3,,,,,,,,,,,,,,,,,,,,,,,,,,,,,,,,,,,,,,,,,,,,,,,,,,,,,,,,,,,,,,,,,,,,,,,,,,
,,,,,,,,,R_5BWLoNagODpTBTz,2022-07-02_18h07.01.454,jpn_C01,2022.1.2,Win32,59.63384817,,,space,5.018900001,0,13,13,11,1,セル　ピク　ドキ　ルピン,,,CartoonStims/boxer_kick_burglar_r_no.jpg,audio/serupikudokilupin.mp3,,,,,,,,,,,,,,,,,,,,,,,,,,,,,,,,,,,,,,,,,,,,,,,,,,,,,,,,,,,,,,,,,,,,,,,,,,
,,,,,,,,,R_5BWLoNagODpTBTz,2022-07-02_18h07.01.454,jpn_C01,2022.1.2,Win32,59.63384817,,,space,10.1489,0,14,14,31,1,ピク　パツ　ムク　ルピン,,,CartoonStims/cowboy_shoot_burglar_r_no.jpg,audio/pikupatsumukulupin.mp3,,,,,,,,,,,,,,,,,,,,,,,,,,,,,,,,,,,,,,,,,,,,,,,,,,,,,,,,,,,,,,,,,,,,,,,,,,
,,,,,,,,,R_5BWLoNagODpTBTz,2022-07-02_18h07.01.454,jpn_C01,2022.1.2,Win32,59.63384817,,,space,7.7651,0,15,15,9,1,セル　ピク　ピポ　シド,,,CartoonStims/doctor_kick_artist_r_no.jpg,audio/serupikupiposido.mp3,,,,,,,,,,,,,,,,,,,,,,,,,,,,,,,,,,,,,,,,,,,,,,,,,,,,,,,,,,,,,,,,,,,,,,,,,,
,,,,,,,,,R_5BWLoNagODpTBTz,2022-07-02_18h07.01.454,jpn_C01,2022.1.2,Win32,59.63384817,,,space,9.784,0,16,16,30,1,パツ　ピク　ムク　シド,,,CartoonStims/cowboy_shoot_artist_r_no.jpg,audio/patsupikumukusido.mp3,,,,,,,,,,,,,,,,,,,,,,,,,,,,,,,,,,,,,,,,,,,,,,,,,,,,,,,,,,,,,,,,,,,,,,,,,,
,,,,,,,,,R_5BWLoNagODpTBTz,2022-07-02_18h07.01.454,jpn_C01,2022.1.2,Win32,59.63384817,,,space,3.8629,0,17,17,14,1,トマ　ピク　ルピン　ムク,,,CartoonStims/burglar_point_cowboy_r_no.jpg,audio/tomapikulupinmuku.mp3,,,,,,,,,,,,,,,,,,,,,,,,,,,,,,,,,,,,,,,,,,,,,,,,,,,,,,,,,,,,,,,,,,,,,,,,,,
,,,,,,,,,R_5BWLoNagODpTBTz,2022-07-02_18h07.01.454,jpn_C01,2022.1.2,Win32,59.63384817,,,space,4.7257,0,18,18,2,1,ピク　セル　ルピン　ホレト,,,CartoonStims/burglar_kick_chef_r_no.jpg,audio/pikuserulupinhoreto.mp3,,,,,,,,,,,,,,,,,,,,,,,,,,,,,,,,,,,,,,,,,,,,,,,,,,,,,,,,,,,,,,,,,,,,,,,,,,
,,,,,,,,,R_5BWLoNagODpTBTz,2022-07-02_18h07.01.454,jpn_C01,2022.1.2,Win32,59.63384817,,,space,7.7054,0,19,19,18,1,トマ　ピク　ムク　ドキ,,,CartoonStims/cowboy_point_boxer_r_no.jpg,audio/tomapikumukudoki.mp3,,,,,,,,,,,,,,,,,,,,,,,,,,,,,,,,,,,,,,,,,,,,,,,,,,,,,,,,,,,,,,,,,,,,,,,,,,
,,,,,,,,,R_5BWLoNagODpTBTz,2022-07-02_18h07.01.454,jpn_C01,2022.1.2,Win32,59.63384817,,,space,4.2218,0,20,20,8,1,ピク　セル　ピポ　ドキ,,,CartoonStims/doctor_kick_boxer_r_no.jpg,audio/pikuserupipodoki.mp3,,,,,,,,,,,,,,,,,,,,,,,,,,,,,,,,,,,,,,,,,,,,,,,,,,,,,,,,,,,,,,,,,,,,,,,,,,
,,,,,,,,,R_5BWLoNagODpTBTz,2022-07-02_18h07.01.454,jpn_C01,2022.1.2,Win32,59.63384817,,,space,6.909200001,0,21,21,35,1,ピク　パツ　ドキ　ムク,,,CartoonStims/boxer_shoot_cowboy_r_no.jpg,audio/pikupatsudokimuku.mp3,,,,,,,,,,,,,,,,,,,,,,,,,,,,,,,,,,,,,,,,,,,,,,,,,,,,,,,,,,,,,,,,,,,,,,,,,,
,,,,,,,,,R_5BWLoNagODpTBTz,2022-07-02_18h07.01.454,jpn_C01,2022.1.2,Win32,59.63384817,,,space,5.3538,0,22,22,37,1,プミ　ピク　シド　ドキ,,,CartoonStims/artist_punch_boxer_r_no.jpg,audio/pumipikusidodoki.mp3,,,,,,,,,,,,,,,,,,,,,,,,,,,,,,,,,,,,,,,,,,,,,,,,,,,,,,,,,,,,,,,,,,,,,,,,,,
,,,,,,,,,R_5BWLoNagODpTBTz,2022-07-02_18h07.01.454,jpn_C01,2022.1.2,Win32,59.63384817,,,space,5.904,0,23,23,47,1,プミ　ピク　ドキ　ピポ,,,CartoonStims/boxer_punch_doctor_r_no.jpg,audio/pumipikudokipipo.mp3,,,,,,,,,,,,,,,,,,,,,,,,,,,,,,,,,,,,,,,,,,,,,,,,,,,,,,,,,,,,,,,,,,,,,,,,,,
,,,,,,,,,R_5BWLoNagODpTBTz,2022-07-02_18h07.01.454,jpn_C01,2022.1.2,Win32,59.63384817,,,space,7.3043,0,24,24,7,1,セル　ピク　ムク　ドキ,,,CartoonStims/cowboy_kick_boxer_r_no.jpg,audio/serupikumukudoki.mp3,,,,,,,,,,,,,,,,,,,,,,,,,,,,,,,,,,,,,,,,,,,,,,,,,,,,,,,,,,,,,,,,,,,,,,,,,,
,,,,,,,,,R_5BWLoNagODpTBTz,2022-07-02_18h07.01.454,jpn_C01,2022.1.2,Win32,59.63384817,,,space,4.7413,0,25,25,13,1,ピク　トマ　シド　ムク,,,CartoonStims/artist_point_cowboy_r_no.jpg,audio/pikutomasidomuku.mp3,,,,,,,,,,,,,,,,,,,,,,,,,,,,,,,,,,,,,,,,,,,,,,,,,,,,,,,,,,,,,,,,,,,,,,,,,,
,,,,,,,,,R_5BWLoNagODpTBTz,2022-07-02_18h07.01.454,jpn_C01,2022.1.2,Win32,59.63384817,,,space,7.158599999,0,26,26,23,1,ピク　トマ　ドキ　ホレト,,,CartoonStims/boxer_point_chef_r_no.jpg,audio/pikutomadokihoreto.mp3,,,,,,,,,,,,,,,,,,,,,,,,,,,,,,,,,,,,,,,,,,,,,,,,,,,,,,,,,,,,,,,,,,,,,,,,,,
,,,,,,,,,R_5BWLoNagODpTBTz,2022-07-02_18h07.01.454,jpn_C01,2022.1.2,Win32,59.63384817,,,space,5.754400001,0,27,27,26,1,パツ　ピク　ルピン　ピポ,,,CartoonStims/burglar_shoot_doctor_r_no.jpg,audio/patsupikulupinpipo.mp3,,,,,,,,,,,,,,,,,,,,,,,,,,,,,,,,,,,,,,,,,,,,,,,,,,,,,,,,,,,,,,,,,,,,,,,,,,
,,,,,,,,,R_5BWLoNagODpTBTz,2022-07-02_18h07.01.454,jpn_C01,2022.1.2,Win32,59.63384817,,,space,7.471400001,0,28,28,24,1,パツ　ピク　シド　ムク,,,CartoonStims/artist_shoot_cowboy_r_no.jpg,audio/patsupikusidomuku.mp3,,,,,,,,,,,,,,,,,,,,,,,,,,,,,,,,,,,,,,,,,,,,,,,,,,,,,,,,,,,,,,,,,,,,,,,,,,
,,,,,,,,,R_5BWLoNagODpTBTz,2022-07-02_18h07.01.454,jpn_C01,2022.1.2,Win32,59.63384817,,,space,6.4417,0,29,29,46,1,ピク　プミ　ドキ　ムク,,,CartoonStims/boxer_punch_cowboy_r_no.jpg,audio/pikupumidokimuku.mp3,,,,,,,,,,,,,,,,,,,,,,,,,,,,,,,,,,,,,,,,,,,,,,,,,,,,,,,,,,,,,,,,,,,,,,,,,,
,,,,,,,,,R_5BWLoNagODpTBTz,2022-07-02_18h07.01.454,jpn_C01,2022.1.2,Win32,59.63384817,,,space,5.303700001,0,30,30,12,1,トマ　ピク　シド　ホレト,,,CartoonStims/artist_point_chef_r_no.jpg,audio/tomapikusidohoreto.mp3,,,,,,,,,,,,,,,,,,,,,,,,,,,,,,,,,,,,,,,,,,,,,,,,,,,,,,,,,,,,,,,,,,,,,,,,,,
,,,,,,,,,R_5BWLoNagODpTBTz,2022-07-02_18h07.01.454,jpn_C01,2022.1.2,Win32,59.63384817,,,space,5.4208,0,31,31,43,1,プミ　ピク　ムク　ホレト,,,CartoonStims/cowboy_punch_chef_r_no.jpg,audio/pumipikumukuhoreto.mp3,,,,,,,,,,,,,,,,,,,,,,,,,,,,,,,,,,,,,,,,,,,,,,,,,,,,,,,,,,,,,,,,,,,,,,,,,,
,,,,,,,,,R_5BWLoNagODpTBTz,2022-07-02_18h07.01.454,jpn_C01,2022.1.2,Win32,59.63384817,,,space,4.363599999,0,32,32,39,1,プミ　ピク　ルピン　シド,,,CartoonStims/burglar_punch_artist_r_no.jpg,audio/pumipikulupinsido.mp3,,,,,,,,,,,,,,,,,,,,,,,,,,,,,,,,,,,,,,,,,,,,,,,,,,,,,,,,,,,,,,,,,,,,,,,,,,
,,,,,,,,,R_5BWLoNagODpTBTz,2022-07-02_18h07.01.454,jpn_C01,2022.1.2,Win32,59.63384817,,,space,5.9033,0,33,33,25,1,ピク　パツ　シド　ピポ,,,CartoonStims/artist_shoot_doctor_r_no.jpg,audio/pikupatsusidopipo.mp3,,,,,,,,,,,,,,,,,,,,,,,,,,,,,,,,,,,,,,,,,,,,,,,,,,,,,,,,,,,,,,,,,,,,,,,,,,
,,,,,,,,,R_5BWLoNagODpTBTz,2022-07-02_18h07.01.454,jpn_C01,2022.1.2,Win32,59.63384817,,,space,6.9549,0,34,34,28,1,パツ　ピク　ホレト　ドキ,,,CartoonStims/chef_shoot_boxer_r_no.jpg,audio/patsupikuhoretodoki.mp3,,,,,,,,,,,,,,,,,,,,,,,,,,,,,,,,,,,,,,,,,,,,,,,,,,,,,,,,,,,,,,,,,,,,,,,,,,
,,,,,,,,,R_5BWLoNagODpTBTz,2022-07-02_18h07.01.454,jpn_C01,2022.1.2,Win32,59.63384817,,,space,6.348400001,0,35,35,0,1,ピク　セル　シド　ルピン,,,CartoonStims/artist_kick_burglar_r_no.jpg,audio/pikuserusidolupin.mp3,,,,,,,,,,,,,,,,,,,,,,,,,,,,,,,,,,,,,,,,,,,,,,,,,,,,,,,,,,,,,,,,,,,,,,,,,,
,,,,,,,,,R_5BWLoNagODpTBTz,2022-07-02_18h07.01.454,jpn_C01,2022.1.2,Win32,59.63384817,,,space,5.7917,0,36,36,16,1,トマ　ピク　ホレト　ピポ,,,CartoonStims/chef_point_doctor_r_no.jpg,audio/tomapikuhoretopipo.mp3,,,,,,,,,,,,,,,,,,,,,,,,,,,,,,,,,,,,,,,,,,,,,,,,,,,,,,,,,,,,,,,,,,,,,,,,,,
,,,,,,,,,R_5BWLoNagODpTBTz,2022-07-02_18h07.01.454,jpn_C01,2022.1.2,Win32,59.63384817,,,space,9.1616,0,37,37,21,1,ピク　トマ　ピポ　ルピン,,,CartoonStims/doctor_point_burglar_r_no.jpg,audio/pikutomapipolupin.mp3,,,,,,,,,,,,,,,,,,,,,,,,,,,,,,,,,,,,,,,,,,,,,,,,,,,,,,,,,,,,,,,,,,,,,,,,,,
,,,,,,,,,R_5BWLoNagODpTBTz,2022-07-02_18h07.01.454,jpn_C01,2022.1.2,Win32,59.63384817,,,space,6.4255,0,38,38,10,1,ピク　セル　ドキ　シド,,,CartoonStims/boxer_kick_artist_r_no.jpg,audio/pikuserudokisido.mp3,,,,,,,,,,,,,,,,,,,,,,,,,,,,,,,,,,,,,,,,,,,,,,,,,,,,,,,,,,,,,,,,,,,,,,,,,,
,,,,,,,,,R_5BWLoNagODpTBTz,2022-07-02_18h07.01.454,jpn_C01,2022.1.2,Win32,59.63384817,,,space,10.3065,0,39,39,27,1,ピク　パツ　ルピン　ドキ,,,CartoonStims/burglar_shoot_boxer_r_no.jpg,audio/pikupatsulupindoki.mp3,,,,,,,,,,,,,,,,,,,,,,,,,,,,,,,,,,,,,,,,,,,,,,,,,,,,,,,,,,,,,,,,,,,,,,,,,,
,,,,,,,,,R_5BWLoNagODpTBTz,2022-07-02_18h07.01.454,jpn_C01,2022.1.2,Win32,59.63384817,,,space,9.906799999,0,40,40,36,1,ピク　プミ　シド　ピポ,,,CartoonStims/artist_punch_doctor_r_no.jpg,audio/pikupumisidopipo.mp3,,,,,,,,,,,,,,,,,,,,,,,,,,,,,,,,,,,,,,,,,,,,,,,,,,,,,,,,,,,,,,,,,,,,,,,,,,
,,,,,,,,,R_5BWLoNagODpTBTz,2022-07-02_18h07.01.454,jpn_C01,2022.1.2,Win32,59.63384817,,,space,6.7977,0,41,41,42,1,ピク　プミ　ムク　ルピン,,,CartoonStims/cowboy_punch_burglar_r_no.jpg,audio/pikupumimukulupin.mp3,,,,,,,,,,,,,,,,,,,,,,,,,,,,,,,,,,,,,,,,,,,,,,,,,,,,,,,,,,,,,,,,,,,,,,,,,,
,,,,,,,,,R_5BWLoNagODpTBTz,2022-07-02_18h07.01.454,jpn_C01,2022.1.2,Win32,59.63384817,,,space,5.0622,0,42,42,3,1,セル　ピク　ルピン　ムク,,,CartoonStims/burglar_kick_cowboy_r_no.jpg,audio/serupikulupinmuku.mp3,,,,,,,,,,,,,,,,,,,,,,,,,,,,,,,,,,,,,,,,,,,,,,,,,,,,,,,,,,,,,,,,,,,,,,,,,,
,,,,,,,,,R_5BWLoNagODpTBTz,2022-07-02_18h07.01.454,jpn_C01,2022.1.2,Win32,59.63384817,,,space,5.3811,0,43,43,15,1,ピク　トマ　ルピン　ピポ,,,CartoonStims/burglar_point_doctor_r_no.jpg,audio/pikutomalupinpipo.mp3,,,,,,,,,,,,,,,,,,,,,,,,,,,,,,,,,,,,,,,,,,,,,,,,,,,,,,,,,,,,,,,,,,,,,,,,,,
,,,,,,,,,R_5BWLoNagODpTBTz,2022-07-02_18h07.01.454,jpn_C01,2022.1.2,Win32,59.63384817,,,space,7.0945,0,44,44,17,1,ピク　トマ　ホレト　ドキ,,,CartoonStims/chef_point_boxer_r_no.jpg,audio/pikutomahoretodoki.mp3,,,,,,,,,,,,,,,,,,,,,,,,,,,,,,,,,,,,,,,,,,,,,,,,,,,,,,,,,,,,,,,,,,,,,,,,,,
,,,,,,,,,R_5BWLoNagODpTBTz,2022-07-02_18h07.01.454,jpn_C01,2022.1.2,Win32,59.63384817,,,space,6.8589,0,45,45,40,1,ピク　プミ　ホレト　シド,,,CartoonStims/chef_punch_artist_r_no.jpg,audio/pikupumihoretosido.mp3,,,,,,,,,,,,,,,,,,,,,,,,,,,,,,,,,,,,,,,,,,,,,,,,,,,,,,,,,,,,,,,,,,,,,,,,,,
,,,,,,,,,R_5BWLoNagODpTBTz,2022-07-02_18h07.01.454,jpn_C01,2022.1.2,Win32,59.63384817,,,space,5.9538,0,46,46,41,1,プミ　ピク　ホレト　ルピン,,,CartoonStims/chef_punch_burglar_r_no.jpg,audio/pumipikuhoretolupin.mp3,,,,,,,,,,,,,,,,,,,,,,,,,,,,,,,,,,,,,,,,,,,,,,,,,,,,,,,,,,,,,,,,,,,,,,,,,,
,,,,,,,,,R_5BWLoNagODpTBTz,2022-07-02_18h07.01.454,jpn_C01,2022.1.2,Win32,59.63384817,,,space,4.939900001,0,47,47,5,1,セル　ピク　ホレト　ピポ,,,CartoonStims/chef_kick_doctor_r_no.jpg,audio/serupikuhoretopipo.mp3,,,,,,,,,,,,,,,,,,,,,,,,,,,,,,,,,,,,,,,,,,,,,,,,,,,,,,,,,,,,,,,,,,,,,,,,,,
,,,,,,,,,R_5BWLoNagODpTBTz,2022-07-02_18h07.01.454,jpn_C01,2022.1.2,Win32,59.63384817,,,,,,,,,,,,,,,space,0.0431,left,0,4.3415,,,,,,,,,,,,,,,,,,,,,,,,,,,,,,,,,,,,,,,,,,,,,,,,,,,,,,,,,,,,,,0,0,0,0,1,,,
,,,,,,,,,R_5BWLoNagODpTBTz,2022-07-02_18h07.01.454,jpn_C01,2022.1.2,Win32,59.63384817,,,,,,,,,,,,,,,,,,,,,,,,,0,0,0,9,1,CartoonStims/boxer_shoot_doctor_r.jpg,パツ　ピク　ドキ　ピポ,CartoonStims/boxer_point_doctor_r.jpg,right,CartoonStims/boxer_point_doctor_r.jpg,audio/patsupikudokipipo.mp3,"残念！ こちらが正しい画像です。

否定文は起きていないことを示しているのを思い出してください。",,,,,,,,,,,,,,,,,,,,,,,,,,,,,,,,,,,,,,,,,,,,,,,,,,,,
,,,,,,,,,R_5BWLoNagODpTBTz,2022-07-02_18h07.01.454,jpn_C01,2022.1.2,Win32,59.63384817,,,,,,,,,,,,,,,,,right,1,17.9351,0,0,0,0,1,,,,,,,,,,,,,,,,,,,,,,,,,,,,,,,,,,,,,,,,,,,,,,,,,,,,,,,,,,,,,,,,
,,,,,,,,,R_5BWLoNagODpTBTz,2022-07-02_18h07.01.454,jpn_C01,2022.1.2,Win32,59.63384817,,,,,,,,,,,,,,,,,,,,,,,,,0,1,1,1,1,CartoonStims/chef_punch_cowboy_r.jpg,プミ　ピク　ホレト　ムク,CartoonStims/chef_kick_cowboy_r.jpg,right,CartoonStims/chef_kick_cowboy_r.jpg,audio/pumipikuhoretomuku.mp3,"残念！ こちらが正しい画像です。

否定文は起きていないことを示しているのを思い出してください。",,,,,,,,,,,,,,,,,,,,,,,,,,,,,,,,,,,,,,,,,,,,,,,,,,,,
,,,,,,,,,R_5BWLoNagODpTBTz,2022-07-02_18h07.01.454,jpn_C01,2022.1.2,Win32,59.63384817,,,,,,,,,,,,,,,,,right,1,5.733,0,0,0,0,1,,,,,,,,,,,,,,,,,,,,,,,,,,,,,,,,,,,,,,,,,,,,,,,,,,,,,,,,,,,,,,,,
,,,,,,,,,R_5BWLoNagODpTBTz,2022-07-02_18h07.01.454,jpn_C01,2022.1.2,Win32,59.63384817,,,,,,,,,,,,,,,,,,,,,,,,,0,2,2,7,1,CartoonStims/cowboy_point_chef_r.jpg,ピク　トマ　ムク　ホレト,CartoonStims/cowboy_kick_chef_r.jpg,right,CartoonStims/cowboy_kick_chef_r.jpg,audio/pikutomamukuhoreto.mp3,"残念！ こちらが正しい画像です。

否定文は起きていないことを示しているのを思い出してください。",,,,,,,,,,,,,,,,,,,,,,,,,,,,,,,,,,,,,,,,,,,,,,,,,,,,
,,,,,,,,,R_5BWLoNagODpTBTz,2022-07-02_18h07.01.454,jpn_C01,2022.1.2,Win32,59.63384817,,,,,,,,,,,,,,,,,left,1,4.656599999,,,,,,,,,,,,,,,,,,0,0,0,0,1,,,,,,,,,,,,,,,,,,,,,,,,,,,,,,,,,,,,,,,,,,,,,,,
,,,,,,,,,R_5BWLoNagODpTBTz,2022-07-02_18h07.01.454,jpn_C01,2022.1.2,Win32,59.63384817,,,,,,,,,,,,,,,,,,,,,,,,,0,3,3,0,1,CartoonStims/artist_shoot_burglar_r.jpg,ピク　プミ　シド　ルピン,CartoonStims/artist_punch_burglar_r.jpg,left,CartoonStims/artist_shoot_burglar_r.jpg,audio/pikupumisidolupin.mp3,"残念！ こちらが正しい画像です。

否定文は起きていないことを示しているのを思い出してください。",,,,,,,,,,,,,,,,,,,,,,,,,,,,,,,,,,,,,,,,,,,,,,,,,,,,
,,,,,,,,,R_5BWLoNagODpTBTz,2022-07-02_18h07.01.454,jpn_C01,2022.1.2,Win32,59.63384817,,,,,,,,,,,,,,,,,right,1,3.053299999,0,0,0,0,1,,,,,,,,,,,,,,,,,,,,,,,,,,,,,,,,,,,,,,,,,,,,,,,,,,,,,,,,,,,,,,,,
,,,,,,,,,R_5BWLoNagODpTBTz,2022-07-02_18h07.01.454,jpn_C01,2022.1.2,Win32,59.63384817,,,,,,,,,,,,,,,,,,,,,,,,,0,4,4,11,1,CartoonStims/chef_shoot_burglar_r.jpg,パツ　ピク　ホレト　ルピン,CartoonStims/chef_kick_burglar_r.jpg,right,CartoonStims/chef_kick_burglar_r.jpg,audio/patsupikuhoretolupin.mp3,"残念！ こちらが正しい画像です。

否定文は起きていないことを示しているのを思い出してください。",,,,,,,,,,,,,,,,,,,,,,,,,,,,,,,,,,,,,,,,,,,,,,,,,,,,
,,,,,,,,,R_5BWLoNagODpTBTz,2022-07-02_18h07.01.454,jpn_C01,2022.1.2,Win32,59.63384817,,,,,,,,,,,,,,,,,right,1,2.3188,0,0,0,0,1,,,,,,,,,,,,,,,,,,,,,,,,,,,,,,,,,,,,,,,,,,,,,,,,,,,,,,,,,,,,,,,,
,,,,,,,,,R_5BWLoNagODpTBTz,2022-07-02_18h07.01.454,jpn_C01,2022.1.2,Win32,59.63384817,,,,,,,,,,,,,,,,,,,,,,,,,0,5,5,3,1,CartoonStims/chef_kick_artist_r.jpg,ピク　セル　ホレト　シド,CartoonStims/chef_point_artist_r.jpg,right,CartoonStims/chef_point_artist_r.jpg,audio/pikuseruhoretosido.mp3,"残念！ こちらが正しい画像です。

否定文は起きていないことを示しているのを思い出してください。",,,,,,,,,,,,,,,,,,,,,,,,,,,,,,,,,,,,,,,,,,,,,,,,,,,,
,,,,,,,,,R_5BWLoNagODpTBTz,2022-07-02_18h07.01.454,jpn_C01,2022.1.2,Win32,59.63384817,,,,,,,,,,,,,,,,,left,1,8.1925,,,,,,,,,,,,,,,,,,0,0,0,0,1,,,,,,,,,,,,,,,,,,,,,,,,,,,,,,,,,,,,,,,,,,,,,,,
,,,,,,,,,R_5BWLoNagODpTBTz,2022-07-02_18h07.01.454,jpn_C01,2022.1.2,Win32,59.63384817,,,,,,,,,,,,,,,,,,,,,,,,,0,6,6,2,1,CartoonStims/doctor_point_boxer_r.jpg,ピク　プミ　ピポ　ドキ,CartoonStims/doctor_punch_boxer_r.jpg,left,CartoonStims/doctor_point_boxer_r.jpg,audio/pikupumipipodoki.mp3,"残念！ こちらが正しい画像です。

否定文は起きていないことを示しているのを思い出してください。",,,,,,,,,,,,,,,,,,,,,,,,,,,,,,,,,,,,,,,,,,,,,,,,,,,,
,,,,,,,,,R_5BWLoNagODpTBTz,2022-07-02_18h07.01.454,jpn_C01,2022.1.2,Win32,59.63384817,,,,,,,,,,,,,,,,,right,0,5.7998,,,,,,,,,,,,,,,,,,,,,,,0,0,0,0,1,,,,,,,,,,,,,,,,,,,,,,,,,,,,,,,,,,,,,,,,,,
,,,,,,,,,R_5BWLoNagODpTBTz,2022-07-02_18h07.01.454,jpn_C01,2022.1.2,Win32,59.63384817,,,,,,,,,,,,,,,,,,,,,,,,,0,7,7,4,1,CartoonStims/burglar_shoot_doctor_r.jpg,セル　ピク　ルピン　ピポ,CartoonStims/burglar_kick_doctor_r.jpg,left,CartoonStims/burglar_shoot_doctor_r.jpg,audio/serupikulupinpipo.mp3,"残念！ こちらが正しい画像です。

否定文は起きていないことを示しているのを思い出してください。",,,,,,,,,,,,,,,,,,,,,,,,,,,,,,,,,,,,,,,,,,,,,,,,,,,,
,,,,,,,,,R_5BWLoNagODpTBTz,2022-07-02_18h07.01.454,jpn_C01,2022.1.2,Win32,59.63384817,,,,,,,,,,,,,,,,,left,1,3.9762,,,,,,,,,,,,,,,,,,0,0,0,0,1,,,,,,,,,,,,,,,,,,,,,,,,,,,,,,,,,,,,,,,,,,,,,,,
,,,,,,,,,R_5BWLoNagODpTBTz,2022-07-02_18h07.01.454,jpn_C01,2022.1.2,Win32,59.63384817,,,,,,,,,,,,,,,,,,,,,,,,,0,8,8,10,1,CartoonStims/doctor_punch_cowboy_r.jpg,ピク　パツ　ピポ　ムク,CartoonStims/doctor_shoot_cowboy_r.jpg,left,CartoonStims/doctor_punch_cowboy_r.jpg,audio/pikupatsupipomuku.mp3,"残念！ こちらが正しい画像です。

否定文は起きていないことを示しているのを思い出してください。",,,,,,,,,,,,,,,,,,,,,,,,,,,,,,,,,,,,,,,,,,,,,,,,,,,,
,,,,,,,,,R_5BWLoNagODpTBTz,2022-07-02_18h07.01.454,jpn_C01,2022.1.2,Win32,59.63384817,,,,,,,,,,,,,,,,,right,1,2.7925,0,0,0,0,1,,,,,,,,,,,,,,,,,,,,,,,,,,,,,,,,,,,,,,,,,,,,,,,,,,,,,,,,,,,,,,,,
,,,,,,,,,R_5BWLoNagODpTBTz,2022-07-02_18h07.01.454,jpn_C01,2022.1.2,Win32,59.63384817,,,,,,,,,,,,,,,,,,,,,,,,,0,9,9,5,1,CartoonStims/boxer_kick_cowboy_r.jpg,ピク　セル　ドキ　ムク,CartoonStims/boxer_punch_cowboy_r.jpg,right,CartoonStims/boxer_punch_cowboy_r.jpg,audio/pikuserudokimuku.mp3,"残念！ こちらが正しい画像です。

否定文は起きていないことを示しているのを思い出してください。",,,,,,,,,,,,,,,,,,,,,,,,,,,,,,,,,,,,,,,,,,,,,,,,,,,,
,,,,,,,,,R_5BWLoNagODpTBTz,2022-07-02_18h07.01.454,jpn_C01,2022.1.2,Win32,59.63384817,,,,,,,,,,,,,,,,,left,1,6.240900001,,,,,,,,,,,,,,,,,,0,0,0,0,1,,,,,,,,,,,,,,,,,,,,,,,,,,,,,,,,,,,,,,,,,,,,,,,
,,,,,,,,,R_5BWLoNagODpTBTz,2022-07-02_18h07.01.454,jpn_C01,2022.1.2,Win32,59.63384817,,,,,,,,,,,,,,,,,,,,,,,,,0,10,10,8,1,CartoonStims/burglar_punch_artist_r.jpg,トマ　ピク　ルピン　シド,CartoonStims/burglar_point_artist_r.jpg,left,CartoonStims/burglar_punch_artist_r.jpg,audio/tomapikulupinsido.mp3,"残念！ こちらが正しい画像です。

否定文は起きていないことを示しているのを思い出してください。",,,,,,,,,,,,,,,,,,,,,,,,,,,,,,,,,,,,,,,,,,,,,,,,,,,,
,,,,,,,,,R_5BWLoNagODpTBTz,2022-07-02_18h07.01.454,jpn_C01,2022.1.2,Win32,59.63384817,,,,,,,,,,,,,,,,,left,1,5.2383,,,,,,,,,,,,,,,,,,0,0,0,0,1,,,,,,,,,,,,,,,,,,,,,,,,,,,,,,,,,,,,,,,,,,,,,,,
,,,,,,,,,R_5BWLoNagODpTBTz,2022-07-02_18h07.01.454,jpn_C01,2022.1.2,Win32,59.63384817,,,,,,,,,,,,,,,,,,,,,,,,,0,11,11,6,1,CartoonStims/artist_shoot_boxer_r.jpg,トマ　ピク　シド　ドキ,CartoonStims/artist_point_boxer_r.jpg,left,CartoonStims/artist_shoot_boxer_r.jpg,audio/tomapikusidodoki.mp3,"残念！ こちらが正しい画像です。

否定文は起きていないことを示しているのを思い出してください。",,,,,,,,,,,,,,,,,,,,,,,,,,,,,,,,,,,,,,,,,,,,,,,,,,,,
,,,,,,,,,R_5BWLoNagODpTBTz,2022-07-02_18h07.01.454,jpn_C01,2022.1.2,Win32,59.63384817,,,,,,,,,,,,,CartoonStims/doctor_point_boxer_r_no.jpg,,,,,,,,,,,,,,,,,,,,,,,,,,,,,,,,,,space,5.177,トマ　ピク　ピポ　ドキ,right,19.3288,,,,,,0,0,0,10,1,,,,,,,,,,,,,,,,,,,,,,,,,ピク　トマ　ピポ　ドキ,トマ　ピク　ピポ　ドキ,1
,,,,,,,,,R_5BWLoNagODpTBTz,2022-07-02_18h07.01.454,jpn_C01,2022.1.2,Win32,59.63384817,,,,,,,,,,,,,CartoonStims/doctor_kick_cowboy_r_no.jpg,,,,,,,,,,,,,,,,,,,,,,,,,,,,,,,,,,,,ピク　セル　ピポ　シド,right,36.236,,,,,,0,1,1,4,1,,,,,,,,,,,,,,,,,,,,,,,,,ピク　セル　ピポ　ムク,セル　ピク　ピポ　ムク,1
,,,,,,,,,R_5BWLoNagODpTBTz,2022-07-02_18h07.01.454,jpn_C01,2022.1.2,Win32,59.63384817,,,,,,,,,,,,,CartoonStims/boxer_punch_chef_r_no.jpg,,,,,,,,,,,,,,,,,,,,,,,,,,,,,,,,,,,,ピク　　ドキ　ホレト,right,59.704,,,,,,0,2,2,23,1,,,,,,,,,,,,,,,,,,,,,,,,,ピク　プミ　ドキ　ホレト,プミ　ピク　ドキ　ホレト,1
,,,,,,,,,R_5BWLoNagODpTBTz,2022-07-02_18h07.01.454,jpn_C01,2022.1.2,Win32,59.63384817,,,,,,,,,,,,,CartoonStims/burglar_point_artist_r.jpg,,,,,,,,,,,,,,,,,,,,,,,,,,,,,,,,,,,,トマ　ルピン　シド,right,17.4137,,,,,,0,3,3,28,1,,,,,,,,,,,,,,,,,,,,,,,,,トマ　ルピン　シド,トマ　ルピン　シド,0
,,,,,,,,,R_5BWLoNagODpTBTz,2022-07-02_18h07.01.454,jpn_C01,2022.1.2,Win32,59.63384817,,,,,,,,,,,,,CartoonStims/boxer_point_artist_r_no.jpg,,,,,,,,,,,,,,,,,,,,,,,,,,,,,,,,,,,,ピク　トマ　ドキ　シド,right,16.7398,,,,,,0,4,4,11,1,,,,,,,,,,,,,,,,,,,,,,,,,ピク　トマ　ドキ　シド,トマ　ピク　ドキ　シド,1
,,,,,,,,,R_5BWLoNagODpTBTz,2022-07-02_18h07.01.454,jpn_C01,2022.1.2,Win32,59.63384817,,,,,,,,,,,,,CartoonStims/burglar_kick_artist_r_no.jpg,,,,,,,,,,,,,,,,,,,,,,,,,,,,,,,,,,,,ピク　セル　ルピン　シド,right,17.4568,,,,,,0,5,5,1,1,,,,,,,,,,,,,,,,,,,,,,,,,ピク　セル　ルピン　シド,セル　ピク　ルピン　シド,1
,,,,,,,,,R_5BWLoNagODpTBTz,2022-07-02_18h07.01.454,jpn_C01,2022.1.2,Win32,59.63384817,,,,,,,,,,,,,CartoonStims/doctor_punch_burglar_r_no.jpg,,,,,,,,,,,,,,,,,,,,,,,,,,,,,,,,,,,,ピク　　　ピポ　ルピン,right,19.5172,,,,,,0,6,6,22,1,,,,,,,,,,,,,,,,,,,,,,,,,ピク　プミ　ピポ　ルピン,プミ　ピク　ピポ　ルピン,1
,,,,,,,,,R_5BWLoNagODpTBTz,2022-07-02_18h07.01.454,jpn_C01,2022.1.2,Win32,59.63384817,,,,,,,,,,,,,CartoonStims/chef_point_burglar_r.jpg,,,,,,,,,,,,,,,,,,,,,,,,,,,,,,,,,,,,トマ　ホレト　ルピン,right,12.9648,,,,,,0,7,7,29,1,,,,,,,,,,,,,,,,,,,,,,,,,トマ　ホレト　ルピン,トマ　ホレト　ルピン,0
,,,,,,,,,R_5BWLoNagODpTBTz,2022-07-02_18h07.01.454,jpn_C01,2022.1.2,Win32,59.63384817,,,,,,,,,,,,,CartoonStims/boxer_punch_artist_r.jpg,,,,,,,,,,,,,,,,,,,,,,,,,,,,,,,,,,,,ドキ　シド,right,25.0168,,,,,,0,8,8,35,1,,,,,,,,,,,,,,,,,,,,,,,,,プミ　ドキ　シド,プミ　ドキ　シド,0
,,,,,,,,,R_5BWLoNagODpTBTz,2022-07-02_18h07.01.454,jpn_C01,2022.1.2,Win32,59.63384817,,,,,,,,,,,,,CartoonStims/cowboy_shoot_doctor_r.jpg,,,,,,,,,,,,,,,,,,,,,,,,,,,,,,,,,,,,,right,0.0996,,,,,,0,9,9,32,1,,,,,,,,,,,,,,,,,,,,,,,,,パツ　ムク　ピポ,パツ　ムク　ピポ,0
,,,,,,,,,R_5BWLoNagODpTBTz,2022-07-02_18h07.01.454,jpn_C01,2022.1.2,Win32,59.63384817,,,,,,,,,,,,,CartoonStims/burglar_shoot_chef_r.jpg,,,,,,,,,,,,,,,,,,,,,,,,,,,,,,,,,,,,パツ　ルピン　ホレト,right,13.0567,,,,,,0,10,10,30,1,,,,,,,,,,,,,,,,,,,,,,,,,パツ　ルピン　ホレト,パツ　ルピン　ホレト,0
,,,,,,,,,R_5BWLoNagODpTBTz,2022-07-02_18h07.01.454,jpn_C01,2022.1.2,Win32,59.63384817,,,,,,,,,,,,,CartoonStims/cowboy_shoot_boxer_r_no.jpg,,,,,,,,,,,,,,,,,,,,,,,,,,,,,,,,,,,,パツ　ピク　シド　ドキ,right,21.6776,,,,,,0,11,11,15,1,,,,,,,,,,,,,,,,,,,,,,,,,ピク　パツ　ムク　ドキ,パツ　ピク　ムク　ドキ,1
,,,,,,,,,R_5BWLoNagODpTBTz,2022-07-02_18h07.01.454,jpn_C01,2022.1.2,Win32,59.63384817,,,,,,,,,,,,,CartoonStims/boxer_kick_cowboy_r.jpg,,,,,,,,,,,,,,,,,,,,,,,,,,,,,,,,,,,,セル　ドキ　シド,right,19.3599,,,,,,0,12,12,26,1,,,,,,,,,,,,,,,,,,,,,,,,,セル　ドキ　ムク,セル　ドキ　ムク,0
,,,,,,,,,R_5BWLoNagODpTBTz,2022-07-02_18h07.01.454,jpn_C01,2022.1.2,Win32,59.63384817,,,,,,,,,,,,,CartoonStims/chef_point_cowboy_r_no.jpg,,,,,,,,,,,,,,,,,,,,,,,,,,,,,,,,,,,,トマ　ピク　ホレト　シド,right,23.9348,,,,,,0,13,13,8,1,,,,,,,,,,,,,,,,,,,,,,,,,ピク　トマ　ホレト　ムク,トマ　ピク　ホレト　ムク,1
,,,,,,,,,R_5BWLoNagODpTBTz,2022-07-02_18h07.01.454,jpn_C01,2022.1.2,Win32,59.63384817,,,,,,,,,,,,,CartoonStims/cowboy_kick_chef_r_no.jpg,,,,,,,,,,,,,,,,,,,,,,,,,,,,,,,,,,,,ピク　セル　シド　ホレト,right,14.3614,,,,,,0,14,14,3,1,,,,,,,,,,,,,,,,,,,,,,,,,ピク　セル　ムク　ホレト,セル　ピク　ムク　ホレト,1
,,,,,,,,,R_5BWLoNagODpTBTz,2022-07-02_18h07.01.454,jpn_C01,2022.1.2,Win32,59.63384817,,,,,,,,,,,,,CartoonStims/doctor_kick_chef_r.jpg,,,,,,,,,,,,,,,,,,,,,,,,,,,,,,,,,,,,セル　ピポ　ホレト,right,14.7013,,,,,,0,15,15,25,1,,,,,,,,,,,,,,,,,,,,,,,,,セル　ピポ　ホレト,セル　ピポ　ホレト,0
,,,,,,,,,R_5BWLoNagODpTBTz,2022-07-02_18h07.01.454,jpn_C01,2022.1.2,Win32,59.63384817,,,,,,,,,,,,,CartoonStims/boxer_kick_doctor_r_no.jpg,,,,,,,,,,,,,,,,,,,,,,,,,,,,,,,,,,,,ピク　セル　ドキ　ピポ,right,13.6099,,,,,,0,16,16,5,1,,,,,,,,,,,,,,,,,,,,,,,,,ピク　セル　ドキ　ピポ,セル　ピク　ドキ　ピポ,1
,,,,,,,,,R_5BWLoNagODpTBTz,2022-07-02_18h07.01.454,jpn_C01,2022.1.2,Win32,59.63384817,,,,,,,,,,,,,CartoonStims/burglar_shoot_cowboy_r_no.jpg,,,,,,,,,,,,,,,,,,,,,,,,,,,,,,,,,,,,パツ　ピク　ルピン　シド,right,16.607,,,,,,0,17,17,13,1,,,,,,,,,,,,,,,,,,,,,,,,,ピク　パツ　ルピン　ムク,パツ　ピク　ルピン　ムク,1
,,,,,,,,,R_5BWLoNagODpTBTz,2022-07-02_18h07.01.454,jpn_C01,2022.1.2,Win32,59.63384817,,,,,,,,,,,,,CartoonStims/artist_punch_burglar_r.jpg,,,,,,,,,,,,,,,,,,,,,,,,,,,,,,,,,,,,シド　ルピン,right,17.35,,,,,,0,18,18,33,1,,,,,,,,,,,,,,,,,,,,,,,,,プミ　シド　ルピン,プミ　シド　ルピン,0
,,,,,,,,,R_5BWLoNagODpTBTz,2022-07-02_18h07.01.454,jpn_C01,2022.1.2,Win32,59.63384817,,,,,,,,,,,,,CartoonStims/chef_kick_burglar_r_no.jpg,,,,,,,,,,,,,,,,,,,,,,,,,,,,,,,,,,,,ピク　セル　ホレト　ルピン,right,24.3304,,,,,,0,19,19,2,1,,,,,,,,,,,,,,,,,,,,,,,,,ピク　セル　ホレト　ルピン,セル　ピク　ホレト　ルピン,1
,,,,,,,,,R_5BWLoNagODpTBTz,2022-07-02_18h07.01.454,jpn_C01,2022.1.2,Win32,59.63384817,,,,,,,,,,,,,CartoonStims/artist_shoot_chef_r_no.jpg,,,,,,,,,,,,,,,,,,,,,,,,,,,,,,,,,,,,パツ　ピク　シド　ホレト,right,13.7638,,,,,,0,20,20,12,1,,,,,,,,,,,,,,,,,,,,,,,,,ピク　パツ　シド　ホレト,パツ　ピク　シド　ホレト,1
,,,,,,,,,R_5BWLoNagODpTBTz,2022-07-02_18h07.01.454,jpn_C01,2022.1.2,Win32,59.63384817,,,,,,,,,,,,,CartoonStims/artist_punch_cowboy_r_no.jpg,,,,,,,,,,,,,,,,,,,,,,,,,,,,,,,,,,,,ピク　シド　,right,28.3445,,,,,,0,21,21,18,1,,,,,,,,,,,,,,,,,,,,,,,,,ピク　プミ　シド　ムク,プミ　ピク　シド　ムク,1
,,,,,,,,,R_5BWLoNagODpTBTz,2022-07-02_18h07.01.454,jpn_C01,2022.1.2,Win32,59.63384817,,,,,,,,,,,,,CartoonStims/boxer_shoot_burglar_r_no.jpg,,,,,,,,,,,,,,,,,,,,,,,,,,,,,,,,,,,,パツ　ピク　ドキ　ルピン,right,14.4312,,,,,,0,22,22,17,1,,,,,,,,,,,,,,,,,,,,,,,,,ピク　パツ　ドキ　ルピン,パツ　ピク　ドキ　ルピン,1
,,,,,,,,,R_5BWLoNagODpTBTz,2022-07-02_18h07.01.454,jpn_C01,2022.1.2,Win32,59.63384817,,,,,,,,,,,,,CartoonStims/doctor_punch_boxer_r.jpg,,,,,,,,,,,,,,,,,,,,,,,,,,,,,,,,,,,,ピポ　ドキ,right,14.4116,,,,,,0,23,23,34,1,,,,,,,,,,,,,,,,,,,,,,,,,プミ　ピポ　ドキ,プミ　ピポ　ドキ,0
,,,,,,,,,R_5BWLoNagODpTBTz,2022-07-02_18h07.01.454,jpn_C01,2022.1.2,Win32,59.63384817,,,,,,,,,,,,,CartoonStims/chef_shoot_cowboy_r.jpg,,,,,,,,,,,,,,,,,,,,,,,,,,,,,,,,,,,,パツ　ホレト　シド,right,10.8573,,,,,,0,24,24,31,1,,,,,,,,,,,,,,,,,,,,,,,,,パツ　ホレト　ムク,パツ　ホレト　ムク,0
,,,,,,,,,R_5BWLoNagODpTBTz,2022-07-02_18h07.01.454,jpn_C01,2022.1.2,Win32,59.63384817,,,,,,,,,,,,,CartoonStims/artist_point_boxer_r.jpg,,,,,,,,,,,,,,,,,,,,,,,,,,,,,,,,,,,,トマ　シド　ドキ,right,12.9405,,,,,,0,25,25,27,1,,,,,,,,,,,,,,,,,,,,,,,,,トマ　シド　ドキ,トマ　シド　ドキ,0
,,,,,,,,,R_5BWLoNagODpTBTz,2022-07-02_18h07.01.454,jpn_C01,2022.1.2,Win32,59.63384817,,,,,,,,,,,,,CartoonStims/chef_punch_boxer_r_no.jpg,,,,,,,,,,,,,,,,,,,,,,,,,,,,,,,,,,,,ピク　ホレト　ドキ,right,17.4632,,,,,,0,26,26,20,1,,,,,,,,,,,,,,,,,,,,,,,,,ピク　プミ　ホレト　ドキ,プミ　ピク　ホレト　ドキ,1
,,,,,,,,,R_5BWLoNagODpTBTz,2022-07-02_18h07.01.454,jpn_C01,2022.1.2,Win32,59.63384817,,,,,,,,,,,,,CartoonStims/cowboy_punch_artist_r_no.jpg,,,,,,,,,,,,,,,,,,,,,,,,,,,,,,,,,,,,ピク　シド,right,12.6053,,,,,,0,27,27,21,1,,,,,,,,,,,,,,,,,,,,,,,,,ピク　プミ　ムク　シド,プミ　ピク　ムク　シド,1
,,,,,,,,,R_5BWLoNagODpTBTz,2022-07-02_18h07.01.454,jpn_C01,2022.1.2,Win32,59.63384817,,,,,,,,,,,,,CartoonStims/cowboy_kick_burglar_r.jpg,,,,,,,,,,,,,,,,,,,,,,,,,,,,,,,,,,,,セル　シド　ルピン,right,9.8043,,,,,,0,28,28,24,1,,,,,,,,,,,,,,,,,,,,,,,,,セル　ムク　ルピン,セル　ムク　ルピン,0
,,,,,,,,,R_5BWLoNagODpTBTz,2022-07-02_18h07.01.454,jpn_C01,2022.1.2,Win32,59.63384817,,,,,,,,,,,,,CartoonStims/cowboy_point_doctor_r_no.jpg,,,,,,,,,,,,,,,,,,,,,,,,,,,,,,,,,,,,トマ　ピク　シド　ピポ,right,22.192,,,,,,0,29,29,9,1,,,,,,,,,,,,,,,,,,,,,,,,,ピク　トマ　ムク　ピポ,トマ　ピク　ムク　ピポ,1
,,,,,,,,,R_5BWLoNagODpTBTz,2022-07-02_18h07.01.454,jpn_C01,2022.1.2,Win32,59.63384817,,,,,,,,,,,,,CartoonStims/artist_kick_boxer_r_no.jpg,,,,,,,,,,,,,,,,,,,,,,,,,,,,,,,,,,,,ピク　セル　シド　ドキ,right,14.61,,,,,,0,30,30,0,1,,,,,,,,,,,,,,,,,,,,,,,,,ピク　セル　シド　ドキ,セル　ピク　シド　ドキ,1
,,,,,,,,,R_5BWLoNagODpTBTz,2022-07-02_18h07.01.454,jpn_C01,2022.1.2,Win32,59.63384817,,,,,,,,,,,,,CartoonStims/doctor_shoot_artist_r_no.jpg,,,,,,,,,,,,,,,,,,,,,,,,,,,,,,,,,,,,パツ　ピク　ピポ　シド,right,17.0238,,,,,,0,31,31,16,1,,,,,,,,,,,,,,,,,,,,,,,,,ピク　パツ　ピポ　シド,パツ　ピク　ピポ　シド,1
,,,,,,,,,R_5BWLoNagODpTBTz,2022-07-02_18h07.01.454,jpn_C01,2022.1.2,Win32,59.63384817,,,,,,,,,,,,,CartoonStims/burglar_punch_doctor_r_no.jpg,,,,,,,,,,,,,,,,,,,,,,,,,,,,,,,,,,,,ピク　ルピン　ピポ,right,12.772,,,,,,0,32,32,19,1,,,,,,,,,,,,,,,,,,,,,,,,,ピク　プミ　ルピン　ピポ,プミ　ピク　ルピン　ピポ,1
,,,,,,,,,R_5BWLoNagODpTBTz,2022-07-02_18h07.01.454,jpn_C01,2022.1.2,Win32,59.63384817,,,,,,,,,,,,,CartoonStims/chef_shoot_doctor_r_no.jpg,,,,,,,,,,,,,,,,,,,,,,,,,,,,,,,,,,,,パツ　ピク　ホレト　ピポ,right,15.489,,,,,,0,33,33,14,1,,,,,,,,,,,,,,,,,,,,,,,,,ピク　パツ　ホレト　ピポ,パツ　ピク　ホレト　ピポ,1
,,,,,,,,,R_5BWLoNagODpTBTz,2022-07-02_18h07.01.454,jpn_C01,2022.1.2,Win32,59.63384817,,,,,,,,,,,,,CartoonStims/artist_point_burglar_r_no.jpg,,,,,,,,,,,,,,,,,,,,,,,,,,,,,,,,,,,,トマ　ピク　シド　ルピン,right,47.0692,,,,,,0,34,34,6,1,,,,,,,,,,,,,,,,,,,,,,,,,ピク　トマ　シド　ルピン,トマ　ピク　シド　ルピン,1
,,,,,,,,,R_5BWLoNagODpTBTz,2022-07-02_18h07.01.454,jpn_C01,2022.1.2,Win32,59.63384817,,,,,,,,,,,,,CartoonStims/burglar_point_chef_r_no.jpg,,,,,,,,,,,,,,,,,,,,,,,,,,,,,,,,,,,,トマ　ピク　ルピン　ホレト,right,10.2286,,,,,,0,35,35,7,1,,,,,,,,,,,,,,,,,,,,,,,,,ピク　トマ　ルピン　ホレト,トマ　ピク　ルピン　ホレト,1
,,,,,,,,,R_5BWLoNagODpTBTz,2022-07-02_18h07.01.454,jpn_C01,2022.1.2,Win32,59.63384817,,,,,,,,,,,,,,,,,,,,,,,,,,,,,,,,,,,,,,,,,,,,,,,,,,,,,,,,,,,,,,,,space,1.8425,0,2,2,2,1,EquiprobableCondition.xlsx,"ここではこの言語における否定の文を学習していただきます。引き続き注意して、 聞こえた音を復唱してください。

スペースキーを押してください。",1,EquiFCT.xlsx,ここからクイズが始まります。 スクリーンに表示されるテキストに合うイメージを選んでください。,NegTest.xlsx,1,最後にここまで学んだことをアウトプットしていただきます。 テキストボックスにあるイメージを描写するテキストを入力してください。 このタスクでは、 答え合わせは行いません。,0,これですべての実験が終わりました。 お疲れさまです。 この後はアンケートに答えていただきます。,,,,,,,,