key_resp_instr_a.keys,key_resp_instr_a.rt,key_resp_instr_b.keys,key_resp_instr_b.rt,dummy.thisRepN,dummy.thisTrialN,dummy.thisN,dummy.thisIndex,dummy.ran,participant,date,expName,psychopyVersion,OS,frameRate,key_resp_instr1.keys,key_resp_instr1.rt,key_resp.keys,key_resp.rt,exp_loop.thisRepN,exp_loop.thisTrialN,exp_loop.thisN,exp_loop.thisIndex,exp_loop.ran,Word,English,Flip,Path,Audio,key_resp_instr2.keys,key_resp_instr2.rt,key_resp_fct.keys,key_resp_fct.corr,key_resp_fct.rt,trials.thisRepN,trials.thisTrialN,trials.thisN,trials.thisIndex,trials.ran,fct_loop.thisRepN,fct_loop.thisTrialN,fct_loop.thisN,fct_loop.thisIndex,fct_loop.ran,left_img,word,right_img,correctans,correct_img,audio,incorrect_feedback,trials_2.thisRepN,trials_2.thisTrialN,trials_2.thisN,trials_2.thisIndex,trials_2.ran,key_resp_instr3.keys,key_resp_instr3.rt,textbox.text,key_resp_2.keys,key_resp_2.rt,fb_yn.thisRepN,fb_yn.thisTrialN,fb_yn.thisN,fb_yn.thisIndex,fb_yn.ran,gather_loop.thisRepN,gather_loop.thisTrialN,gather_loop.thisN,gather_loop.thisIndex,gather_loop.ran,Text,Wordbank,key_resp_instr4.keys,key_resp_instr4.rt,master_loop.thisRepN,master_loop.thisTrialN,master_loop.thisN,master_loop.thisIndex,master_loop.ran,exposure_file,instr_1,exp_reps,fct_file,instr_2,gather_file,gather_reps,instr_3,fReps,instr_4,trials_3.thisRepN,trials_3.thisTrialN,trials_3.thisN,trials_3.thisIndex,trials_3.ran,trials_4.thisRepN,trials_4.thisTrialN,trials_4.thisN,trials_4.thisIndex,trials_4.ran,NegVSentence,VNegSentence,NegTF
space,14.767,space,14.317,0,0,0,0,1,R_2ATjyKyPgAt7gCD,2022-11-23_18h37.07.359,jpn_C01,2022.1.2,MacIntel,62.5,,,,,,,,,,,,,,,,,,,,,,,,,,,,,,,,,,,,,,,,,,,,,,,,,,,,,,,,,,,,,,,,,,,,,,,,,,,,,,,,,,,,,,,,
,,,,,,,,,R_2ATjyKyPgAt7gCD,2022-11-23_18h37.07.359,jpn_C01,2022.1.2,MacIntel,62.5,space,11.85,space,4.1,0,0,0,1,1,ルピン,burglar,,CartoonStims/burglar_r.jpg,audio/lupin.mp3,,,,,,,,,,,,,,,,,,,,,,,,,,,,,,,,,,,,,,,,,,,,,,,,,,,,,,,,,,,,,,,,,,,,,,,,,,
,,,,,,,,,R_2ATjyKyPgAt7gCD,2022-11-23_18h37.07.359,jpn_C01,2022.1.2,MacIntel,62.5,,,space,15.189,0,1,1,3,1,ムク,cowboy,,CartoonStims/cowboy_r.jpg,audio/muku.mp3,,,,,,,,,,,,,,,,,,,,,,,,,,,,,,,,,,,,,,,,,,,,,,,,,,,,,,,,,,,,,,,,,,,,,,,,,,
,,,,,,,,,R_2ATjyKyPgAt7gCD,2022-11-23_18h37.07.359,jpn_C01,2022.1.2,MacIntel,62.5,,,space,9.037,0,2,2,0,1,シド,artist,,CartoonStims/artist_r.jpg,audio/sido.mp3,,,,,,,,,,,,,,,,,,,,,,,,,,,,,,,,,,,,,,,,,,,,,,,,,,,,,,,,,,,,,,,,,,,,,,,,,,
,,,,,,,,,R_2ATjyKyPgAt7gCD,2022-11-23_18h37.07.359,jpn_C01,2022.1.2,MacIntel,62.5,,,space,6.769,0,3,3,4,1,ピポ,doctor,,CartoonStims/doctor_r.jpg,audio/pipo.mp3,,,,,,,,,,,,,,,,,,,,,,,,,,,,,,,,,,,,,,,,,,,,,,,,,,,,,,,,,,,,,,,,,,,,,,,,,,
,,,,,,,,,R_2ATjyKyPgAt7gCD,2022-11-23_18h37.07.359,jpn_C01,2022.1.2,MacIntel,62.5,,,space,9.217,0,4,4,2,1,ホレト,chef,,CartoonStims/chef_r.jpg,audio/horeto.mp3,,,,,,,,,,,,,,,,,,,,,,,,,,,,,,,,,,,,,,,,,,,,,,,,,,,,,,,,,,,,,,,,,,,,,,,,,,
,,,,,,,,,R_2ATjyKyPgAt7gCD,2022-11-23_18h37.07.359,jpn_C01,2022.1.2,MacIntel,62.5,,,space,5.536,0,5,5,5,1,ドキ,boxer,,CartoonStims/boxer_r.jpg,audio/doki.mp3,,,,,,,,,,,,,,,,,,,,,,,,,,,,,,,,,,,,,,,,,,,,,,,,,,,,,,,,,,,,,,,,,,,,,,,,,,
,,,,,,,,,R_2ATjyKyPgAt7gCD,2022-11-23_18h37.07.359,jpn_C01,2022.1.2,MacIntel,62.5,,,space,1.783,1,0,6,5,1,ドキ,boxer,,CartoonStims/boxer_r.jpg,audio/doki.mp3,,,,,,,,,,,,,,,,,,,,,,,,,,,,,,,,,,,,,,,,,,,,,,,,,,,,,,,,,,,,,,,,,,,,,,,,,,
,,,,,,,,,R_2ATjyKyPgAt7gCD,2022-11-23_18h37.07.359,jpn_C01,2022.1.2,MacIntel,62.5,,,space,5.266,1,1,7,0,1,シド,artist,,CartoonStims/artist_r.jpg,audio/sido.mp3,,,,,,,,,,,,,,,,,,,,,,,,,,,,,,,,,,,,,,,,,,,,,,,,,,,,,,,,,,,,,,,,,,,,,,,,,,
,,,,,,,,,R_2ATjyKyPgAt7gCD,2022-11-23_18h37.07.359,jpn_C01,2022.1.2,MacIntel,62.5,,,space,2.866,1,2,8,1,1,ルピン,burglar,,CartoonStims/burglar_r.jpg,audio/lupin.mp3,,,,,,,,,,,,,,,,,,,,,,,,,,,,,,,,,,,,,,,,,,,,,,,,,,,,,,,,,,,,,,,,,,,,,,,,,,
,,,,,,,,,R_2ATjyKyPgAt7gCD,2022-11-23_18h37.07.359,jpn_C01,2022.1.2,MacIntel,62.5,,,space,2.434,1,3,9,3,1,ムク,cowboy,,CartoonStims/cowboy_r.jpg,audio/muku.mp3,,,,,,,,,,,,,,,,,,,,,,,,,,,,,,,,,,,,,,,,,,,,,,,,,,,,,,,,,,,,,,,,,,,,,,,,,,
,,,,,,,,,R_2ATjyKyPgAt7gCD,2022-11-23_18h37.07.359,jpn_C01,2022.1.2,MacIntel,62.5,,,space,3.433,1,4,10,4,1,ピポ,doctor,,CartoonStims/doctor_r.jpg,audio/pipo.mp3,,,,,,,,,,,,,,,,,,,,,,,,,,,,,,,,,,,,,,,,,,,,,,,,,,,,,,,,,,,,,,,,,,,,,,,,,,
,,,,,,,,,R_2ATjyKyPgAt7gCD,2022-11-23_18h37.07.359,jpn_C01,2022.1.2,MacIntel,62.5,,,space,2.234,1,5,11,2,1,ホレト,chef,,CartoonStims/chef_r.jpg,audio/horeto.mp3,,,,,,,,,,,,,,,,,,,,,,,,,,,,,,,,,,,,,,,,,,,,,,,,,,,,,,,,,,,,,,,,,,,,,,,,,,
,,,,,,,,,R_2ATjyKyPgAt7gCD,2022-11-23_18h37.07.359,jpn_C01,2022.1.2,MacIntel,62.5,,,space,0.871,2,0,12,5,1,ドキ,boxer,,CartoonStims/boxer_r.jpg,audio/doki.mp3,,,,,,,,,,,,,,,,,,,,,,,,,,,,,,,,,,,,,,,,,,,,,,,,,,,,,,,,,,,,,,,,,,,,,,,,,,
,,,,,,,,,R_2ATjyKyPgAt7gCD,2022-11-23_18h37.07.359,jpn_C01,2022.1.2,MacIntel,62.5,,,space,5.268,2,1,13,4,1,ピポ,doctor,,CartoonStims/doctor_r.jpg,audio/pipo.mp3,,,,,,,,,,,,,,,,,,,,,,,,,,,,,,,,,,,,,,,,,,,,,,,,,,,,,,,,,,,,,,,,,,,,,,,,,,
,,,,,,,,,R_2ATjyKyPgAt7gCD,2022-11-23_18h37.07.359,jpn_C01,2022.1.2,MacIntel,62.5,,,space,1.75,2,2,14,2,1,ホレト,chef,,CartoonStims/chef_r.jpg,audio/horeto.mp3,,,,,,,,,,,,,,,,,,,,,,,,,,,,,,,,,,,,,,,,,,,,,,,,,,,,,,,,,,,,,,,,,,,,,,,,,,
,,,,,,,,,R_2ATjyKyPgAt7gCD,2022-11-23_18h37.07.359,jpn_C01,2022.1.2,MacIntel,62.5,,,space,2.716,2,3,15,0,1,シド,artist,,CartoonStims/artist_r.jpg,audio/sido.mp3,,,,,,,,,,,,,,,,,,,,,,,,,,,,,,,,,,,,,,,,,,,,,,,,,,,,,,,,,,,,,,,,,,,,,,,,,,
,,,,,,,,,R_2ATjyKyPgAt7gCD,2022-11-23_18h37.07.359,jpn_C01,2022.1.2,MacIntel,62.5,,,space,5.251,2,4,16,3,1,ムク,cowboy,,CartoonStims/cowboy_r.jpg,audio/muku.mp3,,,,,,,,,,,,,,,,,,,,,,,,,,,,,,,,,,,,,,,,,,,,,,,,,,,,,,,,,,,,,,,,,,,,,,,,,,
,,,,,,,,,R_2ATjyKyPgAt7gCD,2022-11-23_18h37.07.359,jpn_C01,2022.1.2,MacIntel,62.5,,,space,1.067,2,5,17,1,1,ルピン,burglar,,CartoonStims/burglar_r.jpg,audio/lupin.mp3,,,,,,,,,,,,,,,,,,,,,,,,,,,,,,,,,,,,,,,,,,,,,,,,,,,,,,,,,,,,,,,,,,,,,,,,,,
,,,,,,,,,R_2ATjyKyPgAt7gCD,2022-11-23_18h37.07.359,jpn_C01,2022.1.2,MacIntel,62.5,,,,,,,,,,,,,,,space,7.084,left,1,1.769,0,0,0,0,1,,,,,,,,,,,,,,,,,,,,,,,,,,,,,,,,,,,,,,,,,,,,,,,,,,,,,,,,,,,,,,,,
,,,,,,,,,R_2ATjyKyPgAt7gCD,2022-11-23_18h37.07.359,jpn_C01,2022.1.2,MacIntel,62.5,,,,,,,,,,,,,,,,,,,,,,,,,0,0,0,5,1,CartoonStims/boxer_r.jpg,ドキ,CartoonStims/artist_r.jpg,left,CartoonStims/boxer_r.jpg,audio/doki.mp3,残念！ こちらが正しい画像です。,,,,,,,,,,,,,,,,,,,,,,,,,,,,,,,,,,,,,,,,,,,,,,,,,,,,
,,,,,,,,,R_2ATjyKyPgAt7gCD,2022-11-23_18h37.07.359,jpn_C01,2022.1.2,MacIntel,62.5,,,,,,,,,,,,,,,,,right,1,0.984,,,,,,,,,,,,,,,,,,0,0,0,0,1,,,,,,,,,,,,,,,,,,,,,,,,,,,,,,,,,,,,,,,,,,,,,,,
,,,,,,,,,R_2ATjyKyPgAt7gCD,2022-11-23_18h37.07.359,jpn_C01,2022.1.2,MacIntel,62.5,,,,,,,,,,,,,,,,,,,,,,,,,0,1,1,9,1,CartoonStims/boxer_r.jpg,ムク,CartoonStims/cowboy_r.jpg,right,CartoonStims/cowboy_r.jpg,audio/muku.mp3,残念！ こちらが正しい画像です。,,,,,,,,,,,,,,,,,,,,,,,,,,,,,,,,,,,,,,,,,,,,,,,,,,,,
,,,,,,,,,R_2ATjyKyPgAt7gCD,2022-11-23_18h37.07.359,jpn_C01,2022.1.2,MacIntel,62.5,,,,,,,,,,,,,,,,,left,1,1.099,0,0,0,0,1,,,,,,,,,,,,,,,,,,,,,,,,,,,,,,,,,,,,,,,,,,,,,,,,,,,,,,,,,,,,,,,,
,,,,,,,,,R_2ATjyKyPgAt7gCD,2022-11-23_18h37.07.359,jpn_C01,2022.1.2,MacIntel,62.5,,,,,,,,,,,,,,,,,,,,,,,,,0,2,2,0,1,CartoonStims/artist_r.jpg,シド,CartoonStims/burglar_r.jpg,left,CartoonStims/artist_r.jpg,audio/sido.mp3,残念！ こちらが正しい画像です。,,,,,,,,,,,,,,,,,,,,,,,,,,,,,,,,,,,,,,,,,,,,,,,,,,,,
,,,,,,,,,R_2ATjyKyPgAt7gCD,2022-11-23_18h37.07.359,jpn_C01,2022.1.2,MacIntel,62.5,,,,,,,,,,,,,,,,,right,1,2.632,,,,,,,,,,,,,,,,,,0,0,0,0,1,,,,,,,,,,,,,,,,,,,,,,,,,,,,,,,,,,,,,,,,,,,,,,,
,,,,,,,,,R_2ATjyKyPgAt7gCD,2022-11-23_18h37.07.359,jpn_C01,2022.1.2,MacIntel,62.5,,,,,,,,,,,,,,,,,,,,,,,,,0,3,3,10,1,CartoonStims/artist_r.jpg,ピポ,CartoonStims/doctor_r.jpg,right,CartoonStims/doctor_r.jpg,audio/pipo.mp3,残念！ こちらが正しい画像です。,,,,,,,,,,,,,,,,,,,,,,,,,,,,,,,,,,,,,,,,,,,,,,,,,,,,
,,,,,,,,,R_2ATjyKyPgAt7gCD,2022-11-23_18h37.07.359,jpn_C01,2022.1.2,MacIntel,62.5,,,,,,,,,,,,,,,,,right,1,0.85,,,,,,,,,,,,,,,,,,0,0,0,0,1,,,,,,,,,,,,,,,,,,,,,,,,,,,,,,,,,,,,,,,,,,,,,,,
,,,,,,,,,R_2ATjyKyPgAt7gCD,2022-11-23_18h37.07.359,jpn_C01,2022.1.2,MacIntel,62.5,,,,,,,,,,,,,,,,,,,,,,,,,0,4,4,11,1,CartoonStims/burglar_r.jpg,ドキ,CartoonStims/boxer_r.jpg,right,CartoonStims/boxer_r.jpg,audio/doki.mp3,残念！ こちらが正しい画像です。,,,,,,,,,,,,,,,,,,,,,,,,,,,,,,,,,,,,,,,,,,,,,,,,,,,,
,,,,,,,,,R_2ATjyKyPgAt7gCD,2022-11-23_18h37.07.359,jpn_C01,2022.1.2,MacIntel,62.5,,,,,,,,,,,,,,,,,left,1,3.867,0,0,0,0,1,,,,,,,,,,,,,,,,,,,,,,,,,,,,,,,,,,,,,,,,,,,,,,,,,,,,,,,,,,,,,,,,
,,,,,,,,,R_2ATjyKyPgAt7gCD,2022-11-23_18h37.07.359,jpn_C01,2022.1.2,MacIntel,62.5,,,,,,,,,,,,,,,,,,,,,,,,,0,5,5,2,1,CartoonStims/chef_r.jpg,ホレト,CartoonStims/cowboy_r.jpg,left,CartoonStims/chef_r.jpg,audio/horeto.mp3,残念！ こちらが正しい画像です。,,,,,,,,,,,,,,,,,,,,,,,,,,,,,,,,,,,,,,,,,,,,,,,,,,,,
,,,,,,,,,R_2ATjyKyPgAt7gCD,2022-11-23_18h37.07.359,jpn_C01,2022.1.2,MacIntel,62.5,,,,,,,,,,,,,,,,,right,1,0.867,,,,,,,,,,,,,,,,,,0,0,0,0,1,,,,,,,,,,,,,,,,,,,,,,,,,,,,,,,,,,,,,,,,,,,,,,,
,,,,,,,,,R_2ATjyKyPgAt7gCD,2022-11-23_18h37.07.359,jpn_C01,2022.1.2,MacIntel,62.5,,,,,,,,,,,,,,,,,,,,,,,,,0,6,6,7,1,CartoonStims/cowboy_r.jpg,ルピン,CartoonStims/burglar_r.jpg,right,CartoonStims/burglar_r.jpg,audio/lupin.mp3,残念！ こちらが正しい画像です。,,,,,,,,,,,,,,,,,,,,,,,,,,,,,,,,,,,,,,,,,,,,,,,,,,,,
,,,,,,,,,R_2ATjyKyPgAt7gCD,2022-11-23_18h37.07.359,jpn_C01,2022.1.2,MacIntel,62.5,,,,,,,,,,,,,,,,,right,1,5.116,,,,,,,,,,,,,,,,,,0,0,0,0,1,,,,,,,,,,,,,,,,,,,,,,,,,,,,,,,,,,,,,,,,,,,,,,,
,,,,,,,,,R_2ATjyKyPgAt7gCD,2022-11-23_18h37.07.359,jpn_C01,2022.1.2,MacIntel,62.5,,,,,,,,,,,,,,,,,,,,,,,,,0,7,7,8,1,CartoonStims/doctor_r.jpg,ホレト,CartoonStims/chef_r.jpg,right,CartoonStims/chef_r.jpg,audio/horeto.mp3,残念！ こちらが正しい画像です。,,,,,,,,,,,,,,,,,,,,,,,,,,,,,,,,,,,,,,,,,,,,,,,,,,,,
,,,,,,,,,R_2ATjyKyPgAt7gCD,2022-11-23_18h37.07.359,jpn_C01,2022.1.2,MacIntel,62.5,,,,,,,,,,,,,,,,,left,1,1.186,0,0,0,0,1,,,,,,,,,,,,,,,,,,,,,,,,,,,,,,,,,,,,,,,,,,,,,,,,,,,,,,,,,,,,,,,,
,,,,,,,,,R_2ATjyKyPgAt7gCD,2022-11-23_18h37.07.359,jpn_C01,2022.1.2,MacIntel,62.5,,,,,,,,,,,,,,,,,,,,,,,,,0,8,8,4,1,CartoonStims/doctor_r.jpg,ピポ,CartoonStims/boxer_r.jpg,left,CartoonStims/doctor_r.jpg,audio/pipo.mp3,残念！ こちらが正しい画像です。,,,,,,,,,,,,,,,,,,,,,,,,,,,,,,,,,,,,,,,,,,,,,,,,,,,,
,,,,,,,,,R_2ATjyKyPgAt7gCD,2022-11-23_18h37.07.359,jpn_C01,2022.1.2,MacIntel,62.5,,,,,,,,,,,,,,,,,right,1,2.417,,,,,,,,,,,,,,,,,,0,0,0,0,1,,,,,,,,,,,,,,,,,,,,,,,,,,,,,,,,,,,,,,,,,,,,,,,
,,,,,,,,,R_2ATjyKyPgAt7gCD,2022-11-23_18h37.07.359,jpn_C01,2022.1.2,MacIntel,62.5,,,,,,,,,,,,,,,,,,,,,,,,,0,9,9,6,1,CartoonStims/chef_r.jpg,シド,CartoonStims/artist_r.jpg,right,CartoonStims/artist_r.jpg,audio/sido.mp3,残念！ こちらが正しい画像です。,,,,,,,,,,,,,,,,,,,,,,,,,,,,,,,,,,,,,,,,,,,,,,,,,,,,
,,,,,,,,,R_2ATjyKyPgAt7gCD,2022-11-23_18h37.07.359,jpn_C01,2022.1.2,MacIntel,62.5,,,,,,,,,,,,,,,,,left,1,1.799,0,0,0,0,1,,,,,,,,,,,,,,,,,,,,,,,,,,,,,,,,,,,,,,,,,,,,,,,,,,,,,,,,,,,,,,,,
,,,,,,,,,R_2ATjyKyPgAt7gCD,2022-11-23_18h37.07.359,jpn_C01,2022.1.2,MacIntel,62.5,,,,,,,,,,,,,,,,,,,,,,,,,0,10,10,3,1,CartoonStims/cowboy_r.jpg,ムク,CartoonStims/doctor_r.jpg,left,CartoonStims/cowboy_r.jpg,audio/muku.mp3,残念！ こちらが正しい画像です。,,,,,,,,,,,,,,,,,,,,,,,,,,,,,,,,,,,,,,,,,,,,,,,,,,,,
,,,,,,,,,R_2ATjyKyPgAt7gCD,2022-11-23_18h37.07.359,jpn_C01,2022.1.2,MacIntel,62.5,,,,,,,,,,,,,,,,,left,1,0.534,0,0,0,0,1,,,,,,,,,,,,,,,,,,,,,,,,,,,,,,,,,,,,,,,,,,,,,,,,,,,,,,,,,,,,,,,,
,,,,,,,,,R_2ATjyKyPgAt7gCD,2022-11-23_18h37.07.359,jpn_C01,2022.1.2,MacIntel,62.5,,,,,,,,,,,,,,,,,,,,,,,,,0,11,11,1,1,CartoonStims/burglar_r.jpg,ルピン,CartoonStims/chef_r.jpg,left,CartoonStims/burglar_r.jpg,audio/lupin.mp3,残念！ こちらが正しい画像です。,,,,,,,,,,,,,,,,,,,,,,,,,,,,,,,,,,,,,,,,,,,,,,,,,,,,
,,,,,,,,,R_2ATjyKyPgAt7gCD,2022-11-23_18h37.07.359,jpn_C01,2022.1.2,MacIntel,62.5,,,,,,,,,,,,,,,,,,,,,,,,,,,,,,,,,,,,,,,,,,space,6.352,ドキ,right,7.743,0,0,0,0,1,,,,,,,,,,,,,,,,,,,,,,,,,,,,,,,,,,,,,
,,,,,,,,,R_2ATjyKyPgAt7gCD,2022-11-23_18h37.07.359,jpn_C01,2022.1.2,MacIntel,62.5,,,,,,,,,,,,,CartoonStims/boxer_r.jpg,audio/doki.mp3,,,,,,,,,,,,,,,,,,,,,,,,,,,,,,,,,,,,,,0,0,0,5,1,ドキ,,,,,,,,,,,,,,,,,,,,,,,,,,,,,,,
,,,,,,,,,R_2ATjyKyPgAt7gCD,2022-11-23_18h37.07.359,jpn_C01,2022.1.2,MacIntel,62.5,,,,,,,,,,,,,,,,,,,,,,,,,,,,,,,,,,,,,,,,,,,,ピポ,right,6.212,0,0,0,0,1,,,,,,,,,,,,,,,,,,,,,,,,,,,,,,,,,,,,,
,,,,,,,,,R_2ATjyKyPgAt7gCD,2022-11-23_18h37.07.359,jpn_C01,2022.1.2,MacIntel,62.5,,,,,,,,,,,,,CartoonStims/doctor_r.jpg,audio/pipo.mp3,,,,,,,,,,,,,,,,,,,,,,,,,,,,,,,,,,,,,,0,1,1,4,1,ピポ,,,,,,,,,,,,,,,,,,,,,,,,,,,,,,,
,,,,,,,,,R_2ATjyKyPgAt7gCD,2022-11-23_18h37.07.359,jpn_C01,2022.1.2,MacIntel,62.5,,,,,,,,,,,,,,,,,,,,,,,,,,,,,,,,,,,,,,,,,,,,ホレト,right,6.414,0,0,0,0,1,,,,,,,,,,,,,,,,,,,,,,,,,,,,,,,,,,,,,
,,,,,,,,,R_2ATjyKyPgAt7gCD,2022-11-23_18h37.07.359,jpn_C01,2022.1.2,MacIntel,62.5,,,,,,,,,,,,,CartoonStims/artist_r.jpg,audio/sido.mp3,,,,,,,,,,,,,,,,,,,,,,,,,,,,,,,,,,,,,,0,2,2,0,1,シド,,,,,,,,,,,,,,,,,,,,,,,,,,,,,,,
,,,,,,,,,R_2ATjyKyPgAt7gCD,2022-11-23_18h37.07.359,jpn_C01,2022.1.2,MacIntel,62.5,,,,,,,,,,,,,,,,,,,,,,,,,,,,,,,,,,,,,,,,,,,,,right,0.112,0,0,0,0,1,,,,,,,,,,,,,,,,,,,,,,,,,,,,,,,,,,,,,
,,,,,,,,,R_2ATjyKyPgAt7gCD,2022-11-23_18h37.07.359,jpn_C01,2022.1.2,MacIntel,62.5,,,,,,,,,,,,,CartoonStims/cowboy_r.jpg,audio/muku.mp3,,,,,,,,,,,,,,,,,,,,,,,,,,,,,,,,,,,,,,0,3,3,3,1,ムク,,,,,,,,,,,,,,,,,,,,,,,,,,,,,,,
,,,,,,,,,R_2ATjyKyPgAt7gCD,2022-11-23_18h37.07.359,jpn_C01,2022.1.2,MacIntel,62.5,,,,,,,,,,,,,,,,,,,,,,,,,,,,,,,,,,,,,,,,,,,,"ルピン
",right,6.547,0,0,0,0,1,,,,,,,,,,,,,,,,,,,,,,,,,,,,,,,,,,,,,
,,,,,,,,,R_2ATjyKyPgAt7gCD,2022-11-23_18h37.07.359,jpn_C01,2022.1.2,MacIntel,62.5,,,,,,,,,,,,,CartoonStims/burglar_r.jpg,audio/lupin.mp3,,,,,,,,,,,,,,,,,,,,,,,,,,,,,,,,,,,,,,0,4,4,1,1,ルピン,,,,,,,,,,,,,,,,,,,,,,,,,,,,,,,
,,,,,,,,,R_2ATjyKyPgAt7gCD,2022-11-23_18h37.07.359,jpn_C01,2022.1.2,MacIntel,62.5,,,,,,,,,,,,,,,,,,,,,,,,,,,,,,,,,,,,,,,,,,,,ホレト,right,7.929,0,0,0,0,1,,,,,,,,,,,,,,,,,,,,,,,,,,,,,,,,,,,,,
,,,,,,,,,R_2ATjyKyPgAt7gCD,2022-11-23_18h37.07.359,jpn_C01,2022.1.2,MacIntel,62.5,,,,,,,,,,,,,CartoonStims/chef_r.jpg,audio/horeto.mp3,,,,,,,,,,,,,,,,,,,,,,,,,,,,,,,,,,,,,,0,5,5,2,1,ホレト,,,,,,,,,,,,,,,,,,,,,,,,,,,,,,,
,,,,,,,,,R_2ATjyKyPgAt7gCD,2022-11-23_18h37.07.359,jpn_C01,2022.1.2,MacIntel,62.5,,,,,,,,,,,,,,,,,,,,,,,,,,,,,,,,,,,,,,,,,,,,ルピン,right,6.598,0,0,0,0,1,,,,,,,,,,,,,,,,,,,,,,,,,,,,,,,,,,,,,
,,,,,,,,,R_2ATjyKyPgAt7gCD,2022-11-23_18h37.07.359,jpn_C01,2022.1.2,MacIntel,62.5,,,,,,,,,,,,,CartoonStims/burglar_r.jpg,audio/lupin.mp3,,,,,,,,,,,,,,,,,,,,,,,,,,,,,,,,,,,,,,1,0,6,1,1,ルピン,,,,,,,,,,,,,,,,,,,,,,,,,,,,,,,
,,,,,,,,,R_2ATjyKyPgAt7gCD,2022-11-23_18h37.07.359,jpn_C01,2022.1.2,MacIntel,62.5,,,,,,,,,,,,,,,,,,,,,,,,,,,,,,,,,,,,,,,,,,,,ホレト,right,6.132,0,0,0,0,1,,,,,,,,,,,,,,,,,,,,,,,,,,,,,,,,,,,,,
,,,,,,,,,R_2ATjyKyPgAt7gCD,2022-11-23_18h37.07.359,jpn_C01,2022.1.2,MacIntel,62.5,,,,,,,,,,,,,CartoonStims/chef_r.jpg,audio/horeto.mp3,,,,,,,,,,,,,,,,,,,,,,,,,,,,,,,,,,,,,,1,1,7,2,1,ホレト,,,,,,,,,,,,,,,,,,,,,,,,,,,,,,,
,,,,,,,,,R_2ATjyKyPgAt7gCD,2022-11-23_18h37.07.359,jpn_C01,2022.1.2,MacIntel,62.5,,,,,,,,,,,,,,,,,,,,,,,,,,,,,,,,,,,,,,,,,,,,シド,right,16.382,0,0,0,0,1,,,,,,,,,,,,,,,,,,,,,,,,,,,,,,,,,,,,,
,,,,,,,,,R_2ATjyKyPgAt7gCD,2022-11-23_18h37.07.359,jpn_C01,2022.1.2,MacIntel,62.5,,,,,,,,,,,,,CartoonStims/artist_r.jpg,audio/sido.mp3,,,,,,,,,,,,,,,,,,,,,,,,,,,,,,,,,,,,,,1,2,8,0,1,シド,,,,,,,,,,,,,,,,,,,,,,,,,,,,,,,
,,,,,,,,,R_2ATjyKyPgAt7gCD,2022-11-23_18h37.07.359,jpn_C01,2022.1.2,MacIntel,62.5,,,,,,,,,,,,,,,,,,,,,,,,,,,,,,,,,,,,,,,,,,,,ムク,right,5.317,0,0,0,0,1,,,,,,,,,,,,,,,,,,,,,,,,,,,,,,,,,,,,,
,,,,,,,,,R_2ATjyKyPgAt7gCD,2022-11-23_18h37.07.359,jpn_C01,2022.1.2,MacIntel,62.5,,,,,,,,,,,,,CartoonStims/cowboy_r.jpg,audio/muku.mp3,,,,,,,,,,,,,,,,,,,,,,,,,,,,,,,,,,,,,,1,3,9,3,1,ムク,,,,,,,,,,,,,,,,,,,,,,,,,,,,,,,
,,,,,,,,,R_2ATjyKyPgAt7gCD,2022-11-23_18h37.07.359,jpn_C01,2022.1.2,MacIntel,62.5,,,,,,,,,,,,,,,,,,,,,,,,,,,,,,,,,,,,,,,,,,,,ピポ,right,5.447,0,0,0,0,1,,,,,,,,,,,,,,,,,,,,,,,,,,,,,,,,,,,,,
,,,,,,,,,R_2ATjyKyPgAt7gCD,2022-11-23_18h37.07.359,jpn_C01,2022.1.2,MacIntel,62.5,,,,,,,,,,,,,CartoonStims/doctor_r.jpg,audio/pipo.mp3,,,,,,,,,,,,,,,,,,,,,,,,,,,,,,,,,,,,,,1,4,10,4,1,ピポ,,,,,,,,,,,,,,,,,,,,,,,,,,,,,,,
,,,,,,,,,R_2ATjyKyPgAt7gCD,2022-11-23_18h37.07.359,jpn_C01,2022.1.2,MacIntel,62.5,,,,,,,,,,,,,,,,,,,,,,,,,,,,,,,,,,,,,,,,,,,,ドキ,right,3.148,0,0,0,0,1,,,,,,,,,,,,,,,,,,,,,,,,,,,,,,,,,,,,,
,,,,,,,,,R_2ATjyKyPgAt7gCD,2022-11-23_18h37.07.359,jpn_C01,2022.1.2,MacIntel,62.5,,,,,,,,,,,,,CartoonStims/boxer_r.jpg,audio/doki.mp3,,,,,,,,,,,,,,,,,,,,,,,,,,,,,,,,,,,,,,1,5,11,5,1,ドキ,,,,,,,,,,,,,,,,,,,,,,,,,,,,,,,
,,,,,,,,,R_2ATjyKyPgAt7gCD,2022-11-23_18h37.07.359,jpn_C01,2022.1.2,MacIntel,62.5,,,,,,,,,,,,,,,,,,,,,,,,,,,,,,,,,,,,,,,,,,,,,,,,,,,,,,,,,,,space,3.085,0,0,0,0,1,NounExposure.xlsx,"最初のトライアルでは、 画像が表示され、 その画像の下に単語が出てきます。 またこの単語の音も聞くことができます。 この音を大きな声で復唱してください。 そしてこの画像がどのような単語を示しているのか, 考えてみてください。 その後、 続きのボタンを押すと次の単語の学習が始まります。

スペースキーを押して、学習を始めましょう。",3,NounFCT.xlsx,ここから語彙のクイズが始まります。スクリーンに表示される単語に合う画像をキーボードの右と左の矢印キーを使って選択してください。,NounTest.xlsx,2,次に、これまで学習してきたことをアウトプットしていただきます。 表示される画像を描写していると思う単語を、テキストボックスにタイプしてください。,1,"ここまでが最初のトライアルです。ここで休憩をとっても構いません。

休憩が済みましたら、スペースキーを押して続きを始めましょう。",,,,,,,,,,,,,
,,,,,,,,,R_2ATjyKyPgAt7gCD,2022-11-23_18h37.07.359,jpn_C01,2022.1.2,MacIntel,62.5,space,3.817,space,31.353,0,0,0,4,1,セル　ホレト　ムク,,,CartoonStims/chef_kick_cowboy_r.jpg,audio/seruhoretomuku.mp3,,,,,,,,,,,,,,,,,,,,,,,,,,,,,,,,,,,,,,,,,,,,,,,,,,,,,,,,,,,,,,,,,,,,,,,,,,
,,,,,,,,,R_2ATjyKyPgAt7gCD,2022-11-23_18h37.07.359,jpn_C01,2022.1.2,MacIntel,62.5,,,space,9.451,0,1,1,8,1,セル　ピポ　ドキ,,,CartoonStims/doctor_kick_boxer_r.jpg,audio/serupipodoki.mp3,,,,,,,,,,,,,,,,,,,,,,,,,,,,,,,,,,,,,,,,,,,,,,,,,,,,,,,,,,,,,,,,,,,,,,,,,,
,,,,,,,,,R_2ATjyKyPgAt7gCD,2022-11-23_18h37.07.359,jpn_C01,2022.1.2,MacIntel,62.5,,,space,11.083,0,2,2,13,1,トマ　シド　ムク,,,CartoonStims/artist_point_cowboy_r.jpg,audio/tomasidomuku.mp3,,,,,,,,,,,,,,,,,,,,,,,,,,,,,,,,,,,,,,,,,,,,,,,,,,,,,,,,,,,,,,,,,,,,,,,,,,
,,,,,,,,,R_2ATjyKyPgAt7gCD,2022-11-23_18h37.07.359,jpn_C01,2022.1.2,MacIntel,62.5,,,space,11.134,0,3,3,38,1,プミ　ルピン　ドキ,,,CartoonStims/burglar_punch_boxer_r.jpg,audio/pumilupindoki.mp3,,,,,,,,,,,,,,,,,,,,,,,,,,,,,,,,,,,,,,,,,,,,,,,,,,,,,,,,,,,,,,,,,,,,,,,,,,
,,,,,,,,,R_2ATjyKyPgAt7gCD,2022-11-23_18h37.07.359,jpn_C01,2022.1.2,MacIntel,62.5,,,space,2.137,0,4,4,37,1,プミ　シド　ドキ,,,CartoonStims/artist_punch_boxer_r.jpg,audio/pumisidodoki.mp3,,,,,,,,,,,,,,,,,,,,,,,,,,,,,,,,,,,,,,,,,,,,,,,,,,,,,,,,,,,,,,,,,,,,,,,,,,
,,,,,,,,,R_2ATjyKyPgAt7gCD,2022-11-23_18h37.07.359,jpn_C01,2022.1.2,MacIntel,62.5,,,space,5.818,0,5,5,10,1,セル　ドキ　シド,,,CartoonStims/boxer_kick_artist_r.jpg,audio/serudokisido.mp3,,,,,,,,,,,,,,,,,,,,,,,,,,,,,,,,,,,,,,,,,,,,,,,,,,,,,,,,,,,,,,,,,,,,,,,,,,
,,,,,,,,,R_2ATjyKyPgAt7gCD,2022-11-23_18h37.07.359,jpn_C01,2022.1.2,MacIntel,62.5,,,space,4.548,0,6,6,12,1,トマ　シド　ホレト,,,CartoonStims/artist_point_chef_r.jpg,audio/tomasidohoreto.mp3,,,,,,,,,,,,,,,,,,,,,,,,,,,,,,,,,,,,,,,,,,,,,,,,,,,,,,,,,,,,,,,,,,,,,,,,,,
,,,,,,,,,R_2ATjyKyPgAt7gCD,2022-11-23_18h37.07.359,jpn_C01,2022.1.2,MacIntel,62.5,,,space,7.349,0,7,7,18,1,トマ　ムク　ドキ,,,CartoonStims/cowboy_point_boxer_r.jpg,audio/tomamukudoki.mp3,,,,,,,,,,,,,,,,,,,,,,,,,,,,,,,,,,,,,,,,,,,,,,,,,,,,,,,,,,,,,,,,,,,,,,,,,,
,,,,,,,,,R_2ATjyKyPgAt7gCD,2022-11-23_18h37.07.359,jpn_C01,2022.1.2,MacIntel,62.5,,,space,5.633,0,8,8,33,1,パツ　ピポ　ホレト,,,CartoonStims/doctor_shoot_chef_r.jpg,audio/patsupipohoreto.mp3,,,,,,,,,,,,,,,,,,,,,,,,,,,,,,,,,,,,,,,,,,,,,,,,,,,,,,,,,,,,,,,,,,,,,,,,,,
,,,,,,,,,R_2ATjyKyPgAt7gCD,2022-11-23_18h37.07.359,jpn_C01,2022.1.2,MacIntel,62.5,,,space,3.251,0,9,9,29,1,パツ　ホレト　シド,,,CartoonStims/chef_shoot_artist_r.jpg,audio/patsuhoretosido.mp3,,,,,,,,,,,,,,,,,,,,,,,,,,,,,,,,,,,,,,,,,,,,,,,,,,,,,,,,,,,,,,,,,,,,,,,,,,
,,,,,,,,,R_2ATjyKyPgAt7gCD,2022-11-23_18h37.07.359,jpn_C01,2022.1.2,MacIntel,62.5,,,space,3.136,0,10,10,23,1,トマ　ドキ　ホレト,,,CartoonStims/boxer_point_chef_r.jpg,audio/tomadokihoreto.mp3,,,,,,,,,,,,,,,,,,,,,,,,,,,,,,,,,,,,,,,,,,,,,,,,,,,,,,,,,,,,,,,,,,,,,,,,,,
,,,,,,,,,R_2ATjyKyPgAt7gCD,2022-11-23_18h37.07.359,jpn_C01,2022.1.2,MacIntel,62.5,,,space,1.922,0,11,11,22,1,トマ　ドキ　ルピン,,,CartoonStims/boxer_point_burglar_r.jpg,audio/tomadokilupin.mp3,,,,,,,,,,,,,,,,,,,,,,,,,,,,,,,,,,,,,,,,,,,,,,,,,,,,,,,,,,,,,,,,,,,,,,,,,,
,,,,,,,,,R_2ATjyKyPgAt7gCD,2022-11-23_18h37.07.359,jpn_C01,2022.1.2,MacIntel,62.5,,,space,7.183,0,12,12,6,1,セル　ムク　ピポ,,,CartoonStims/cowboy_kick_doctor_r.jpg,audio/serumukupipo.mp3,,,,,,,,,,,,,,,,,,,,,,,,,,,,,,,,,,,,,,,,,,,,,,,,,,,,,,,,,,,,,,,,,,,,,,,,,,
,,,,,,,,,R_2ATjyKyPgAt7gCD,2022-11-23_18h37.07.359,jpn_C01,2022.1.2,MacIntel,62.5,,,space,2.751,0,13,13,14,1,トマ　ルピン　ムク,,,CartoonStims/burglar_point_cowboy_r.jpg,audio/tomalupinmuku.mp3,,,,,,,,,,,,,,,,,,,,,,,,,,,,,,,,,,,,,,,,,,,,,,,,,,,,,,,,,,,,,,,,,,,,,,,,,,
,,,,,,,,,R_2ATjyKyPgAt7gCD,2022-11-23_18h37.07.359,jpn_C01,2022.1.2,MacIntel,62.5,,,space,3.316,0,14,14,26,1,パツ　ルピン　ピポ,,,CartoonStims/burglar_shoot_doctor_r.jpg,audio/patsulupinpipo.mp3,,,,,,,,,,,,,,,,,,,,,,,,,,,,,,,,,,,,,,,,,,,,,,,,,,,,,,,,,,,,,,,,,,,,,,,,,,
,,,,,,,,,R_2ATjyKyPgAt7gCD,2022-11-23_18h37.07.359,jpn_C01,2022.1.2,MacIntel,62.5,,,space,2.502,0,15,15,34,1,パツ　ドキ　ホレト,,,CartoonStims/boxer_shoot_chef_r.jpg,audio/patsudokihoreto.mp3,,,,,,,,,,,,,,,,,,,,,,,,,,,,,,,,,,,,,,,,,,,,,,,,,,,,,,,,,,,,,,,,,,,,,,,,,,
,,,,,,,,,R_2ATjyKyPgAt7gCD,2022-11-23_18h37.07.359,jpn_C01,2022.1.2,MacIntel,62.5,,,space,5.039,0,16,16,46,1,プミ　ドキ　ムク,,,CartoonStims/boxer_punch_cowboy_r.jpg,audio/pumidokimuku.mp3,,,,,,,,,,,,,,,,,,,,,,,,,,,,,,,,,,,,,,,,,,,,,,,,,,,,,,,,,,,,,,,,,,,,,,,,,,
,,,,,,,,,R_2ATjyKyPgAt7gCD,2022-11-23_18h37.07.359,jpn_C01,2022.1.2,MacIntel,62.5,,,space,2.05,0,17,17,45,1,プミ　ピポ　ムク,,,CartoonStims/doctor_punch_cowboy_r.jpg,audio/pumipipomuku.mp3,,,,,,,,,,,,,,,,,,,,,,,,,,,,,,,,,,,,,,,,,,,,,,,,,,,,,,,,,,,,,,,,,,,,,,,,,,
,,,,,,,,,R_2ATjyKyPgAt7gCD,2022-11-23_18h37.07.359,jpn_C01,2022.1.2,MacIntel,62.5,,,space,5.65,0,18,18,5,1,セル　ホレト　ピポ,,,CartoonStims/chef_kick_doctor_r.jpg,audio/seruhoretopipo.mp3,,,,,,,,,,,,,,,,,,,,,,,,,,,,,,,,,,,,,,,,,,,,,,,,,,,,,,,,,,,,,,,,,,,,,,,,,,
,,,,,,,,,R_2ATjyKyPgAt7gCD,2022-11-23_18h37.07.359,jpn_C01,2022.1.2,MacIntel,62.5,,,space,5.716,0,19,19,44,1,プミ　ピポ　ホレト,,,CartoonStims/doctor_punch_chef_r.jpg,audio/pumipipohoreto.mp3,,,,,,,,,,,,,,,,,,,,,,,,,,,,,,,,,,,,,,,,,,,,,,,,,,,,,,,,,,,,,,,,,,,,,,,,,,
,,,,,,,,,R_2ATjyKyPgAt7gCD,2022-11-23_18h37.07.359,jpn_C01,2022.1.2,MacIntel,62.5,,,space,2.932,0,20,20,16,1,トマ　ホレト　ピポ,,,CartoonStims/chef_point_doctor_r.jpg,audio/tomahoretopipo.mp3,,,,,,,,,,,,,,,,,,,,,,,,,,,,,,,,,,,,,,,,,,,,,,,,,,,,,,,,,,,,,,,,,,,,,,,,,,
,,,,,,,,,R_2ATjyKyPgAt7gCD,2022-11-23_18h37.07.359,jpn_C01,2022.1.2,MacIntel,62.5,,,space,1.489,0,21,21,32,1,パツ　ピポ　ルピン,,,CartoonStims/doctor_shoot_burglar_r.jpg,audio/patsupipolupin.mp3,,,,,,,,,,,,,,,,,,,,,,,,,,,,,,,,,,,,,,,,,,,,,,,,,,,,,,,,,,,,,,,,,,,,,,,,,,
,,,,,,,,,R_2ATjyKyPgAt7gCD,2022-11-23_18h37.07.359,jpn_C01,2022.1.2,MacIntel,62.5,,,space,2.933,0,22,22,47,1,プミ　ドキ　ピポ,,,CartoonStims/boxer_punch_doctor_r.jpg,audio/pumidokipipo.mp3,,,,,,,,,,,,,,,,,,,,,,,,,,,,,,,,,,,,,,,,,,,,,,,,,,,,,,,,,,,,,,,,,,,,,,,,,,
,,,,,,,,,R_2ATjyKyPgAt7gCD,2022-11-23_18h37.07.359,jpn_C01,2022.1.2,MacIntel,62.5,,,space,3.972,0,23,23,9,1,セル　ピポ　シド,,,CartoonStims/doctor_kick_artist_r.jpg,audio/serupiposido.mp3,,,,,,,,,,,,,,,,,,,,,,,,,,,,,,,,,,,,,,,,,,,,,,,,,,,,,,,,,,,,,,,,,,,,,,,,,,
,,,,,,,,,R_2ATjyKyPgAt7gCD,2022-11-23_18h37.07.359,jpn_C01,2022.1.2,MacIntel,62.5,,,space,3.483,0,24,24,20,1,トマ　ピポ　シド,,,CartoonStims/doctor_point_artist_r.jpg,audio/tomapiposido.mp3,,,,,,,,,,,,,,,,,,,,,,,,,,,,,,,,,,,,,,,,,,,,,,,,,,,,,,,,,,,,,,,,,,,,,,,,,,
,,,,,,,,,R_2ATjyKyPgAt7gCD,2022-11-23_18h37.07.359,jpn_C01,2022.1.2,MacIntel,62.5,,,space,1.635,0,25,25,27,1,パツ　ルピン　ドキ,,,CartoonStims/burglar_shoot_boxer_r.jpg,audio/patsulupindoki.mp3,,,,,,,,,,,,,,,,,,,,,,,,,,,,,,,,,,,,,,,,,,,,,,,,,,,,,,,,,,,,,,,,,,,,,,,,,,
,,,,,,,,,R_2ATjyKyPgAt7gCD,2022-11-23_18h37.07.359,jpn_C01,2022.1.2,MacIntel,62.5,,,space,2.069,0,26,26,30,1,パツ　ムク　シド,,,CartoonStims/cowboy_shoot_artist_r.jpg,audio/patsumukusido.mp3,,,,,,,,,,,,,,,,,,,,,,,,,,,,,,,,,,,,,,,,,,,,,,,,,,,,,,,,,,,,,,,,,,,,,,,,,,
,,,,,,,,,R_2ATjyKyPgAt7gCD,2022-11-23_18h37.07.359,jpn_C01,2022.1.2,MacIntel,62.5,,,space,4.116,0,27,27,11,1,セル　ドキ　ルピン,,,CartoonStims/boxer_kick_burglar_r.jpg,audio/serudokilupin.mp3,,,,,,,,,,,,,,,,,,,,,,,,,,,,,,,,,,,,,,,,,,,,,,,,,,,,,,,,,,,,,,,,,,,,,,,,,,
,,,,,,,,,R_2ATjyKyPgAt7gCD,2022-11-23_18h37.07.359,jpn_C01,2022.1.2,MacIntel,62.5,,,space,2.301,0,28,28,15,1,トマ　ルピン　ピポ,,,CartoonStims/burglar_point_doctor_r.jpg,audio/tomalupinpipo.mp3,,,,,,,,,,,,,,,,,,,,,,,,,,,,,,,,,,,,,,,,,,,,,,,,,,,,,,,,,,,,,,,,,,,,,,,,,,
,,,,,,,,,R_2ATjyKyPgAt7gCD,2022-11-23_18h37.07.359,jpn_C01,2022.1.2,MacIntel,62.5,,,space,3.556,0,29,29,41,1,プミ　ホレト　ルピン,,,CartoonStims/chef_punch_burglar_r.jpg,audio/pumihoretolupin.mp3,,,,,,,,,,,,,,,,,,,,,,,,,,,,,,,,,,,,,,,,,,,,,,,,,,,,,,,,,,,,,,,,,,,,,,,,,,
,,,,,,,,,R_2ATjyKyPgAt7gCD,2022-11-23_18h37.07.359,jpn_C01,2022.1.2,MacIntel,62.5,,,space,2.269,0,30,30,0,1,セル　シド　ルピン,,,CartoonStims/artist_kick_burglar_r.jpg,audio/serusidolupin.mp3,,,,,,,,,,,,,,,,,,,,,,,,,,,,,,,,,,,,,,,,,,,,,,,,,,,,,,,,,,,,,,,,,,,,,,,,,,
,,,,,,,,,R_2ATjyKyPgAt7gCD,2022-11-23_18h37.07.359,jpn_C01,2022.1.2,MacIntel,62.5,,,space,1.403,0,31,31,35,1,パツ　ドキ　ムク,,,CartoonStims/boxer_shoot_cowboy_r.jpg,audio/patsudokimuku.mp3,,,,,,,,,,,,,,,,,,,,,,,,,,,,,,,,,,,,,,,,,,,,,,,,,,,,,,,,,,,,,,,,,,,,,,,,,,
,,,,,,,,,R_2ATjyKyPgAt7gCD,2022-11-23_18h37.07.359,jpn_C01,2022.1.2,MacIntel,62.5,,,space,3.068,0,32,32,17,1,トマ　ホレト　ドキ,,,CartoonStims/chef_point_boxer_r.jpg,audio/tomahoretodoki.mp3,,,,,,,,,,,,,,,,,,,,,,,,,,,,,,,,,,,,,,,,,,,,,,,,,,,,,,,,,,,,,,,,,,,,,,,,,,
,,,,,,,,,R_2ATjyKyPgAt7gCD,2022-11-23_18h37.07.359,jpn_C01,2022.1.2,MacIntel,62.5,,,space,1.249,0,33,33,28,1,パツ　ホレト　ドキ,,,CartoonStims/chef_shoot_boxer_r.jpg,audio/patsuhoretodoki.mp3,,,,,,,,,,,,,,,,,,,,,,,,,,,,,,,,,,,,,,,,,,,,,,,,,,,,,,,,,,,,,,,,,,,,,,,,,,
,,,,,,,,,R_2ATjyKyPgAt7gCD,2022-11-23_18h37.07.359,jpn_C01,2022.1.2,MacIntel,62.5,,,space,1.849,0,34,34,40,1,プミ　ホレト　シド,,,CartoonStims/chef_punch_artist_r.jpg,audio/pumihoretosido.mp3,,,,,,,,,,,,,,,,,,,,,,,,,,,,,,,,,,,,,,,,,,,,,,,,,,,,,,,,,,,,,,,,,,,,,,,,,,
,,,,,,,,,R_2ATjyKyPgAt7gCD,2022-11-23_18h37.07.359,jpn_C01,2022.1.2,MacIntel,62.5,,,space,1.404,0,35,35,43,1,プミ　ムク　ホレト,,,CartoonStims/cowboy_punch_chef_r.jpg,audio/pumimukuhoreto.mp3,,,,,,,,,,,,,,,,,,,,,,,,,,,,,,,,,,,,,,,,,,,,,,,,,,,,,,,,,,,,,,,,,,,,,,,,,,
,,,,,,,,,R_2ATjyKyPgAt7gCD,2022-11-23_18h37.07.359,jpn_C01,2022.1.2,MacIntel,62.5,,,space,2.017,0,36,36,24,1,パツ　シド　ムク,,,CartoonStims/artist_shoot_cowboy_r.jpg,audio/patsusidomuku.mp3,,,,,,,,,,,,,,,,,,,,,,,,,,,,,,,,,,,,,,,,,,,,,,,,,,,,,,,,,,,,,,,,,,,,,,,,,,
,,,,,,,,,R_2ATjyKyPgAt7gCD,2022-11-23_18h37.07.359,jpn_C01,2022.1.2,MacIntel,62.5,,,space,1.2,0,37,37,7,1,セル　ムク　ドキ,,,CartoonStims/cowboy_kick_boxer_r.jpg,audio/serumukudoki.mp3,,,,,,,,,,,,,,,,,,,,,,,,,,,,,,,,,,,,,,,,,,,,,,,,,,,,,,,,,,,,,,,,,,,,,,,,,,
,,,,,,,,,R_2ATjyKyPgAt7gCD,2022-11-23_18h37.07.359,jpn_C01,2022.1.2,MacIntel,62.5,,,space,1.365,0,38,38,31,1,パツ　ムク　ルピン,,,CartoonStims/cowboy_shoot_burglar_r.jpg,audio/patsumukulupin.mp3,,,,,,,,,,,,,,,,,,,,,,,,,,,,,,,,,,,,,,,,,,,,,,,,,,,,,,,,,,,,,,,,,,,,,,,,,,
,,,,,,,,,R_2ATjyKyPgAt7gCD,2022-11-23_18h37.07.359,jpn_C01,2022.1.2,MacIntel,62.5,,,space,1.468,0,39,39,2,1,セル 　ルピン 　ホレト,,,CartoonStims/burglar_kick_chef_r.jpg,audio/serulupinhoreto.mp3,,,,,,,,,,,,,,,,,,,,,,,,,,,,,,,,,,,,,,,,,,,,,,,,,,,,,,,,,,,,,,,,,,,,,,,,,,
,,,,,,,,,R_2ATjyKyPgAt7gCD,2022-11-23_18h37.07.359,jpn_C01,2022.1.2,MacIntel,62.5,,,space,2.485,0,40,40,25,1,パツ　シド　ピポ,,,CartoonStims/artist_shoot_doctor_r.jpg,audio/patsusidopipo.mp3,,,,,,,,,,,,,,,,,,,,,,,,,,,,,,,,,,,,,,,,,,,,,,,,,,,,,,,,,,,,,,,,,,,,,,,,,,
,,,,,,,,,R_2ATjyKyPgAt7gCD,2022-11-23_18h37.07.359,jpn_C01,2022.1.2,MacIntel,62.5,,,space,1.216,0,41,41,3,1,セル　ルピン　ムク,,,CartoonStims/burglar_kick_cowboy_r.jpg,audio/serulupinmuku.mp3,,,,,,,,,,,,,,,,,,,,,,,,,,,,,,,,,,,,,,,,,,,,,,,,,,,,,,,,,,,,,,,,,,,,,,,,,,
,,,,,,,,,R_2ATjyKyPgAt7gCD,2022-11-23_18h37.07.359,jpn_C01,2022.1.2,MacIntel,62.5,,,space,5.117,0,42,42,42,1,プミ　ムク　ルピン,,,CartoonStims/cowboy_punch_burglar_r.jpg,audio/pumimukulupin.mp3,,,,,,,,,,,,,,,,,,,,,,,,,,,,,,,,,,,,,,,,,,,,,,,,,,,,,,,,,,,,,,,,,,,,,,,,,,
,,,,,,,,,R_2ATjyKyPgAt7gCD,2022-11-23_18h37.07.359,jpn_C01,2022.1.2,MacIntel,62.5,,,space,4.303,0,43,43,39,1,プミ　ルピン　シド,,,CartoonStims/burglar_punch_artist_r.jpg,audio/pumilupinsido.mp3,,,,,,,,,,,,,,,,,,,,,,,,,,,,,,,,,,,,,,,,,,,,,,,,,,,,,,,,,,,,,,,,,,,,,,,,,,
,,,,,,,,,R_2ATjyKyPgAt7gCD,2022-11-23_18h37.07.359,jpn_C01,2022.1.2,MacIntel,62.5,,,space,7.233,0,44,44,36,1,プミ　シド　ピポ,,,CartoonStims/artist_punch_doctor_r.jpg,audio/pumisidopipo.mp3,,,,,,,,,,,,,,,,,,,,,,,,,,,,,,,,,,,,,,,,,,,,,,,,,,,,,,,,,,,,,,,,,,,,,,,,,,
,,,,,,,,,R_2ATjyKyPgAt7gCD,2022-11-23_18h37.07.359,jpn_C01,2022.1.2,MacIntel,62.5,,,space,5.016,0,45,45,19,1,トマ　ムク　シド,,,CartoonStims/cowboy_point_artist_r.jpg,audio/tomamukusido.mp3,,,,,,,,,,,,,,,,,,,,,,,,,,,,,,,,,,,,,,,,,,,,,,,,,,,,,,,,,,,,,,,,,,,,,,,,,,
,,,,,,,,,R_2ATjyKyPgAt7gCD,2022-11-23_18h37.07.359,jpn_C01,2022.1.2,MacIntel,62.5,,,space,4.32,0,46,46,1,1,セル 　シド 　ホレト,,,CartoonStims/artist_kick_chef_r.jpg,audio/serusidohoreto.mp3,,,,,,,,,,,,,,,,,,,,,,,,,,,,,,,,,,,,,,,,,,,,,,,,,,,,,,,,,,,,,,,,,,,,,,,,,,
,,,,,,,,,R_2ATjyKyPgAt7gCD,2022-11-23_18h37.07.359,jpn_C01,2022.1.2,MacIntel,62.5,,,space,3.683,0,47,47,21,1,トマ　ピポ　ルピン,,,CartoonStims/doctor_point_burglar_r.jpg,audio/tomapipolupin.mp3,,,,,,,,,,,,,,,,,,,,,,,,,,,,,,,,,,,,,,,,,,,,,,,,,,,,,,,,,,,,,,,,,,,,,,,,,,
,,,,,,,,,R_2ATjyKyPgAt7gCD,2022-11-23_18h37.07.359,jpn_C01,2022.1.2,MacIntel,62.5,,,,,,,,,,,,,,,space,0.568,right,1,4.848,,,,,,,,,,,,,,,,,,0,0,0,0,1,,,,,,,,,,,,,,,,,,,,,,,,,,,,,,,,,,,,,,,,,,,,,,,
,,,,,,,,,R_2ATjyKyPgAt7gCD,2022-11-23_18h37.07.359,jpn_C01,2022.1.2,MacIntel,62.5,,,,,,,,,,,,,,,,,,,,,,,,,0,0,0,1,1,CartoonStims/chef_point_burglar_r.jpg,トマ　ホレト　シド,CartoonStims/chef_point_artist_r.jpg,right,CartoonStims/chef_point_artist_r.jpg,audio/tomahoretosido.mp3,残念！ こちらが正しい画像です。,,,,,,,,,,,,,,,,,,,,,,,,,,,,,,,,,,,,,,,,,,,,,,,,,,,,
,,,,,,,,,R_2ATjyKyPgAt7gCD,2022-11-23_18h37.07.359,jpn_C01,2022.1.2,MacIntel,62.5,,,,,,,,,,,,,,,,,left,1,4.135,0,0,0,0,1,,,,,,,,,,,,,,,,,,,,,,,,,,,,,,,,,,,,,,,,,,,,,,,,,,,,,,,,,,,,,,,,
,,,,,,,,,R_2ATjyKyPgAt7gCD,2022-11-23_18h37.07.359,jpn_C01,2022.1.2,MacIntel,62.5,,,,,,,,,,,,,,,,,,,,,,,,,0,1,1,10,1,CartoonStims/artist_shoot_burglar_r.jpg,パツ　シド　ルピン,CartoonStims/chef_shoot_burglar_r.jpg,left,CartoonStims/artist_shoot_burglar_r.jpg,audio/patsusidolupin.mp3,残念！ こちらが正しい画像です。,,,,,,,,,,,,,,,,,,,,,,,,,,,,,,,,,,,,,,,,,,,,,,,,,,,,
,,,,,,,,,R_2ATjyKyPgAt7gCD,2022-11-23_18h37.07.359,jpn_C01,2022.1.2,MacIntel,62.5,,,,,,,,,,,,,,,,,right,1,4.717,,,,,,,,,,,,,,,,,,0,0,0,0,1,,,,,,,,,,,,,,,,,,,,,,,,,,,,,,,,,,,,,,,,,,,,,,,
,,,,,,,,,R_2ATjyKyPgAt7gCD,2022-11-23_18h37.07.359,jpn_C01,2022.1.2,MacIntel,62.5,,,,,,,,,,,,,,,,,,,,,,,,,0,2,2,11,1,CartoonStims/burglar_punch_cowboy_r.jpg,プミ　ホレト　ムク,CartoonStims/chef_punch_cowboy_r.jpg,right,CartoonStims/chef_punch_cowboy_r.jpg,audio/pumihoretomuku.mp3,残念！ こちらが正しい画像です。,,,,,,,,,,,,,,,,,,,,,,,,,,,,,,,,,,,,,,,,,,,,,,,,,,,,
,,,,,,,,,R_2ATjyKyPgAt7gCD,2022-11-23_18h37.07.359,jpn_C01,2022.1.2,MacIntel,62.5,,,,,,,,,,,,,,,,,right,1,2.317,,,,,,,,,,,,,,,,,,0,0,0,0,1,,,,,,,,,,,,,,,,,,,,,,,,,,,,,,,,,,,,,,,,,,,,,,,
,,,,,,,,,R_2ATjyKyPgAt7gCD,2022-11-23_18h37.07.359,jpn_C01,2022.1.2,MacIntel,62.5,,,,,,,,,,,,,,,,,,,,,,,,,0,3,3,3,1,CartoonStims/cowboy_punch_doctor_r.jpg,プミ　ムク　ドキ,CartoonStims/cowboy_punch_boxer_r.jpg,right,CartoonStims/cowboy_punch_boxer_r.jpg,audio/pumimukudoki.mp3,残念！ こちらが正しい画像です。,,,,,,,,,,,,,,,,,,,,,,,,,,,,,,,,,,,,,,,,,,,,,,,,,,,,
,,,,,,,,,R_2ATjyKyPgAt7gCD,2022-11-23_18h37.07.359,jpn_C01,2022.1.2,MacIntel,62.5,,,,,,,,,,,,,,,,,left,1,2.854,0,0,0,0,1,,,,,,,,,,,,,,,,,,,,,,,,,,,,,,,,,,,,,,,,,,,,,,,,,,,,,,,,,,,,,,,,
,,,,,,,,,R_2ATjyKyPgAt7gCD,2022-11-23_18h37.07.359,jpn_C01,2022.1.2,MacIntel,62.5,,,,,,,,,,,,,,,,,,,,,,,,,0,4,4,0,1,CartoonStims/doctor_kick_burglar_r.jpg,セル　ピポ　ルピン,CartoonStims/doctor_kick_chef_r.jpg,left,CartoonStims/doctor_kick_burglar_r.jpg,audio/serupipolupin.mp3,残念！ こちらが正しい画像です。,,,,,,,,,,,,,,,,,,,,,,,,,,,,,,,,,,,,,,,,,,,,,,,,,,,,
,,,,,,,,,R_2ATjyKyPgAt7gCD,2022-11-23_18h37.07.359,jpn_C01,2022.1.2,MacIntel,62.5,,,,,,,,,,,,,,,,,left,1,3.732,0,0,0,0,1,,,,,,,,,,,,,,,,,,,,,,,,,,,,,,,,,,,,,,,,,,,,,,,,,,,,,,,,,,,,,,,,
,,,,,,,,,R_2ATjyKyPgAt7gCD,2022-11-23_18h37.07.359,jpn_C01,2022.1.2,MacIntel,62.5,,,,,,,,,,,,,,,,,,,,,,,,,0,5,5,4,1,CartoonStims/burglar_point_boxer_r.jpg,トマ　ルピン　ドキ,CartoonStims/burglar_kick_boxer_r.jpg,left,CartoonStims/burglar_point_boxer_r.jpg,audio/tomalupindoki.mp3,残念！ こちらが正しい画像です。,,,,,,,,,,,,,,,,,,,,,,,,,,,,,,,,,,,,,,,,,,,,,,,,,,,,
,,,,,,,,,R_2ATjyKyPgAt7gCD,2022-11-23_18h37.07.359,jpn_C01,2022.1.2,MacIntel,62.5,,,,,,,,,,,,,,,,,right,1,5.434,,,,,,,,,,,,,,,,,,0,0,0,0,1,,,,,,,,,,,,,,,,,,,,,,,,,,,,,,,,,,,,,,,,,,,,,,,
,,,,,,,,,R_2ATjyKyPgAt7gCD,2022-11-23_18h37.07.359,jpn_C01,2022.1.2,MacIntel,62.5,,,,,,,,,,,,,,,,,,,,,,,,,0,6,6,5,1,CartoonStims/cowboy_point_chef_r.jpg,パツ　ムク　ホレト,CartoonStims/cowboy_shoot_chef_r.jpg,right,CartoonStims/cowboy_shoot_chef_r.jpg,audio/patsumukuhoreto.mp3,残念！ こちらが正しい画像です。,,,,,,,,,,,,,,,,,,,,,,,,,,,,,,,,,,,,,,,,,,,,,,,,,,,,
,,,,,,,,,R_2ATjyKyPgAt7gCD,2022-11-23_18h37.07.359,jpn_C01,2022.1.2,MacIntel,62.5,,,,,,,,,,,,,,,,,left,1,7.403,0,0,0,0,1,,,,,,,,,,,,,,,,,,,,,,,,,,,,,,,,,,,,,,,,,,,,,,,,,,,,,,,,,,,,,,,,
,,,,,,,,,R_2ATjyKyPgAt7gCD,2022-11-23_18h37.07.359,jpn_C01,2022.1.2,MacIntel,62.5,,,,,,,,,,,,,,,,,,,,,,,,,0,7,7,2,1,CartoonStims/boxer_shoot_doctor_r.jpg,パツ　ドキ　ピポ,CartoonStims/boxer_shoot_artist_r.jpg,left,CartoonStims/boxer_shoot_doctor_r.jpg,audio/patsudokipipo.mp3,残念！ こちらが正しい画像です。,,,,,,,,,,,,,,,,,,,,,,,,,,,,,,,,,,,,,,,,,,,,,,,,,,,,
,,,,,,,,,R_2ATjyKyPgAt7gCD,2022-11-23_18h37.07.359,jpn_C01,2022.1.2,MacIntel,62.5,,,,,,,,,,,,,,,,,right,0,5.004,,,,,,,,,,,,,,,,,,,,,,,,,,,,,,,,,,,,,,,,,,,,,,,,,,,,,,,,,0,0,0,0,1,,,,,,,,
,,,,,,,,,R_2ATjyKyPgAt7gCD,2022-11-23_18h37.07.359,jpn_C01,2022.1.2,MacIntel,62.5,,,,,,,,,,,,,,,,,,,,,,,,,0,8,8,6,1,CartoonStims/doctor_punch_boxer_r.jpg,プミ　ピポ　ドキ,CartoonStims/doctor_shoot_boxer_r.jpg,left,CartoonStims/doctor_punch_boxer_r.jpg,audio/pumipipodoki.mp3,残念！ こちらが正しい画像です。,,,,,,,,,,,,,,,,,,,,,,,,,,,,,,,,,,,,,,,,,,,,,,,,,,,,
,,,,,,,,,R_2ATjyKyPgAt7gCD,2022-11-23_18h37.07.359,jpn_C01,2022.1.2,MacIntel,62.5,,,,,,,,,,,,,,,,,right,1,8.431,,,,,,,,,,,,,,,,,,0,0,0,0,1,,,,,,,,,,,,,,,,,,,,,,,,,,,,,,,,,,,,,,,,,,,,,,,
,,,,,,,,,R_2ATjyKyPgAt7gCD,2022-11-23_18h37.07.359,jpn_C01,2022.1.2,MacIntel,62.5,,,,,,,,,,,,,,,,,,,,,,,,,0,9,9,9,1,CartoonStims/chef_kick_artist_r.jpg,セル　ムク　シド,CartoonStims/cowboy_kick_artist_r.jpg,right,CartoonStims/cowboy_kick_artist_r.jpg,audio/serumukusido.mp3,残念！ こちらが正しい画像です。,,,,,,,,,,,,,,,,,,,,,,,,,,,,,,,,,,,,,,,,,,,,,,,,,,,,
,,,,,,,,,R_2ATjyKyPgAt7gCD,2022-11-23_18h37.07.359,jpn_C01,2022.1.2,MacIntel,62.5,,,,,,,,,,,,,,,,,left,1,3.1,0,0,0,0,1,,,,,,,,,,,,,,,,,,,,,,,,,,,,,,,,,,,,,,,,,,,,,,,,,,,,,,,,,,,,,,,,
,,,,,,,,,R_2ATjyKyPgAt7gCD,2022-11-23_18h37.07.359,jpn_C01,2022.1.2,MacIntel,62.5,,,,,,,,,,,,,,,,,,,,,,,,,0,10,10,8,1,CartoonStims/doctor_point_cowboy_r.jpg,トマ　ピポ　ムク,CartoonStims/boxer_point_cowboy_r.jpg,left,CartoonStims/doctor_point_cowboy_r.jpg,audio/tomapipomuku.mp3,残念！ こちらが正しい画像です。,,,,,,,,,,,,,,,,,,,,,,,,,,,,,,,,,,,,,,,,,,,,,,,,,,,,
,,,,,,,,,R_2ATjyKyPgAt7gCD,2022-11-23_18h37.07.359,jpn_C01,2022.1.2,MacIntel,62.5,,,,,,,,,,,,,,,,,right,1,2.466,,,,,,,,,,,,,,,,,,0,0,0,0,1,,,,,,,,,,,,,,,,,,,,,,,,,,,,,,,,,,,,,,,,,,,,,,,
,,,,,,,,,R_2ATjyKyPgAt7gCD,2022-11-23_18h37.07.359,jpn_C01,2022.1.2,MacIntel,62.5,,,,,,,,,,,,,,,,,,,,,,,,,0,11,11,7,1,CartoonStims/artist_punch_cowboy_r.jpg,セル　シド　ムク,CartoonStims/artist_kick_cowboy_r.jpg,right,CartoonStims/artist_kick_cowboy_r.jpg,audio/serusidomuku.mp3,残念！ こちらが正しい画像です。,,,,,,,,,,,,,,,,,,,,,,,,,,,,,,,,,,,,,,,,,,,,,,,,,,,,
,,,,,,,,,R_2ATjyKyPgAt7gCD,2022-11-23_18h37.07.359,jpn_C01,2022.1.2,MacIntel,62.5,,,,,,,,,,,,,,,,,,,,,,,,,,,,,,,,,,,,,,,,,,space,6.949,パツ　ムク　ピポ,right,17.075,0,0,0,0,1,,,,,,,,,,,,,,,,,,,,,,,,,,,,,,,,,,,,,
,,,,,,,,,R_2ATjyKyPgAt7gCD,2022-11-23_18h37.07.359,jpn_C01,2022.1.2,MacIntel,62.5,,,,,,,,,,,,,CartoonStims/cowboy_shoot_doctor_r.jpg,audio/patsumukupipo.mp3,,,,,,,,,,,,,,,,,,,,,,,,,,,,,,,,,,,,,,0,0,0,8,1,パツ　ムク　ピポ,,,,,,,,,,,,,,,,,,,,,,,,,,,,,,,
,,,,,,,,,R_2ATjyKyPgAt7gCD,2022-11-23_18h37.07.359,jpn_C01,2022.1.2,MacIntel,62.5,,,,,,,,,,,,,,,,,,,,,,,,,,,,,,,,,,,,,,,,,,,,ドキ　ムク,right,44.907,0,0,0,0,1,,,,,,,,,,,,,,,,,,,,,,,,,,,,,,,,,,,,,
,,,,,,,,,R_2ATjyKyPgAt7gCD,2022-11-23_18h37.07.359,jpn_C01,2022.1.2,MacIntel,62.5,,,,,,,,,,,,,CartoonStims/boxer_punch_artist_r.jpg,audio/pumidokisido.mp3,,,,,,,,,,,,,,,,,,,,,,,,,,,,,,,,,,,,,,0,1,1,11,1,プミ　ドキ　シド,,,,,,,,,,,,,,,,,,,,,,,,,,,,,,,
,,,,,,,,,R_2ATjyKyPgAt7gCD,2022-11-23_18h37.07.359,jpn_C01,2022.1.2,MacIntel,62.5,,,,,,,,,,,,,,,,,,,,,,,,,,,,,,,,,,,,,,,,,,,,プミ　ピポ　ドキ,right,12.75,0,0,0,0,1,,,,,,,,,,,,,,,,,,,,,,,,,,,,,,,,,,,,,
,,,,,,,,,R_2ATjyKyPgAt7gCD,2022-11-23_18h37.07.359,jpn_C01,2022.1.2,MacIntel,62.5,,,,,,,,,,,,,CartoonStims/doctor_punch_boxer_r.jpg,audio/pumipipodoki.mp3,,,,,,,,,,,,,,,,,,,,,,,,,,,,,,,,,,,,,,0,2,2,10,1,プミ　ピポ　ドキ,,,,,,,,,,,,,,,,,,,,,,,,,,,,,,,
,,,,,,,,,R_2ATjyKyPgAt7gCD,2022-11-23_18h37.07.359,jpn_C01,2022.1.2,MacIntel,62.5,,,,,,,,,,,,,,,,,,,,,,,,,,,,,,,,,,,,,,,,,,,,セル　ドキ　ムク,right,10.178,0,0,0,0,1,,,,,,,,,,,,,,,,,,,,,,,,,,,,,,,,,,,,,
,,,,,,,,,R_2ATjyKyPgAt7gCD,2022-11-23_18h37.07.359,jpn_C01,2022.1.2,MacIntel,62.5,,,,,,,,,,,,,CartoonStims/boxer_kick_cowboy_r.jpg,audio/serudokimuku.mp3,,,,,,,,,,,,,,,,,,,,,,,,,,,,,,,,,,,,,,0,3,3,2,1,セル　ドキ　ムク,,,,,,,,,,,,,,,,,,,,,,,,,,,,,,,
,,,,,,,,,R_2ATjyKyPgAt7gCD,2022-11-23_18h37.07.359,jpn_C01,2022.1.2,MacIntel,62.5,,,,,,,,,,,,,,,,,,,,,,,,,,,,,,,,,,,,,,,,,,,,トマ　ムク　ルピン,right,17.845,0,0,0,0,1,,,,,,,,,,,,,,,,,,,,,,,,,,,,,,,,,,,,,
,,,,,,,,,R_2ATjyKyPgAt7gCD,2022-11-23_18h37.07.359,jpn_C01,2022.1.2,MacIntel,62.5,,,,,,,,,,,,,CartoonStims/chef_point_burglar_r.jpg,audio/tomahoretolupin.mp3,,,,,,,,,,,,,,,,,,,,,,,,,,,,,,,,,,,,,,0,4,4,5,1,トマ　ホレト　ルピン,,,,,,,,,,,,,,,,,,,,,,,,,,,,,,,
,,,,,,,,,R_2ATjyKyPgAt7gCD,2022-11-23_18h37.07.359,jpn_C01,2022.1.2,MacIntel,62.5,,,,,,,,,,,,,,,,,,,,,,,,,,,,,,,,,,,,,,,,,,,,プミ　ムク　ルピン,right,25.061,0,0,0,0,1,,,,,,,,,,,,,,,,,,,,,,,,,,,,,,,,,,,,,
,,,,,,,,,R_2ATjyKyPgAt7gCD,2022-11-23_18h37.07.359,jpn_C01,2022.1.2,MacIntel,62.5,,,,,,,,,,,,,CartoonStims/artist_punch_burglar_r.jpg,audio/pumisidolupin.mp3,,,,,,,,,,,,,,,,,,,,,,,,,,,,,,,,,,,,,,0,5,5,9,1,プミ　シド　ルピン,,,,,,,,,,,,,,,,,,,,,,,,,,,,,,,
,,,,,,,,,R_2ATjyKyPgAt7gCD,2022-11-23_18h37.07.359,jpn_C01,2022.1.2,MacIntel,62.5,,,,,,,,,,,,,,,,,,,,,,,,,,,,,,,,,,,,,,,,,,,,トマ　シド　ドキ,right,8.946,0,0,0,0,1,,,,,,,,,,,,,,,,,,,,,,,,,,,,,,,,,,,,,
,,,,,,,,,R_2ATjyKyPgAt7gCD,2022-11-23_18h37.07.359,jpn_C01,2022.1.2,MacIntel,62.5,,,,,,,,,,,,,CartoonStims/artist_point_boxer_r.jpg,audio/tomasidodoki.mp3,,,,,,,,,,,,,,,,,,,,,,,,,,,,,,,,,,,,,,0,6,6,3,1,トマ　シド　ドキ,,,,,,,,,,,,,,,,,,,,,,,,,,,,,,,
,,,,,,,,,R_2ATjyKyPgAt7gCD,2022-11-23_18h37.07.359,jpn_C01,2022.1.2,MacIntel,62.5,,,,,,,,,,,,,,,,,,,,,,,,,,,,,,,,,,,,,,,,,,,,トマ　ルピン　シド,right,7.728,0,0,0,0,1,,,,,,,,,,,,,,,,,,,,,,,,,,,,,,,,,,,,,
,,,,,,,,,R_2ATjyKyPgAt7gCD,2022-11-23_18h37.07.359,jpn_C01,2022.1.2,MacIntel,62.5,,,,,,,,,,,,,CartoonStims/burglar_point_artist_r.jpg,audio/tomalupinsido.mp3,,,,,,,,,,,,,,,,,,,,,,,,,,,,,,,,,,,,,,0,7,7,4,1,トマ　ルピン　シド,,,,,,,,,,,,,,,,,,,,,,,,,,,,,,,
,,,,,,,,,R_2ATjyKyPgAt7gCD,2022-11-23_18h37.07.359,jpn_C01,2022.1.2,MacIntel,62.5,,,,,,,,,,,,,,,,,,,,,,,,,,,,,,,,,,,,,,,,,,,,パツ　ルピン　ムク,right,21.542,0,0,0,0,1,,,,,,,,,,,,,,,,,,,,,,,,,,,,,,,,,,,,,
,,,,,,,,,R_2ATjyKyPgAt7gCD,2022-11-23_18h37.07.359,jpn_C01,2022.1.2,MacIntel,62.5,,,,,,,,,,,,,CartoonStims/burglar_shoot_chef_r.jpg,audio/patsulupinhoreto.mp3,,,,,,,,,,,,,,,,,,,,,,,,,,,,,,,,,,,,,,0,8,8,6,1,パツ　ルピン　ホレト,,,,,,,,,,,,,,,,,,,,,,,,,,,,,,,
,,,,,,,,,R_2ATjyKyPgAt7gCD,2022-11-23_18h37.07.359,jpn_C01,2022.1.2,MacIntel,62.5,,,,,,,,,,,,,,,,,,,,,,,,,,,,,,,,,,,,,,,,,,,,セル　ピポ　ホレト,right,8.229,0,0,0,0,1,,,,,,,,,,,,,,,,,,,,,,,,,,,,,,,,,,,,,
,,,,,,,,,R_2ATjyKyPgAt7gCD,2022-11-23_18h37.07.359,jpn_C01,2022.1.2,MacIntel,62.5,,,,,,,,,,,,,CartoonStims/doctor_kick_chef_r.jpg,audio/serupipohoreto.mp3,,,,,,,,,,,,,,,,,,,,,,,,,,,,,,,,,,,,,,0,9,9,1,1,セル　ピポ　ホレト,,,,,,,,,,,,,,,,,,,,,,,,,,,,,,,
,,,,,,,,,R_2ATjyKyPgAt7gCD,2022-11-23_18h37.07.359,jpn_C01,2022.1.2,MacIntel,62.5,,,,,,,,,,,,,,,,,,,,,,,,,,,,,,,,,,,,,,,,,,,,セル　ムク　ルピン　,right,12.529,0,0,0,0,1,,,,,,,,,,,,,,,,,,,,,,,,,,,,,,,,,,,,,
,,,,,,,,,R_2ATjyKyPgAt7gCD,2022-11-23_18h37.07.359,jpn_C01,2022.1.2,MacIntel,62.5,,,,,,,,,,,,,CartoonStims/cowboy_kick_burglar_r.jpg,audio/serumukulupin.mp3,,,,,,,,,,,,,,,,,,,,,,,,,,,,,,,,,,,,,,0,10,10,0,1,セル　ムク　ルピン,,,,,,,,,,,,,,,,,,,,,,,,,,,,,,,
,,,,,,,,,R_2ATjyKyPgAt7gCD,2022-11-23_18h37.07.359,jpn_C01,2022.1.2,MacIntel,62.5,,,,,,,,,,,,,,,,,,,,,,,,,,,,,,,,,,,,,,,,,,,,パツ　ホレト　ムク,right,10.794,0,0,0,0,1,,,,,,,,,,,,,,,,,,,,,,,,,,,,,,,,,,,,,
,,,,,,,,,R_2ATjyKyPgAt7gCD,2022-11-23_18h37.07.359,jpn_C01,2022.1.2,MacIntel,62.5,,,,,,,,,,,,,CartoonStims/chef_shoot_cowboy_r.jpg,audio/patsuhoretomuku.mp3,,,,,,,,,,,,,,,,,,,,,,,,,,,,,,,,,,,,,,0,11,11,7,1,パツ　ホレト　ムク,,,,,,,,,,,,,,,,,,,,,,,,,,,,,,,
,,,,,,,,,R_2ATjyKyPgAt7gCD,2022-11-23_18h37.07.359,jpn_C01,2022.1.2,MacIntel,62.5,,,,,,,,,,,,,,,,,,,,,,,,,,,,,,,,,,,,,,,,,,,,,,,,,,,,,,,,,,,space,425.697,0,1,1,1,1,AffExposure.xlsx,"第二のトライアルの学習では、この言語で書かれた文を見ていただきます。引き続き注意して、 聞こえた音を復唱してください。


スペースキーを押してください。",1,AffFCT.xlsx,ここからクイズが始まります。 スクリーンに表示されるテキストに合う画像を選んでください。,AffTest.xlsx,1,次にここまで学んだことをアウトプットしていただきます。 表示される画像を描写していると思う単語を、テキストボックスにタイプしてください。 答えを提出したあとに正しい正解が少しの間画面に写ります。,1,"これで第二のトライアルが終了しました。 ここで休憩をとっていただいても構いません。

休憩が終わりましたら、 スペースキーを押して続きの学習を行いましょう。",,,,,,,,,,,,,
,,,,,,,,,R_2ATjyKyPgAt7gCD,2022-11-23_18h37.07.359,jpn_C01,2022.1.2,MacIntel,62.5,space,3.87,space,7.95,0,0,0,18,1,トマ　ピク　ムク　ドキ,,,CartoonStims/cowboy_point_boxer_r_no.jpg,audio/tomapikumukudoki.mp3,,,,,,,,,,,,,,,,,,,,,,,,,,,,,,,,,,,,,,,,,,,,,,,,,,,,,,,,,,,,,,,,,,,,,,,,,,
,,,,,,,,,R_2ATjyKyPgAt7gCD,2022-11-23_18h37.07.359,jpn_C01,2022.1.2,MacIntel,62.5,,,space,11.227,0,1,1,6,1,ピク　セル　ムク　ピポ,,,CartoonStims/cowboy_kick_doctor_r_no.jpg,audio/pikuserumukupipo.mp3,,,,,,,,,,,,,,,,,,,,,,,,,,,,,,,,,,,,,,,,,,,,,,,,,,,,,,,,,,,,,,,,,,,,,,,,,,
,,,,,,,,,R_2ATjyKyPgAt7gCD,2022-11-23_18h37.07.359,jpn_C01,2022.1.2,MacIntel,62.5,,,space,6.366,0,2,2,26,1,パツ　ピク　ルピン　ピポ,,,CartoonStims/burglar_shoot_doctor_r_no.jpg,audio/patsupikulupinpipo.mp3,,,,,,,,,,,,,,,,,,,,,,,,,,,,,,,,,,,,,,,,,,,,,,,,,,,,,,,,,,,,,,,,,,,,,,,,,,
,,,,,,,,,R_2ATjyKyPgAt7gCD,2022-11-23_18h37.07.359,jpn_C01,2022.1.2,MacIntel,62.5,,,space,12.065,0,3,3,33,1,ピク　パツ　ピポ　ホレト,,,CartoonStims/doctor_shoot_chef_r_no.jpg,audio/pikupatsupipohoreto.mp3,,,,,,,,,,,,,,,,,,,,,,,,,,,,,,,,,,,,,,,,,,,,,,,,,,,,,,,,,,,,,,,,,,,,,,,,,,
,,,,,,,,,R_2ATjyKyPgAt7gCD,2022-11-23_18h37.07.359,jpn_C01,2022.1.2,MacIntel,62.5,,,space,13.181,0,4,4,24,1,パツ　ピク　シド　ムク,,,CartoonStims/artist_shoot_cowboy_r_no.jpg,audio/patsupikusidomuku.mp3,,,,,,,,,,,,,,,,,,,,,,,,,,,,,,,,,,,,,,,,,,,,,,,,,,,,,,,,,,,,,,,,,,,,,,,,,,
,,,,,,,,,R_2ATjyKyPgAt7gCD,2022-11-23_18h37.07.359,jpn_C01,2022.1.2,MacIntel,62.5,,,space,8.004,0,5,5,20,1,トマ　ピク　ピポ　シド,,,CartoonStims/doctor_point_artist_r_no.jpg,audio/tomapikupiposido.mp3,,,,,,,,,,,,,,,,,,,,,,,,,,,,,,,,,,,,,,,,,,,,,,,,,,,,,,,,,,,,,,,,,,,,,,,,,,
,,,,,,,,,R_2ATjyKyPgAt7gCD,2022-11-23_18h37.07.359,jpn_C01,2022.1.2,MacIntel,62.5,,,space,10.122,0,6,6,46,1,ピク　プミ　ドキ　ムク,,,CartoonStims/boxer_punch_cowboy_r_no.jpg,audio/pikupumidokimuku.mp3,,,,,,,,,,,,,,,,,,,,,,,,,,,,,,,,,,,,,,,,,,,,,,,,,,,,,,,,,,,,,,,,,,,,,,,,,,
,,,,,,,,,R_2ATjyKyPgAt7gCD,2022-11-23_18h37.07.359,jpn_C01,2022.1.2,MacIntel,62.5,,,space,12.071,0,7,7,39,1,プミ　ピク　ルピン　シド,,,CartoonStims/burglar_punch_artist_r_no.jpg,audio/pumipikulupinsido.mp3,,,,,,,,,,,,,,,,,,,,,,,,,,,,,,,,,,,,,,,,,,,,,,,,,,,,,,,,,,,,,,,,,,,,,,,,,,
,,,,,,,,,R_2ATjyKyPgAt7gCD,2022-11-23_18h37.07.359,jpn_C01,2022.1.2,MacIntel,62.5,,,space,9.302,0,8,8,0,1,ピク　セル　シド　ルピン,,,CartoonStims/artist_kick_burglar_r_no.jpg,audio/pikuserusidolupin.mp3,,,,,,,,,,,,,,,,,,,,,,,,,,,,,,,,,,,,,,,,,,,,,,,,,,,,,,,,,,,,,,,,,,,,,,,,,,
,,,,,,,,,R_2ATjyKyPgAt7gCD,2022-11-23_18h37.07.359,jpn_C01,2022.1.2,MacIntel,62.5,,,space,8.067,0,9,9,13,1,ピク　トマ　シド　ムク,,,CartoonStims/artist_point_cowboy_r_no.jpg,audio/pikutomasidomuku.mp3,,,,,,,,,,,,,,,,,,,,,,,,,,,,,,,,,,,,,,,,,,,,,,,,,,,,,,,,,,,,,,,,,,,,,,,,,,
,,,,,,,,,R_2ATjyKyPgAt7gCD,2022-11-23_18h37.07.359,jpn_C01,2022.1.2,MacIntel,62.5,,,space,9.133,0,10,10,47,1,プミ　ピク　ドキ　ピポ,,,CartoonStims/boxer_punch_doctor_r_no.jpg,audio/pumipikudokipipo.mp3,,,,,,,,,,,,,,,,,,,,,,,,,,,,,,,,,,,,,,,,,,,,,,,,,,,,,,,,,,,,,,,,,,,,,,,,,,
,,,,,,,,,R_2ATjyKyPgAt7gCD,2022-11-23_18h37.07.359,jpn_C01,2022.1.2,MacIntel,62.5,,,space,7.371,0,11,11,3,1,セル　ピク　ルピン　ムク,,,CartoonStims/burglar_kick_cowboy_r_no.jpg,audio/serupikulupinmuku.mp3,,,,,,,,,,,,,,,,,,,,,,,,,,,,,,,,,,,,,,,,,,,,,,,,,,,,,,,,,,,,,,,,,,,,,,,,,,
,,,,,,,,,R_2ATjyKyPgAt7gCD,2022-11-23_18h37.07.359,jpn_C01,2022.1.2,MacIntel,62.5,,,space,8.584,0,12,12,36,1,ピク　プミ　シド　ピポ,,,CartoonStims/artist_punch_doctor_r_no.jpg,audio/pikupumisidopipo.mp3,,,,,,,,,,,,,,,,,,,,,,,,,,,,,,,,,,,,,,,,,,,,,,,,,,,,,,,,,,,,,,,,,,,,,,,,,,
,,,,,,,,,R_2ATjyKyPgAt7gCD,2022-11-23_18h37.07.359,jpn_C01,2022.1.2,MacIntel,62.5,,,space,9.085,0,13,13,5,1,セル　ピク　ホレト　ピポ,,,CartoonStims/chef_kick_doctor_r_no.jpg,audio/serupikuhoretopipo.mp3,,,,,,,,,,,,,,,,,,,,,,,,,,,,,,,,,,,,,,,,,,,,,,,,,,,,,,,,,,,,,,,,,,,,,,,,,,
,,,,,,,,,R_2ATjyKyPgAt7gCD,2022-11-23_18h37.07.359,jpn_C01,2022.1.2,MacIntel,62.5,,,space,10.199,0,14,14,10,1,ピク　セル　ドキ　シド,,,CartoonStims/boxer_kick_artist_r_no.jpg,audio/pikuserudokisido.mp3,,,,,,,,,,,,,,,,,,,,,,,,,,,,,,,,,,,,,,,,,,,,,,,,,,,,,,,,,,,,,,,,,,,,,,,,,,
,,,,,,,,,R_2ATjyKyPgAt7gCD,2022-11-23_18h37.07.359,jpn_C01,2022.1.2,MacIntel,62.5,,,space,7.256,0,15,15,25,1,ピク　パツ　シド　ピポ,,,CartoonStims/artist_shoot_doctor_r_no.jpg,audio/pikupatsusidopipo.mp3,,,,,,,,,,,,,,,,,,,,,,,,,,,,,,,,,,,,,,,,,,,,,,,,,,,,,,,,,,,,,,,,,,,,,,,,,,
,,,,,,,,,R_2ATjyKyPgAt7gCD,2022-11-23_18h37.07.359,jpn_C01,2022.1.2,MacIntel,62.5,,,space,5.435,0,16,16,38,1,ピク　プミ　ルピン　ドキ,,,CartoonStims/burglar_punch_boxer_r_no.jpg,audio/pikupumilupindoki.mp3,,,,,,,,,,,,,,,,,,,,,,,,,,,,,,,,,,,,,,,,,,,,,,,,,,,,,,,,,,,,,,,,,,,,,,,,,,
,,,,,,,,,R_2ATjyKyPgAt7gCD,2022-11-23_18h37.07.359,jpn_C01,2022.1.2,MacIntel,62.5,,,space,3.363,0,17,17,4,1,ピク　セル　ホレト　ムク,,,CartoonStims/chef_kick_cowboy_r_no.jpg,audio/pikuseruhoretomuku.mp3,,,,,,,,,,,,,,,,,,,,,,,,,,,,,,,,,,,,,,,,,,,,,,,,,,,,,,,,,,,,,,,,,,,,,,,,,,
,,,,,,,,,R_2ATjyKyPgAt7gCD,2022-11-23_18h37.07.359,jpn_C01,2022.1.2,MacIntel,62.5,,,space,7.917,0,18,18,14,1,トマ　ピク　ルピン　ムク,,,CartoonStims/burglar_point_cowboy_r_no.jpg,audio/tomapikulupinmuku.mp3,,,,,,,,,,,,,,,,,,,,,,,,,,,,,,,,,,,,,,,,,,,,,,,,,,,,,,,,,,,,,,,,,,,,,,,,,,
,,,,,,,,,R_2ATjyKyPgAt7gCD,2022-11-23_18h37.07.359,jpn_C01,2022.1.2,MacIntel,62.5,,,space,5.852,0,19,19,41,1,プミ　ピク　ホレト　ルピン,,,CartoonStims/chef_punch_burglar_r_no.jpg,audio/pumipikuhoretolupin.mp3,,,,,,,,,,,,,,,,,,,,,,,,,,,,,,,,,,,,,,,,,,,,,,,,,,,,,,,,,,,,,,,,,,,,,,,,,,
,,,,,,,,,R_2ATjyKyPgAt7gCD,2022-11-23_18h37.07.359,jpn_C01,2022.1.2,MacIntel,62.5,,,space,3.001,0,20,20,43,1,プミ　ピク　ムク　ホレト,,,CartoonStims/cowboy_punch_chef_r_no.jpg,audio/pumipikumukuhoreto.mp3,,,,,,,,,,,,,,,,,,,,,,,,,,,,,,,,,,,,,,,,,,,,,,,,,,,,,,,,,,,,,,,,,,,,,,,,,,
,,,,,,,,,R_2ATjyKyPgAt7gCD,2022-11-23_18h37.07.359,jpn_C01,2022.1.2,MacIntel,62.5,,,space,2.582,0,21,21,37,1,プミ　ピク　シド　ドキ,,,CartoonStims/artist_punch_boxer_r_no.jpg,audio/pumipikusidodoki.mp3,,,,,,,,,,,,,,,,,,,,,,,,,,,,,,,,,,,,,,,,,,,,,,,,,,,,,,,,,,,,,,,,,,,,,,,,,,
,,,,,,,,,R_2ATjyKyPgAt7gCD,2022-11-23_18h37.07.359,jpn_C01,2022.1.2,MacIntel,62.5,,,space,3.186,0,22,22,2,1,ピク　セル　ルピン　ホレト,,,CartoonStims/burglar_kick_chef_r_no.jpg,audio/pikuserulupinhoreto.mp3,,,,,,,,,,,,,,,,,,,,,,,,,,,,,,,,,,,,,,,,,,,,,,,,,,,,,,,,,,,,,,,,,,,,,,,,,,
,,,,,,,,,R_2ATjyKyPgAt7gCD,2022-11-23_18h37.07.359,jpn_C01,2022.1.2,MacIntel,62.5,,,space,5.102,0,23,23,32,1,パツ　ピク　ピポ　ルピン,,,CartoonStims/doctor_shoot_burglar_r_no.jpg,audio/patsupikupipolupin.mp3,,,,,,,,,,,,,,,,,,,,,,,,,,,,,,,,,,,,,,,,,,,,,,,,,,,,,,,,,,,,,,,,,,,,,,,,,,
,,,,,,,,,R_2ATjyKyPgAt7gCD,2022-11-23_18h37.07.359,jpn_C01,2022.1.2,MacIntel,62.5,,,space,1.767,0,24,24,19,1,ピク　トマ　ムク　シド,,,CartoonStims/cowboy_point_artist_r_no.jpg,audio/pikutomamukusido.mp3,,,,,,,,,,,,,,,,,,,,,,,,,,,,,,,,,,,,,,,,,,,,,,,,,,,,,,,,,,,,,,,,,,,,,,,,,,
,,,,,,,,,R_2ATjyKyPgAt7gCD,2022-11-23_18h37.07.359,jpn_C01,2022.1.2,MacIntel,62.5,,,space,2.252,0,25,25,30,1,パツ　ピク　ムク　シド,,,CartoonStims/cowboy_shoot_artist_r_no.jpg,audio/patsupikumukusido.mp3,,,,,,,,,,,,,,,,,,,,,,,,,,,,,,,,,,,,,,,,,,,,,,,,,,,,,,,,,,,,,,,,,,,,,,,,,,
,,,,,,,,,R_2ATjyKyPgAt7gCD,2022-11-23_18h37.07.359,jpn_C01,2022.1.2,MacIntel,62.5,,,space,1.966,0,26,26,22,1,トマ　ピク　ドキ　ルピン,,,CartoonStims/boxer_point_burglar_r_no.jpg,audio/tomapikudokilupin.mp3,,,,,,,,,,,,,,,,,,,,,,,,,,,,,,,,,,,,,,,,,,,,,,,,,,,,,,,,,,,,,,,,,,,,,,,,,,
,,,,,,,,,R_2ATjyKyPgAt7gCD,2022-11-23_18h37.07.359,jpn_C01,2022.1.2,MacIntel,62.5,,,space,2.688,0,27,27,44,1,ピク　プミ　ピポ　ホレト,,,CartoonStims/doctor_punch_chef_r_no.jpg,audio/pikupumipipohoreto.mp3,,,,,,,,,,,,,,,,,,,,,,,,,,,,,,,,,,,,,,,,,,,,,,,,,,,,,,,,,,,,,,,,,,,,,,,,,,
,,,,,,,,,R_2ATjyKyPgAt7gCD,2022-11-23_18h37.07.359,jpn_C01,2022.1.2,MacIntel,62.5,,,space,1.768,0,28,28,8,1,ピク　セル　ピポ　ドキ,,,CartoonStims/doctor_kick_boxer_r_no.jpg,audio/pikuserupipodoki.mp3,,,,,,,,,,,,,,,,,,,,,,,,,,,,,,,,,,,,,,,,,,,,,,,,,,,,,,,,,,,,,,,,,,,,,,,,,,
,,,,,,,,,R_2ATjyKyPgAt7gCD,2022-11-23_18h37.07.359,jpn_C01,2022.1.2,MacIntel,62.5,,,space,3.968,0,29,29,45,1,プミ　ピク　ピポ　ムク,,,CartoonStims/doctor_punch_cowboy_r_no.jpg,audio/pumipikupipomuku.mp3,,,,,,,,,,,,,,,,,,,,,,,,,,,,,,,,,,,,,,,,,,,,,,,,,,,,,,,,,,,,,,,,,,,,,,,,,,
,,,,,,,,,R_2ATjyKyPgAt7gCD,2022-11-23_18h37.07.359,jpn_C01,2022.1.2,MacIntel,62.5,,,space,2.471,0,30,30,27,1,ピク　パツ　ルピン　ドキ,,,CartoonStims/burglar_shoot_boxer_r_no.jpg,audio/pikupatsulupindoki.mp3,,,,,,,,,,,,,,,,,,,,,,,,,,,,,,,,,,,,,,,,,,,,,,,,,,,,,,,,,,,,,,,,,,,,,,,,,,
,,,,,,,,,R_2ATjyKyPgAt7gCD,2022-11-23_18h37.07.359,jpn_C01,2022.1.2,MacIntel,62.5,,,space,0.901,0,31,31,15,1,ピク　トマ　ルピン　ピポ,,,CartoonStims/burglar_point_doctor_r_no.jpg,audio/pikutomalupinpipo.mp3,,,,,,,,,,,,,,,,,,,,,,,,,,,,,,,,,,,,,,,,,,,,,,,,,,,,,,,,,,,,,,,,,,,,,,,,,,
,,,,,,,,,R_2ATjyKyPgAt7gCD,2022-11-23_18h37.07.359,jpn_C01,2022.1.2,MacIntel,62.5,,,space,1.399,0,32,32,29,1,ピク　パツ　ホレト　シド,,,CartoonStims/chef_shoot_artist_r_no.jpg,audio/pikupatsuhoretosido.mp3,,,,,,,,,,,,,,,,,,,,,,,,,,,,,,,,,,,,,,,,,,,,,,,,,,,,,,,,,,,,,,,,,,,,,,,,,,
,,,,,,,,,R_2ATjyKyPgAt7gCD,2022-11-23_18h37.07.359,jpn_C01,2022.1.2,MacIntel,62.5,,,space,1.317,0,33,33,40,1,ピク　プミ　ホレト　シド,,,CartoonStims/chef_punch_artist_r_no.jpg,audio/pikupumihoretosido.mp3,,,,,,,,,,,,,,,,,,,,,,,,,,,,,,,,,,,,,,,,,,,,,,,,,,,,,,,,,,,,,,,,,,,,,,,,,,
,,,,,,,,,R_2ATjyKyPgAt7gCD,2022-11-23_18h37.07.359,jpn_C01,2022.1.2,MacIntel,62.5,,,space,0.818,0,34,34,17,1,ピク　トマ　ホレト　ドキ,,,CartoonStims/chef_point_boxer_r_no.jpg,audio/pikutomahoretodoki.mp3,,,,,,,,,,,,,,,,,,,,,,,,,,,,,,,,,,,,,,,,,,,,,,,,,,,,,,,,,,,,,,,,,,,,,,,,,,
,,,,,,,,,R_2ATjyKyPgAt7gCD,2022-11-23_18h37.07.359,jpn_C01,2022.1.2,MacIntel,62.5,,,space,4.373,0,35,35,28,1,パツ　ピク　ホレト　ドキ,,,CartoonStims/chef_shoot_boxer_r_no.jpg,audio/patsupikuhoretodoki.mp3,,,,,,,,,,,,,,,,,,,,,,,,,,,,,,,,,,,,,,,,,,,,,,,,,,,,,,,,,,,,,,,,,,,,,,,,,,
,,,,,,,,,R_2ATjyKyPgAt7gCD,2022-11-23_18h37.07.359,jpn_C01,2022.1.2,MacIntel,62.5,,,space,1.847,0,36,36,7,1,セル　ピク　ムク　ドキ,,,CartoonStims/cowboy_kick_boxer_r_no.jpg,audio/serupikumukudoki.mp3,,,,,,,,,,,,,,,,,,,,,,,,,,,,,,,,,,,,,,,,,,,,,,,,,,,,,,,,,,,,,,,,,,,,,,,,,,
,,,,,,,,,R_2ATjyKyPgAt7gCD,2022-11-23_18h37.07.359,jpn_C01,2022.1.2,MacIntel,62.5,,,space,1.665,0,37,37,35,1,ピク　パツ　ドキ　ムク,,,CartoonStims/boxer_shoot_cowboy_r_no.jpg,audio/pikupatsudokimuku.mp3,,,,,,,,,,,,,,,,,,,,,,,,,,,,,,,,,,,,,,,,,,,,,,,,,,,,,,,,,,,,,,,,,,,,,,,,,,
,,,,,,,,,R_2ATjyKyPgAt7gCD,2022-11-23_18h37.07.359,jpn_C01,2022.1.2,MacIntel,62.5,,,space,2.523,0,38,38,31,1,ピク　パツ　ムク　ルピン,,,CartoonStims/cowboy_shoot_burglar_r_no.jpg,audio/pikupatsumukulupin.mp3,,,,,,,,,,,,,,,,,,,,,,,,,,,,,,,,,,,,,,,,,,,,,,,,,,,,,,,,,,,,,,,,,,,,,,,,,,
,,,,,,,,,R_2ATjyKyPgAt7gCD,2022-11-23_18h37.07.359,jpn_C01,2022.1.2,MacIntel,62.5,,,space,1.253,0,39,39,12,1,トマ　ピク　シド　ホレト,,,CartoonStims/artist_point_chef_r_no.jpg,audio/tomapikusidohoreto.mp3,,,,,,,,,,,,,,,,,,,,,,,,,,,,,,,,,,,,,,,,,,,,,,,,,,,,,,,,,,,,,,,,,,,,,,,,,,
,,,,,,,,,R_2ATjyKyPgAt7gCD,2022-11-23_18h37.07.359,jpn_C01,2022.1.2,MacIntel,62.5,,,space,6.178,0,40,40,11,1,セル　ピク　ドキ　ルピン,,,CartoonStims/boxer_kick_burglar_r_no.jpg,audio/serupikudokilupin.mp3,,,,,,,,,,,,,,,,,,,,,,,,,,,,,,,,,,,,,,,,,,,,,,,,,,,,,,,,,,,,,,,,,,,,,,,,,,
,,,,,,,,,R_2ATjyKyPgAt7gCD,2022-11-23_18h37.07.359,jpn_C01,2022.1.2,MacIntel,62.5,,,space,3.183,0,41,41,16,1,トマ　ピク　ホレト　ピポ,,,CartoonStims/chef_point_doctor_r_no.jpg,audio/tomapikuhoretopipo.mp3,,,,,,,,,,,,,,,,,,,,,,,,,,,,,,,,,,,,,,,,,,,,,,,,,,,,,,,,,,,,,,,,,,,,,,,,,,
,,,,,,,,,R_2ATjyKyPgAt7gCD,2022-11-23_18h37.07.359,jpn_C01,2022.1.2,MacIntel,62.5,,,space,0.722,0,42,42,42,1,ピク　プミ　ムク　ルピン,,,CartoonStims/cowboy_punch_burglar_r_no.jpg,audio/pikupumimukulupin.mp3,,,,,,,,,,,,,,,,,,,,,,,,,,,,,,,,,,,,,,,,,,,,,,,,,,,,,,,,,,,,,,,,,,,,,,,,,,
,,,,,,,,,R_2ATjyKyPgAt7gCD,2022-11-23_18h37.07.359,jpn_C01,2022.1.2,MacIntel,62.5,,,space,1.667,0,43,43,21,1,ピク　トマ　ピポ　ルピン,,,CartoonStims/doctor_point_burglar_r_no.jpg,audio/pikutomapipolupin.mp3,,,,,,,,,,,,,,,,,,,,,,,,,,,,,,,,,,,,,,,,,,,,,,,,,,,,,,,,,,,,,,,,,,,,,,,,,,
,,,,,,,,,R_2ATjyKyPgAt7gCD,2022-11-23_18h37.07.359,jpn_C01,2022.1.2,MacIntel,62.5,,,space,1.606,0,44,44,34,1,パツ　ピク　ドキ　ホレト,,,CartoonStims/boxer_shoot_chef_r_no.jpg,audio/patsupikudokihoreto.mp3,,,,,,,,,,,,,,,,,,,,,,,,,,,,,,,,,,,,,,,,,,,,,,,,,,,,,,,,,,,,,,,,,,,,,,,,,,
,,,,,,,,,R_2ATjyKyPgAt7gCD,2022-11-23_18h37.07.359,jpn_C01,2022.1.2,MacIntel,62.5,,,space,1.2,0,45,45,23,1,ピク　トマ　ドキ　ホレト,,,CartoonStims/boxer_point_chef_r_no.jpg,audio/pikutomadokihoreto.mp3,,,,,,,,,,,,,,,,,,,,,,,,,,,,,,,,,,,,,,,,,,,,,,,,,,,,,,,,,,,,,,,,,,,,,,,,,,
,,,,,,,,,R_2ATjyKyPgAt7gCD,2022-11-23_18h37.07.359,jpn_C01,2022.1.2,MacIntel,62.5,,,space,3.77,0,46,46,1,1,セル　ピク　シド　ホレト,,,CartoonStims/artist_kick_chef_r_no.jpg,audio/serupikusidohoreto.mp3,,,,,,,,,,,,,,,,,,,,,,,,,,,,,,,,,,,,,,,,,,,,,,,,,,,,,,,,,,,,,,,,,,,,,,,,,,
,,,,,,,,,R_2ATjyKyPgAt7gCD,2022-11-23_18h37.07.359,jpn_C01,2022.1.2,MacIntel,62.5,,,space,0.832,0,47,47,9,1,セル　ピク　ピポ　シド,,,CartoonStims/doctor_kick_artist_r_no.jpg,audio/serupikupiposido.mp3,,,,,,,,,,,,,,,,,,,,,,,,,,,,,,,,,,,,,,,,,,,,,,,,,,,,,,,,,,,,,,,,,,,,,,,,,,
,,,,,,,,,R_2ATjyKyPgAt7gCD,2022-11-23_18h37.07.359,jpn_C01,2022.1.2,MacIntel,62.5,,,,,,,,,,,,,,,space,0.889,right,0,3.583,,,,,,,,,,,,,,,,,,,,,,,,,,,,,,,,,,,,,,,,,,,,,,,,,,,,,,,,,0,0,0,0,1,,,,,,,,
,,,,,,,,,R_2ATjyKyPgAt7gCD,2022-11-23_18h37.07.359,jpn_C01,2022.1.2,MacIntel,62.5,,,,,,,,,,,,,,,,,,,,,,,,,0,0,0,6,1,CartoonStims/artist_shoot_boxer_r.jpg,トマ　ピク　シド　ドキ,CartoonStims/artist_point_boxer_r.jpg,left,CartoonStims/artist_shoot_boxer_r.jpg,audio/tomapikusidodoki.mp3,"残念！ こちらが正しい画像です。

否定文は起きていないことを示しているのを思い出してください。",,,,,,,,,,,,,,,,,,,,,,,,,,,,,,,,,,,,,,,,,,,,,,,,,,,,
,,,,,,,,,R_2ATjyKyPgAt7gCD,2022-11-23_18h37.07.359,jpn_C01,2022.1.2,MacIntel,62.5,,,,,,,,,,,,,,,,,left,0,3.983,,,,,,,,,,,,,,,,,,,,,,,,,,,,,,,,,,,,,,,,,,,,,,,,,,,,,,,,,,,,,,0,0,0,0,1,,,
,,,,,,,,,R_2ATjyKyPgAt7gCD,2022-11-23_18h37.07.359,jpn_C01,2022.1.2,MacIntel,62.5,,,,,,,,,,,,,,,,,,,,,,,,,0,1,1,1,1,CartoonStims/chef_punch_cowboy_r.jpg,プミ　ピク　ホレト　ムク,CartoonStims/chef_kick_cowboy_r.jpg,right,CartoonStims/chef_kick_cowboy_r.jpg,audio/pumipikuhoretomuku.mp3,"残念！ こちらが正しい画像です。

否定文は起きていないことを示しているのを思い出してください。",,,,,,,,,,,,,,,,,,,,,,,,,,,,,,,,,,,,,,,,,,,,,,,,,,,,
,,,,,,,,,R_2ATjyKyPgAt7gCD,2022-11-23_18h37.07.359,jpn_C01,2022.1.2,MacIntel,62.5,,,,,,,,,,,,,,,,,right,1,4.069,,,,,,,,,,,,,,,,,,0,0,0,0,1,,,,,,,,,,,,,,,,,,,,,,,,,,,,,,,,,,,,,,,,,,,,,,,
,,,,,,,,,R_2ATjyKyPgAt7gCD,2022-11-23_18h37.07.359,jpn_C01,2022.1.2,MacIntel,62.5,,,,,,,,,,,,,,,,,,,,,,,,,0,2,2,7,1,CartoonStims/cowboy_point_chef_r.jpg,ピク　トマ　ムク　ホレト,CartoonStims/cowboy_kick_chef_r.jpg,right,CartoonStims/cowboy_kick_chef_r.jpg,audio/pikutomamukuhoreto.mp3,"残念！ こちらが正しい画像です。

否定文は起きていないことを示しているのを思い出してください。",,,,,,,,,,,,,,,,,,,,,,,,,,,,,,,,,,,,,,,,,,,,,,,,,,,,
,,,,,,,,,R_2ATjyKyPgAt7gCD,2022-11-23_18h37.07.359,jpn_C01,2022.1.2,MacIntel,62.5,,,,,,,,,,,,,,,,,left,1,6.519,0,0,0,0,1,,,,,,,,,,,,,,,,,,,,,,,,,,,,,,,,,,,,,,,,,,,,,,,,,,,,,,,,,,,,,,,,
,,,,,,,,,R_2ATjyKyPgAt7gCD,2022-11-23_18h37.07.359,jpn_C01,2022.1.2,MacIntel,62.5,,,,,,,,,,,,,,,,,,,,,,,,,0,3,3,4,1,CartoonStims/burglar_shoot_doctor_r.jpg,セル　ピク　ルピン　ピポ,CartoonStims/burglar_kick_doctor_r.jpg,left,CartoonStims/burglar_shoot_doctor_r.jpg,audio/serupikulupinpipo.mp3,"残念！ こちらが正しい画像です。

否定文は起きていないことを示しているのを思い出してください。",,,,,,,,,,,,,,,,,,,,,,,,,,,,,,,,,,,,,,,,,,,,,,,,,,,,
,,,,,,,,,R_2ATjyKyPgAt7gCD,2022-11-23_18h37.07.359,jpn_C01,2022.1.2,MacIntel,62.5,,,,,,,,,,,,,,,,,left,1,4.787,0,0,0,0,1,,,,,,,,,,,,,,,,,,,,,,,,,,,,,,,,,,,,,,,,,,,,,,,,,,,,,,,,,,,,,,,,
,,,,,,,,,R_2ATjyKyPgAt7gCD,2022-11-23_18h37.07.359,jpn_C01,2022.1.2,MacIntel,62.5,,,,,,,,,,,,,,,,,,,,,,,,,0,4,4,2,1,CartoonStims/doctor_point_boxer_r.jpg,ピク　プミ　ピポ　ドキ,CartoonStims/doctor_punch_boxer_r.jpg,left,CartoonStims/doctor_point_boxer_r.jpg,audio/pikupumipipodoki.mp3,"残念！ こちらが正しい画像です。

否定文は起きていないことを示しているのを思い出してください。",,,,,,,,,,,,,,,,,,,,,,,,,,,,,,,,,,,,,,,,,,,,,,,,,,,,
,,,,,,,,,R_2ATjyKyPgAt7gCD,2022-11-23_18h37.07.359,jpn_C01,2022.1.2,MacIntel,62.5,,,,,,,,,,,,,,,,,right,1,1.805,,,,,,,,,,,,,,,,,,0,0,0,0,1,,,,,,,,,,,,,,,,,,,,,,,,,,,,,,,,,,,,,,,,,,,,,,,
,,,,,,,,,R_2ATjyKyPgAt7gCD,2022-11-23_18h37.07.359,jpn_C01,2022.1.2,MacIntel,62.5,,,,,,,,,,,,,,,,,,,,,,,,,0,5,5,11,1,CartoonStims/chef_shoot_burglar_r.jpg,パツ　ピク　ホレト　ルピン,CartoonStims/chef_kick_burglar_r.jpg,right,CartoonStims/chef_kick_burglar_r.jpg,audio/patsupikuhoretolupin.mp3,"残念！ こちらが正しい画像です。

否定文は起きていないことを示しているのを思い出してください。",,,,,,,,,,,,,,,,,,,,,,,,,,,,,,,,,,,,,,,,,,,,,,,,,,,,
,,,,,,,,,R_2ATjyKyPgAt7gCD,2022-11-23_18h37.07.359,jpn_C01,2022.1.2,MacIntel,62.5,,,,,,,,,,,,,,,,,left,1,3.099,0,0,0,0,1,,,,,,,,,,,,,,,,,,,,,,,,,,,,,,,,,,,,,,,,,,,,,,,,,,,,,,,,,,,,,,,,
,,,,,,,,,R_2ATjyKyPgAt7gCD,2022-11-23_18h37.07.359,jpn_C01,2022.1.2,MacIntel,62.5,,,,,,,,,,,,,,,,,,,,,,,,,0,6,6,8,1,CartoonStims/burglar_punch_artist_r.jpg,トマ　ピク　ルピン　シド,CartoonStims/burglar_point_artist_r.jpg,left,CartoonStims/burglar_punch_artist_r.jpg,audio/tomapikulupinsido.mp3,"残念！ こちらが正しい画像です。

否定文は起きていないことを示しているのを思い出してください。",,,,,,,,,,,,,,,,,,,,,,,,,,,,,,,,,,,,,,,,,,,,,,,,,,,,
,,,,,,,,,R_2ATjyKyPgAt7gCD,2022-11-23_18h37.07.359,jpn_C01,2022.1.2,MacIntel,62.5,,,,,,,,,,,,,,,,,left,1,4.618,0,0,0,0,1,,,,,,,,,,,,,,,,,,,,,,,,,,,,,,,,,,,,,,,,,,,,,,,,,,,,,,,,,,,,,,,,
,,,,,,,,,R_2ATjyKyPgAt7gCD,2022-11-23_18h37.07.359,jpn_C01,2022.1.2,MacIntel,62.5,,,,,,,,,,,,,,,,,,,,,,,,,0,7,7,0,1,CartoonStims/artist_shoot_burglar_r.jpg,ピク　プミ　シド　ルピン,CartoonStims/artist_punch_burglar_r.jpg,left,CartoonStims/artist_shoot_burglar_r.jpg,audio/pikupumisidolupin.mp3,"残念！ こちらが正しい画像です。

否定文は起きていないことを示しているのを思い出してください。",,,,,,,,,,,,,,,,,,,,,,,,,,,,,,,,,,,,,,,,,,,,,,,,,,,,
,,,,,,,,,R_2ATjyKyPgAt7gCD,2022-11-23_18h37.07.359,jpn_C01,2022.1.2,MacIntel,62.5,,,,,,,,,,,,,,,,,left,1,3.085,0,0,0,0,1,,,,,,,,,,,,,,,,,,,,,,,,,,,,,,,,,,,,,,,,,,,,,,,,,,,,,,,,,,,,,,,,
,,,,,,,,,R_2ATjyKyPgAt7gCD,2022-11-23_18h37.07.359,jpn_C01,2022.1.2,MacIntel,62.5,,,,,,,,,,,,,,,,,,,,,,,,,0,8,8,10,1,CartoonStims/doctor_punch_cowboy_r.jpg,ピク　パツ　ピポ　ムク,CartoonStims/doctor_shoot_cowboy_r.jpg,left,CartoonStims/doctor_punch_cowboy_r.jpg,audio/pikupatsupipomuku.mp3,"残念！ こちらが正しい画像です。

否定文は起きていないことを示しているのを思い出してください。",,,,,,,,,,,,,,,,,,,,,,,,,,,,,,,,,,,,,,,,,,,,,,,,,,,,
,,,,,,,,,R_2ATjyKyPgAt7gCD,2022-11-23_18h37.07.359,jpn_C01,2022.1.2,MacIntel,62.5,,,,,,,,,,,,,,,,,right,1,1.966,,,,,,,,,,,,,,,,,,0,0,0,0,1,,,,,,,,,,,,,,,,,,,,,,,,,,,,,,,,,,,,,,,,,,,,,,,
,,,,,,,,,R_2ATjyKyPgAt7gCD,2022-11-23_18h37.07.359,jpn_C01,2022.1.2,MacIntel,62.5,,,,,,,,,,,,,,,,,,,,,,,,,0,9,9,5,1,CartoonStims/boxer_kick_cowboy_r.jpg,ピク　セル　ドキ　ムク,CartoonStims/boxer_punch_cowboy_r.jpg,right,CartoonStims/boxer_punch_cowboy_r.jpg,audio/pikuserudokimuku.mp3,"残念！ こちらが正しい画像です。

否定文は起きていないことを示しているのを思い出してください。",,,,,,,,,,,,,,,,,,,,,,,,,,,,,,,,,,,,,,,,,,,,,,,,,,,,
,,,,,,,,,R_2ATjyKyPgAt7gCD,2022-11-23_18h37.07.359,jpn_C01,2022.1.2,MacIntel,62.5,,,,,,,,,,,,,,,,,right,1,1.257,,,,,,,,,,,,,,,,,,0,0,0,0,1,,,,,,,,,,,,,,,,,,,,,,,,,,,,,,,,,,,,,,,,,,,,,,,
,,,,,,,,,R_2ATjyKyPgAt7gCD,2022-11-23_18h37.07.359,jpn_C01,2022.1.2,MacIntel,62.5,,,,,,,,,,,,,,,,,,,,,,,,,0,10,10,3,1,CartoonStims/chef_kick_artist_r.jpg,ピク　セル　ホレト　シド,CartoonStims/chef_point_artist_r.jpg,right,CartoonStims/chef_point_artist_r.jpg,audio/pikuseruhoretosido.mp3,"残念！ こちらが正しい画像です。

否定文は起きていないことを示しているのを思い出してください。",,,,,,,,,,,,,,,,,,,,,,,,,,,,,,,,,,,,,,,,,,,,,,,,,,,,
,,,,,,,,,R_2ATjyKyPgAt7gCD,2022-11-23_18h37.07.359,jpn_C01,2022.1.2,MacIntel,62.5,,,,,,,,,,,,,,,,,right,1,3.601,,,,,,,,,,,,,,,,,,0,0,0,0,1,,,,,,,,,,,,,,,,,,,,,,,,,,,,,,,,,,,,,,,,,,,,,,,
,,,,,,,,,R_2ATjyKyPgAt7gCD,2022-11-23_18h37.07.359,jpn_C01,2022.1.2,MacIntel,62.5,,,,,,,,,,,,,,,,,,,,,,,,,0,11,11,9,1,CartoonStims/boxer_shoot_doctor_r.jpg,パツ　ピク　ドキ　ピポ,CartoonStims/boxer_point_doctor_r.jpg,right,CartoonStims/boxer_point_doctor_r.jpg,audio/patsupikudokipipo.mp3,"残念！ こちらが正しい画像です。

否定文は起きていないことを示しているのを思い出してください。",,,,,,,,,,,,,,,,,,,,,,,,,,,,,,,,,,,,,,,,,,,,,,,,,,,,
,,,,,,,,,R_2ATjyKyPgAt7gCD,2022-11-23_18h37.07.359,jpn_C01,2022.1.2,MacIntel,62.5,,,,,,,,,,,,,CartoonStims/boxer_point_artist_r_no.jpg,,,,,,,,,,,,,,,,,,,,,,,,,,,,,space,6.217,トマ　ピク　ドキ　シド,right,15.649,,,,,,0,0,0,11,1,,,,,,,,,,,,,,,,,,,,,,,,,,,,,,ピク　トマ　ドキ　シド,トマ　ピク　ドキ　シド,1
,,,,,,,,,R_2ATjyKyPgAt7gCD,2022-11-23_18h37.07.359,jpn_C01,2022.1.2,MacIntel,62.5,,,,,,,,,,,,,CartoonStims/boxer_kick_cowboy_r.jpg,,,,,,,,,,,,,,,,,,,,,,,,,,,,,,,ピク　セル,right,7.662,,,,,,0,1,1,26,1,,,,,,,,,,,,,,,,,,,,,,,,,,,,,,セル　ドキ　ムク,セル　ドキ　ムク,0
,,,,,,,,,R_2ATjyKyPgAt7gCD,2022-11-23_18h37.07.359,jpn_C01,2022.1.2,MacIntel,62.5,,,,,,,,,,,,,CartoonStims/cowboy_punch_artist_r_no.jpg,,,,,,,,,,,,,,,,,,,,,,,,,,,,,,,,right,0.128,,,,,,0,2,2,21,1,,,,,,,,,,,,,,,,,,,,,,,,,,,,,,ピク　プミ　ムク　シド,プミ　ピク　ムク　シド,1
,,,,,,,,,R_2ATjyKyPgAt7gCD,2022-11-23_18h37.07.359,jpn_C01,2022.1.2,MacIntel,62.5,,,,,,,,,,,,,CartoonStims/doctor_kick_chef_r.jpg,,,,,,,,,,,,,,,,,,,,,,,,,,,,,,,ピク　セル　ピポ　ホレト,right,14.282,,,,,,0,3,3,25,1,,,,,,,,,,,,,,,,,,,,,,,,,,,,,,セル　ピポ　ホレト,セル　ピポ　ホレト,0
,,,,,,,,,R_2ATjyKyPgAt7gCD,2022-11-23_18h37.07.359,jpn_C01,2022.1.2,MacIntel,62.5,,,,,,,,,,,,,CartoonStims/cowboy_point_doctor_r_no.jpg,,,,,,,,,,,,,,,,,,,,,,,,,,,,,,,ピク　トマ　ムク　ピポ,right,13.861,,,,,,0,4,4,9,1,,,,,,,,,,,,,,,,,,,,,,,,,,,,,,ピク　トマ　ムク　ピポ,トマ　ピク　ムク　ピポ,1
,,,,,,,,,R_2ATjyKyPgAt7gCD,2022-11-23_18h37.07.359,jpn_C01,2022.1.2,MacIntel,62.5,,,,,,,,,,,,,CartoonStims/burglar_shoot_cowboy_r_no.jpg,,,,,,,,,,,,,,,,,,,,,,,,,,,,,,,ピク　パツ　ルピン　ムク,right,12.708,,,,,,0,5,5,13,1,,,,,,,,,,,,,,,,,,,,,,,,,,,,,,ピク　パツ　ルピン　ムク,パツ　ピク　ルピン　ムク,1
,,,,,,,,,R_2ATjyKyPgAt7gCD,2022-11-23_18h37.07.359,jpn_C01,2022.1.2,MacIntel,62.5,,,,,,,,,,,,,CartoonStims/doctor_shoot_artist_r_no.jpg,,,,,,,,,,,,,,,,,,,,,,,,,,,,,,,ピク　パツ　ピポ　シド,right,13.541,,,,,,0,6,6,16,1,,,,,,,,,,,,,,,,,,,,,,,,,,,,,,ピク　パツ　ピポ　シド,パツ　ピク　ピポ　シド,1
,,,,,,,,,R_2ATjyKyPgAt7gCD,2022-11-23_18h37.07.359,jpn_C01,2022.1.2,MacIntel,62.5,,,,,,,,,,,,,CartoonStims/chef_point_cowboy_r_no.jpg,,,,,,,,,,,,,,,,,,,,,,,,,,,,,,,ピク　トマ　ホレト　ムク,right,11.943,,,,,,0,7,7,8,1,,,,,,,,,,,,,,,,,,,,,,,,,,,,,,ピク　トマ　ホレト　ムク,トマ　ピク　ホレト　ムク,1
,,,,,,,,,R_2ATjyKyPgAt7gCD,2022-11-23_18h37.07.359,jpn_C01,2022.1.2,MacIntel,62.5,,,,,,,,,,,,,CartoonStims/artist_punch_burglar_r.jpg,,,,,,,,,,,,,,,,,,,,,,,,,,,,,,,ピク　プマ　シド　ルピン,right,24.916,,,,,,0,8,8,33,1,,,,,,,,,,,,,,,,,,,,,,,,,,,,,,プミ　シド　ルピン,プミ　シド　ルピン,0
,,,,,,,,,R_2ATjyKyPgAt7gCD,2022-11-23_18h37.07.359,jpn_C01,2022.1.2,MacIntel,62.5,,,,,,,,,,,,,CartoonStims/cowboy_kick_chef_r_no.jpg,,,,,,,,,,,,,,,,,,,,,,,,,,,,,,,ピク　セル　ムク　ホレト,right,10.675,,,,,,0,9,9,3,1,,,,,,,,,,,,,,,,,,,,,,,,,,,,,,ピク　セル　ムク　ホレト,セル　ピク　ムク　ホレト,1
,,,,,,,,,R_2ATjyKyPgAt7gCD,2022-11-23_18h37.07.359,jpn_C01,2022.1.2,MacIntel,62.5,,,,,,,,,,,,,CartoonStims/boxer_punch_artist_r.jpg,,,,,,,,,,,,,,,,,,,,,,,,,,,,,,,ピク　ドキ　シド,right,22.477,,,,,,0,10,10,35,1,,,,,,,,,,,,,,,,,,,,,,,,,,,,,,プミ　ドキ　シド,プミ　ドキ　シド,0
,,,,,,,,,R_2ATjyKyPgAt7gCD,2022-11-23_18h37.07.359,jpn_C01,2022.1.2,MacIntel,62.5,,,,,,,,,,,,,CartoonStims/artist_kick_boxer_r_no.jpg,,,,,,,,,,,,,,,,,,,,,,,,,,,,,,,ピク　セル　シド　ドキ,right,9.012,,,,,,0,11,11,0,1,,,,,,,,,,,,,,,,,,,,,,,,,,,,,,ピク　セル　シド　ドキ,セル　ピク　シド　ドキ,1
,,,,,,,,,R_2ATjyKyPgAt7gCD,2022-11-23_18h37.07.359,jpn_C01,2022.1.2,MacIntel,62.5,,,,,,,,,,,,,CartoonStims/cowboy_shoot_boxer_r_no.jpg,,,,,,,,,,,,,,,,,,,,,,,,,,,,,,,ピク　パツ　ムク　ドキ,right,12.524,,,,,,0,12,12,15,1,,,,,,,,,,,,,,,,,,,,,,,,,,,,,,ピク　パツ　ムク　ドキ,パツ　ピク　ムク　ドキ,1
,,,,,,,,,R_2ATjyKyPgAt7gCD,2022-11-23_18h37.07.359,jpn_C01,2022.1.2,MacIntel,62.5,,,,,,,,,,,,,CartoonStims/chef_kick_burglar_r_no.jpg,,,,,,,,,,,,,,,,,,,,,,,,,,,,,,,ピク　セル　ホレト　ルピン,right,11.962,,,,,,0,13,13,2,1,,,,,,,,,,,,,,,,,,,,,,,,,,,,,,ピク　セル　ホレト　ルピン,セル　ピク　ホレト　ルピン,1
,,,,,,,,,R_2ATjyKyPgAt7gCD,2022-11-23_18h37.07.359,jpn_C01,2022.1.2,MacIntel,62.5,,,,,,,,,,,,,CartoonStims/doctor_punch_burglar_r_no.jpg,,,,,,,,,,,,,,,,,,,,,,,,,,,,,,,ピク　プシ　ピポ　ルピン,right,18.746,,,,,,0,14,14,22,1,,,,,,,,,,,,,,,,,,,,,,,,,,,,,,ピク　プミ　ピポ　ルピン,プミ　ピク　ピポ　ルピン,1
,,,,,,,,,R_2ATjyKyPgAt7gCD,2022-11-23_18h37.07.359,jpn_C01,2022.1.2,MacIntel,62.5,,,,,,,,,,,,,CartoonStims/chef_shoot_cowboy_r.jpg,,,,,,,,,,,,,,,,,,,,,,,,,,,,,,,ピク　パツ　ホレト　ムク,right,12.96,,,,,,0,15,15,31,1,,,,,,,,,,,,,,,,,,,,,,,,,,,,,,パツ　ホレト　ムク,パツ　ホレト　ムク,0
,,,,,,,,,R_2ATjyKyPgAt7gCD,2022-11-23_18h37.07.359,jpn_C01,2022.1.2,MacIntel,62.5,,,,,,,,,,,,,CartoonStims/chef_punch_boxer_r_no.jpg,,,,,,,,,,,,,,,,,,,,,,,,,,,,,,,ピク　プシ　ホレト　ドキ,right,17.088,,,,,,0,16,16,20,1,,,,,,,,,,,,,,,,,,,,,,,,,,,,,,ピク　プミ　ホレト　ドキ,プミ　ピク　ホレト　ドキ,1
,,,,,,,,,R_2ATjyKyPgAt7gCD,2022-11-23_18h37.07.359,jpn_C01,2022.1.2,MacIntel,62.5,,,,,,,,,,,,,CartoonStims/doctor_punch_boxer_r.jpg,,,,,,,,,,,,,,,,,,,,,,,,,,,,,,,ピク　プシ　ピポ　ドキ,right,10.286,,,,,,0,17,17,34,1,,,,,,,,,,,,,,,,,,,,,,,,,,,,,,プミ　ピポ　ドキ,プミ　ピポ　ドキ,0
,,,,,,,,,R_2ATjyKyPgAt7gCD,2022-11-23_18h37.07.359,jpn_C01,2022.1.2,MacIntel,62.5,,,,,,,,,,,,,CartoonStims/cowboy_shoot_doctor_r.jpg,,,,,,,,,,,,,,,,,,,,,,,,,,,,,,,ピク　パツ　ムク　ピポ,right,13.226,,,,,,0,18,18,32,1,,,,,,,,,,,,,,,,,,,,,,,,,,,,,,パツ　ムク　ピポ,パツ　ムク　ピポ,0
,,,,,,,,,R_2ATjyKyPgAt7gCD,2022-11-23_18h37.07.359,jpn_C01,2022.1.2,MacIntel,62.5,,,,,,,,,,,,,CartoonStims/boxer_kick_doctor_r_no.jpg,,,,,,,,,,,,,,,,,,,,,,,,,,,,,,,ピク　セル　ドキ　ピポ,right,9.676,,,,,,0,19,19,5,1,,,,,,,,,,,,,,,,,,,,,,,,,,,,,,ピク　セル　ドキ　ピポ,セル　ピク　ドキ　ピポ,1
,,,,,,,,,R_2ATjyKyPgAt7gCD,2022-11-23_18h37.07.359,jpn_C01,2022.1.2,MacIntel,62.5,,,,,,,,,,,,,CartoonStims/artist_shoot_chef_r_no.jpg,,,,,,,,,,,,,,,,,,,,,,,,,,,,,,,ピク　パツ　シド　ホレト,right,13.907,,,,,,0,20,20,12,1,,,,,,,,,,,,,,,,,,,,,,,,,,,,,,ピク　パツ　シド　ホレト,パツ　ピク　シド　ホレト,1
,,,,,,,,,R_2ATjyKyPgAt7gCD,2022-11-23_18h37.07.359,jpn_C01,2022.1.2,MacIntel,62.5,,,,,,,,,,,,,CartoonStims/doctor_kick_cowboy_r_no.jpg,,,,,,,,,,,,,,,,,,,,,,,,,,,,,,,ピク　セル　ピポ　ムク,right,8.177,,,,,,0,21,21,4,1,,,,,,,,,,,,,,,,,,,,,,,,,,,,,,ピク　セル　ピポ　ムク,セル　ピク　ピポ　ムク,1
,,,,,,,,,R_2ATjyKyPgAt7gCD,2022-11-23_18h37.07.359,jpn_C01,2022.1.2,MacIntel,62.5,,,,,,,,,,,,,CartoonStims/boxer_shoot_burglar_r_no.jpg,,,,,,,,,,,,,,,,,,,,,,,,,,,,,,,ピク　パシ　ドキ　ルピン,right,12.444,,,,,,0,22,22,17,1,,,,,,,,,,,,,,,,,,,,,,,,,,,,,,ピク　パツ　ドキ　ルピン,パツ　ピク　ドキ　ルピン,1
,,,,,,,,,R_2ATjyKyPgAt7gCD,2022-11-23_18h37.07.359,jpn_C01,2022.1.2,MacIntel,62.5,,,,,,,,,,,,,CartoonStims/artist_point_burglar_r_no.jpg,,,,,,,,,,,,,,,,,,,,,,,,,,,,,,,ピク　トマ　シド　ルピン,right,8.609,,,,,,0,23,23,6,1,,,,,,,,,,,,,,,,,,,,,,,,,,,,,,ピク　トマ　シド　ルピン,トマ　ピク　シド　ルピン,1
,,,,,,,,,R_2ATjyKyPgAt7gCD,2022-11-23_18h37.07.359,jpn_C01,2022.1.2,MacIntel,62.5,,,,,,,,,,,,,CartoonStims/artist_point_boxer_r.jpg,,,,,,,,,,,,,,,,,,,,,,,,,,,,,,,ピク　トマ　シド　ドキ,right,8.045,,,,,,0,24,24,27,1,,,,,,,,,,,,,,,,,,,,,,,,,,,,,,トマ　シド　ドキ,トマ　シド　ドキ,0
,,,,,,,,,R_2ATjyKyPgAt7gCD,2022-11-23_18h37.07.359,jpn_C01,2022.1.2,MacIntel,62.5,,,,,,,,,,,,,CartoonStims/burglar_shoot_chef_r.jpg,,,,,,,,,,,,,,,,,,,,,,,,,,,,,,,ピク　パシ　ルピン　ホレト,right,11.745,,,,,,0,25,25,30,1,,,,,,,,,,,,,,,,,,,,,,,,,,,,,,パツ　ルピン　ホレト,パツ　ルピン　ホレト,0
,,,,,,,,,R_2ATjyKyPgAt7gCD,2022-11-23_18h37.07.359,jpn_C01,2022.1.2,MacIntel,62.5,,,,,,,,,,,,,CartoonStims/doctor_point_boxer_r_no.jpg,,,,,,,,,,,,,,,,,,,,,,,,,,,,,,,ピク　トマ　ピポ　ドキ,right,8.875,,,,,,0,26,26,10,1,,,,,,,,,,,,,,,,,,,,,,,,,,,,,,ピク　トマ　ピポ　ドキ,トマ　ピク　ピポ　ドキ,1
,,,,,,,,,R_2ATjyKyPgAt7gCD,2022-11-23_18h37.07.359,jpn_C01,2022.1.2,MacIntel,62.5,,,,,,,,,,,,,CartoonStims/burglar_point_chef_r_no.jpg,,,,,,,,,,,,,,,,,,,,,,,,,,,,,,,ピク　トマ　ルピン　ホレト,right,8.393,,,,,,0,27,27,7,1,,,,,,,,,,,,,,,,,,,,,,,,,,,,,,ピク　トマ　ルピン　ホレト,トマ　ピク　ルピン　ホレト,1
,,,,,,,,,R_2ATjyKyPgAt7gCD,2022-11-23_18h37.07.359,jpn_C01,2022.1.2,MacIntel,62.5,,,,,,,,,,,,,CartoonStims/cowboy_kick_burglar_r.jpg,,,,,,,,,,,,,,,,,,,,,,,,,,,,,,,ピク　セル　ムク　ルピン,right,9.111,,,,,,0,28,28,24,1,,,,,,,,,,,,,,,,,,,,,,,,,,,,,,セル　ムク　ルピン,セル　ムク　ルピン,0
,,,,,,,,,R_2ATjyKyPgAt7gCD,2022-11-23_18h37.07.359,jpn_C01,2022.1.2,MacIntel,62.5,,,,,,,,,,,,,CartoonStims/boxer_punch_chef_r_no.jpg,,,,,,,,,,,,,,,,,,,,,,,,,,,,,,,ピク　パシ　ドキ　ホレト,right,11.792,,,,,,0,29,29,23,1,,,,,,,,,,,,,,,,,,,,,,,,,,,,,,ピク　プミ　ドキ　ホレト,プミ　ピク　ドキ　ホレト,1
,,,,,,,,,R_2ATjyKyPgAt7gCD,2022-11-23_18h37.07.359,jpn_C01,2022.1.2,MacIntel,62.5,,,,,,,,,,,,,CartoonStims/burglar_point_artist_r.jpg,,,,,,,,,,,,,,,,,,,,,,,,,,,,,,,ピク　トマ　ルピン　シド,right,15.031,,,,,,0,30,30,28,1,,,,,,,,,,,,,,,,,,,,,,,,,,,,,,トマ　ルピン　シド,トマ　ルピン　シド,0
,,,,,,,,,R_2ATjyKyPgAt7gCD,2022-11-23_18h37.07.359,jpn_C01,2022.1.2,MacIntel,62.5,,,,,,,,,,,,,CartoonStims/chef_point_burglar_r.jpg,,,,,,,,,,,,,,,,,,,,,,,,,,,,,,,ピク　トマ　ホレト　ルピン,right,7.614,,,,,,0,31,31,29,1,,,,,,,,,,,,,,,,,,,,,,,,,,,,,,トマ　ホレト　ルピン,トマ　ホレト　ルピン,0
,,,,,,,,,R_2ATjyKyPgAt7gCD,2022-11-23_18h37.07.359,jpn_C01,2022.1.2,MacIntel,62.5,,,,,,,,,,,,,CartoonStims/burglar_punch_doctor_r_no.jpg,,,,,,,,,,,,,,,,,,,,,,,,,,,,,,,ピク　パシ　ルピン　ピポ,right,9.474,,,,,,0,32,32,19,1,,,,,,,,,,,,,,,,,,,,,,,,,,,,,,ピク　プミ　ルピン　ピポ,プミ　ピク　ルピン　ピポ,1
,,,,,,,,,R_2ATjyKyPgAt7gCD,2022-11-23_18h37.07.359,jpn_C01,2022.1.2,MacIntel,62.5,,,,,,,,,,,,,CartoonStims/artist_punch_cowboy_r_no.jpg,,,,,,,,,,,,,,,,,,,,,,,,,,,,,,,ピク　パシ　シド　ムク,right,9.081,,,,,,0,33,33,18,1,,,,,,,,,,,,,,,,,,,,,,,,,,,,,,ピク　プミ　シド　ムク,プミ　ピク　シド　ムク,1
,,,,,,,,,R_2ATjyKyPgAt7gCD,2022-11-23_18h37.07.359,jpn_C01,2022.1.2,MacIntel,62.5,,,,,,,,,,,,,CartoonStims/burglar_kick_artist_r_no.jpg,,,,,,,,,,,,,,,,,,,,,,,,,,,,,,,ピク　セル　ルピン　シド,right,12.727,,,,,,0,34,34,1,1,,,,,,,,,,,,,,,,,,,,,,,,,,,,,,ピク　セル　ルピン　シド,セル　ピク　ルピン　シド,1
,,,,,,,,,R_2ATjyKyPgAt7gCD,2022-11-23_18h37.07.359,jpn_C01,2022.1.2,MacIntel,62.5,,,,,,,,,,,,,CartoonStims/chef_shoot_doctor_r_no.jpg,,,,,,,,,,,,,,,,,,,,,,,,,,,,,,,ピク　パシ　ホレト　ピポ,right,8.346,,,,,,0,35,35,14,1,,,,,,,,,,,,,,,,,,,,,,,,,,,,,,ピク　パツ　ホレト　ピポ,パツ　ピク　ホレト　ピポ,1
,,,,,,,,,R_2ATjyKyPgAt7gCD,2022-11-23_18h37.07.359,jpn_C01,2022.1.2,MacIntel,62.5,,,,,,,,,,,,,,,,,,,,,,,,,,,,,,,,,,,,,,,,,,,,,,,,,,,,,,,,,,,space,2.285,0,2,2,2,1,EquiprobableCondition.xlsx,"ここではこの言語における否定の文を学習していただきます。引き続き注意して、 聞こえた音を復唱してください。

スペースキーを押してください。",1,EquiFCT.xlsx,ここからクイズが始まります。 スクリーンに表示されるテキストに合うイメージを選んでください。,NegTest.xlsx,1,最後にここまで学んだことをアウトプットしていただきます。 テキストボックスにあるイメージを描写するテキストを入力してください。 このタスクでは、 答え合わせは行いません。,0,これですべての実験が終わりました。 お疲れさまです。 この後はアンケートに答えていただきます。,,,,,,,,,,,,,