key_resp_instr_a.keys,key_resp_instr_a.rt,key_resp_instr_b.keys,key_resp_instr_b.rt,dummy.thisRepN,dummy.thisTrialN,dummy.thisN,dummy.thisIndex,dummy.ran,participant,date,expName,psychopyVersion,OS,frameRate,key_resp_instr1.keys,key_resp_instr1.rt,key_resp.keys,key_resp.rt,exp_loop.thisRepN,exp_loop.thisTrialN,exp_loop.thisN,exp_loop.thisIndex,exp_loop.ran,Word,English,Flip,Path,Audio,key_resp_instr2.keys,key_resp_instr2.rt,key_resp_fct.keys,key_resp_fct.corr,key_resp_fct.rt,trials.thisRepN,trials.thisTrialN,trials.thisN,trials.thisIndex,trials.ran,fct_loop.thisRepN,fct_loop.thisTrialN,fct_loop.thisN,fct_loop.thisIndex,fct_loop.ran,left_img,word,right_img,correctans,correct_img,audio,incorrect_feedback,trials_2.thisRepN,trials_2.thisTrialN,trials_2.thisN,trials_2.thisIndex,trials_2.ran,key_resp_instr3.keys,key_resp_instr3.rt,textbox.text,key_resp_2.keys,key_resp_2.rt,fb_yn.thisRepN,fb_yn.thisTrialN,fb_yn.thisN,fb_yn.thisIndex,fb_yn.ran,gather_loop.thisRepN,gather_loop.thisTrialN,gather_loop.thisN,gather_loop.thisIndex,gather_loop.ran,Text,Wordbank,key_resp_instr4.keys,key_resp_instr4.rt,master_loop.thisRepN,master_loop.thisTrialN,master_loop.thisN,master_loop.thisIndex,master_loop.ran,exposure_file,instr_1,exp_reps,fct_file,instr_2,gather_file,gather_reps,instr_3,fReps,instr_4,trials_4.thisRepN,trials_4.thisTrialN,trials_4.thisN,trials_4.thisIndex,trials_4.ran,NegVSentence,VNegSentence,NegTF
space,8.827,space,7.442,0,0,0,0,1,R_PY9yvBjC7fW34RP,2022-09-08_12h55.21.611,jpn_C03,2022.1.2,MacIntel,62.5,,,,,,,,,,,,,,,,,,,,,,,,,,,,,,,,,,,,,,,,,,,,,,,,,,,,,,,,,,,,,,,,,,,,,,,,,,,,,,,,,,,
,,,,,,,,,R_PY9yvBjC7fW34RP,2022-09-08_12h55.21.611,jpn_C03,2022.1.2,MacIntel,62.5,space,15.775,space,5.434,0,0,0,3,1,ムク,cowboy,,CartoonStims/cowboy_r.jpg,audio/muku.mp3,,,,,,,,,,,,,,,,,,,,,,,,,,,,,,,,,,,,,,,,,,,,,,,,,,,,,,,,,,,,,,,,,,,,,
,,,,,,,,,R_PY9yvBjC7fW34RP,2022-09-08_12h55.21.611,jpn_C03,2022.1.2,MacIntel,62.5,,,space,8.481,0,1,1,0,1,シド,artist,,CartoonStims/artist_r.jpg,audio/sido.mp3,,,,,,,,,,,,,,,,,,,,,,,,,,,,,,,,,,,,,,,,,,,,,,,,,,,,,,,,,,,,,,,,,,,,,
,,,,,,,,,R_PY9yvBjC7fW34RP,2022-09-08_12h55.21.611,jpn_C03,2022.1.2,MacIntel,62.5,,,space,5.444,0,2,2,2,1,ホレト,chef,,CartoonStims/chef_r.jpg,audio/horeto.mp3,,,,,,,,,,,,,,,,,,,,,,,,,,,,,,,,,,,,,,,,,,,,,,,,,,,,,,,,,,,,,,,,,,,,,
,,,,,,,,,R_PY9yvBjC7fW34RP,2022-09-08_12h55.21.611,jpn_C03,2022.1.2,MacIntel,62.5,,,space,7.233,0,3,3,5,1,ドキ,boxer,,CartoonStims/boxer_r.jpg,audio/doki.mp3,,,,,,,,,,,,,,,,,,,,,,,,,,,,,,,,,,,,,,,,,,,,,,,,,,,,,,,,,,,,,,,,,,,,,
,,,,,,,,,R_PY9yvBjC7fW34RP,2022-09-08_12h55.21.611,jpn_C03,2022.1.2,MacIntel,62.5,,,space,5.367,0,4,4,4,1,ピポ,doctor,,CartoonStims/doctor_r.jpg,audio/pipo.mp3,,,,,,,,,,,,,,,,,,,,,,,,,,,,,,,,,,,,,,,,,,,,,,,,,,,,,,,,,,,,,,,,,,,,,
,,,,,,,,,R_PY9yvBjC7fW34RP,2022-09-08_12h55.21.611,jpn_C03,2022.1.2,MacIntel,62.5,,,space,8.49,0,5,5,1,1,ルピン,burglar,,CartoonStims/burglar_r.jpg,audio/lupin.mp3,,,,,,,,,,,,,,,,,,,,,,,,,,,,,,,,,,,,,,,,,,,,,,,,,,,,,,,,,,,,,,,,,,,,,
,,,,,,,,,R_PY9yvBjC7fW34RP,2022-09-08_12h55.21.611,jpn_C03,2022.1.2,MacIntel,62.5,,,space,7.567,1,0,6,0,1,シド,artist,,CartoonStims/artist_r.jpg,audio/sido.mp3,,,,,,,,,,,,,,,,,,,,,,,,,,,,,,,,,,,,,,,,,,,,,,,,,,,,,,,,,,,,,,,,,,,,,
,,,,,,,,,R_PY9yvBjC7fW34RP,2022-09-08_12h55.21.611,jpn_C03,2022.1.2,MacIntel,62.5,,,space,5.02,1,1,7,4,1,ピポ,doctor,,CartoonStims/doctor_r.jpg,audio/pipo.mp3,,,,,,,,,,,,,,,,,,,,,,,,,,,,,,,,,,,,,,,,,,,,,,,,,,,,,,,,,,,,,,,,,,,,,
,,,,,,,,,R_PY9yvBjC7fW34RP,2022-09-08_12h55.21.611,jpn_C03,2022.1.2,MacIntel,62.5,,,space,9.853,1,2,8,3,1,ムク,cowboy,,CartoonStims/cowboy_r.jpg,audio/muku.mp3,,,,,,,,,,,,,,,,,,,,,,,,,,,,,,,,,,,,,,,,,,,,,,,,,,,,,,,,,,,,,,,,,,,,,
,,,,,,,,,R_PY9yvBjC7fW34RP,2022-09-08_12h55.21.611,jpn_C03,2022.1.2,MacIntel,62.5,,,space,1.033,1,3,9,1,1,ルピン,burglar,,CartoonStims/burglar_r.jpg,audio/lupin.mp3,,,,,,,,,,,,,,,,,,,,,,,,,,,,,,,,,,,,,,,,,,,,,,,,,,,,,,,,,,,,,,,,,,,,,
,,,,,,,,,R_PY9yvBjC7fW34RP,2022-09-08_12h55.21.611,jpn_C03,2022.1.2,MacIntel,62.5,,,space,8.617,1,4,10,2,1,ホレト,chef,,CartoonStims/chef_r.jpg,audio/horeto.mp3,,,,,,,,,,,,,,,,,,,,,,,,,,,,,,,,,,,,,,,,,,,,,,,,,,,,,,,,,,,,,,,,,,,,,
,,,,,,,,,R_PY9yvBjC7fW34RP,2022-09-08_12h55.21.611,jpn_C03,2022.1.2,MacIntel,62.5,,,space,6.567,1,5,11,5,1,ドキ,boxer,,CartoonStims/boxer_r.jpg,audio/doki.mp3,,,,,,,,,,,,,,,,,,,,,,,,,,,,,,,,,,,,,,,,,,,,,,,,,,,,,,,,,,,,,,,,,,,,,
,,,,,,,,,R_PY9yvBjC7fW34RP,2022-09-08_12h55.21.611,jpn_C03,2022.1.2,MacIntel,62.5,,,space,1.662,2,0,12,3,1,ムク,cowboy,,CartoonStims/cowboy_r.jpg,audio/muku.mp3,,,,,,,,,,,,,,,,,,,,,,,,,,,,,,,,,,,,,,,,,,,,,,,,,,,,,,,,,,,,,,,,,,,,,
,,,,,,,,,R_PY9yvBjC7fW34RP,2022-09-08_12h55.21.611,jpn_C03,2022.1.2,MacIntel,62.5,,,space,4.809,2,1,13,2,1,ホレト,chef,,CartoonStims/chef_r.jpg,audio/horeto.mp3,,,,,,,,,,,,,,,,,,,,,,,,,,,,,,,,,,,,,,,,,,,,,,,,,,,,,,,,,,,,,,,,,,,,,
,,,,,,,,,R_PY9yvBjC7fW34RP,2022-09-08_12h55.21.611,jpn_C03,2022.1.2,MacIntel,62.5,,,space,0.376,2,2,14,1,1,ルピン,burglar,,CartoonStims/burglar_r.jpg,audio/lupin.mp3,,,,,,,,,,,,,,,,,,,,,,,,,,,,,,,,,,,,,,,,,,,,,,,,,,,,,,,,,,,,,,,,,,,,,
,,,,,,,,,R_PY9yvBjC7fW34RP,2022-09-08_12h55.21.611,jpn_C03,2022.1.2,MacIntel,62.5,,,space,1.289,2,3,15,5,1,ドキ,boxer,,CartoonStims/boxer_r.jpg,audio/doki.mp3,,,,,,,,,,,,,,,,,,,,,,,,,,,,,,,,,,,,,,,,,,,,,,,,,,,,,,,,,,,,,,,,,,,,,
,,,,,,,,,R_PY9yvBjC7fW34RP,2022-09-08_12h55.21.611,jpn_C03,2022.1.2,MacIntel,62.5,,,space,0.99,2,4,16,4,1,ピポ,doctor,,CartoonStims/doctor_r.jpg,audio/pipo.mp3,,,,,,,,,,,,,,,,,,,,,,,,,,,,,,,,,,,,,,,,,,,,,,,,,,,,,,,,,,,,,,,,,,,,,
,,,,,,,,,R_PY9yvBjC7fW34RP,2022-09-08_12h55.21.611,jpn_C03,2022.1.2,MacIntel,62.5,,,space,0.672,2,5,17,0,1,シド,artist,,CartoonStims/artist_r.jpg,audio/sido.mp3,,,,,,,,,,,,,,,,,,,,,,,,,,,,,,,,,,,,,,,,,,,,,,,,,,,,,,,,,,,,,,,,,,,,,
,,,,,,,,,R_PY9yvBjC7fW34RP,2022-09-08_12h55.21.611,jpn_C03,2022.1.2,MacIntel,62.5,,,,,,,,,,,,,,,space,3.127,left,1,0.979,0,0,0,0,1,,,,,,,,,,,,,,,,,,,,,,,,,,,,,,,,,,,,,,,,,,,,,,,,,,,,,,,,,,,
,,,,,,,,,R_PY9yvBjC7fW34RP,2022-09-08_12h55.21.611,jpn_C03,2022.1.2,MacIntel,62.5,,,,,,,,,,,,,,,,,,,,,,,,,0,0,0,5,1,CartoonStims/boxer_r.jpg,ドキ,CartoonStims/artist_r.jpg,left,CartoonStims/boxer_r.jpg,audio/doki.mp3,残念！ こちらが正しい画像です。,,,,,,,,,,,,,,,,,,,,,,,,,,,,,,,,,,,,,,,,,,,,,,,
,,,,,,,,,R_PY9yvBjC7fW34RP,2022-09-08_12h55.21.611,jpn_C03,2022.1.2,MacIntel,62.5,,,,,,,,,,,,,,,,,left,1,0.875,0,0,0,0,1,,,,,,,,,,,,,,,,,,,,,,,,,,,,,,,,,,,,,,,,,,,,,,,,,,,,,,,,,,,
,,,,,,,,,R_PY9yvBjC7fW34RP,2022-09-08_12h55.21.611,jpn_C03,2022.1.2,MacIntel,62.5,,,,,,,,,,,,,,,,,,,,,,,,,0,1,1,4,1,CartoonStims/doctor_r.jpg,ピポ,CartoonStims/boxer_r.jpg,left,CartoonStims/doctor_r.jpg,audio/pipo.mp3,残念！ こちらが正しい画像です。,,,,,,,,,,,,,,,,,,,,,,,,,,,,,,,,,,,,,,,,,,,,,,,
,,,,,,,,,R_PY9yvBjC7fW34RP,2022-09-08_12h55.21.611,jpn_C03,2022.1.2,MacIntel,62.5,,,,,,,,,,,,,,,,,right,1,0.435,,,,,,,,,,,,,,,,,,0,0,0,0,1,,,,,,,,,,,,,,,,,,,,,,,,,,,,,,,,,,,,,,,,,,
,,,,,,,,,R_PY9yvBjC7fW34RP,2022-09-08_12h55.21.611,jpn_C03,2022.1.2,MacIntel,62.5,,,,,,,,,,,,,,,,,,,,,,,,,0,2,2,6,1,CartoonStims/chef_r.jpg,シド,CartoonStims/artist_r.jpg,right,CartoonStims/artist_r.jpg,audio/sido.mp3,残念！ こちらが正しい画像です。,,,,,,,,,,,,,,,,,,,,,,,,,,,,,,,,,,,,,,,,,,,,,,,
,,,,,,,,,R_PY9yvBjC7fW34RP,2022-09-08_12h55.21.611,jpn_C03,2022.1.2,MacIntel,62.5,,,,,,,,,,,,,,,,,left,1,0.45,0,0,0,0,1,,,,,,,,,,,,,,,,,,,,,,,,,,,,,,,,,,,,,,,,,,,,,,,,,,,,,,,,,,,
,,,,,,,,,R_PY9yvBjC7fW34RP,2022-09-08_12h55.21.611,jpn_C03,2022.1.2,MacIntel,62.5,,,,,,,,,,,,,,,,,,,,,,,,,0,3,3,3,1,CartoonStims/cowboy_r.jpg,ムク,CartoonStims/doctor_r.jpg,left,CartoonStims/cowboy_r.jpg,audio/muku.mp3,残念！ こちらが正しい画像です。,,,,,,,,,,,,,,,,,,,,,,,,,,,,,,,,,,,,,,,,,,,,,,,
,,,,,,,,,R_PY9yvBjC7fW34RP,2022-09-08_12h55.21.611,jpn_C03,2022.1.2,MacIntel,62.5,,,,,,,,,,,,,,,,,right,1,0.602,,,,,,,,,,,,,,,,,,0,0,0,0,1,,,,,,,,,,,,,,,,,,,,,,,,,,,,,,,,,,,,,,,,,,
,,,,,,,,,R_PY9yvBjC7fW34RP,2022-09-08_12h55.21.611,jpn_C03,2022.1.2,MacIntel,62.5,,,,,,,,,,,,,,,,,,,,,,,,,0,4,4,11,1,CartoonStims/burglar_r.jpg,ドキ,CartoonStims/boxer_r.jpg,right,CartoonStims/boxer_r.jpg,audio/doki.mp3,残念！ こちらが正しい画像です。,,,,,,,,,,,,,,,,,,,,,,,,,,,,,,,,,,,,,,,,,,,,,,,
,,,,,,,,,R_PY9yvBjC7fW34RP,2022-09-08_12h55.21.611,jpn_C03,2022.1.2,MacIntel,62.5,,,,,,,,,,,,,,,,,right,1,0.786,,,,,,,,,,,,,,,,,,0,0,0,0,1,,,,,,,,,,,,,,,,,,,,,,,,,,,,,,,,,,,,,,,,,,
,,,,,,,,,R_PY9yvBjC7fW34RP,2022-09-08_12h55.21.611,jpn_C03,2022.1.2,MacIntel,62.5,,,,,,,,,,,,,,,,,,,,,,,,,0,5,5,8,1,CartoonStims/doctor_r.jpg,ホレト,CartoonStims/chef_r.jpg,right,CartoonStims/chef_r.jpg,audio/horeto.mp3,残念！ こちらが正しい画像です。,,,,,,,,,,,,,,,,,,,,,,,,,,,,,,,,,,,,,,,,,,,,,,,
,,,,,,,,,R_PY9yvBjC7fW34RP,2022-09-08_12h55.21.611,jpn_C03,2022.1.2,MacIntel,62.5,,,,,,,,,,,,,,,,,right,1,0.883,,,,,,,,,,,,,,,,,,0,0,0,0,1,,,,,,,,,,,,,,,,,,,,,,,,,,,,,,,,,,,,,,,,,,
,,,,,,,,,R_PY9yvBjC7fW34RP,2022-09-08_12h55.21.611,jpn_C03,2022.1.2,MacIntel,62.5,,,,,,,,,,,,,,,,,,,,,,,,,0,6,6,9,1,CartoonStims/boxer_r.jpg,ムク,CartoonStims/cowboy_r.jpg,right,CartoonStims/cowboy_r.jpg,audio/muku.mp3,残念！ こちらが正しい画像です。,,,,,,,,,,,,,,,,,,,,,,,,,,,,,,,,,,,,,,,,,,,,,,,
,,,,,,,,,R_PY9yvBjC7fW34RP,2022-09-08_12h55.21.611,jpn_C03,2022.1.2,MacIntel,62.5,,,,,,,,,,,,,,,,,left,1,0.439,0,0,0,0,1,,,,,,,,,,,,,,,,,,,,,,,,,,,,,,,,,,,,,,,,,,,,,,,,,,,,,,,,,,,
,,,,,,,,,R_PY9yvBjC7fW34RP,2022-09-08_12h55.21.611,jpn_C03,2022.1.2,MacIntel,62.5,,,,,,,,,,,,,,,,,,,,,,,,,0,7,7,2,1,CartoonStims/chef_r.jpg,ホレト,CartoonStims/cowboy_r.jpg,left,CartoonStims/chef_r.jpg,audio/horeto.mp3,残念！ こちらが正しい画像です。,,,,,,,,,,,,,,,,,,,,,,,,,,,,,,,,,,,,,,,,,,,,,,,
,,,,,,,,,R_PY9yvBjC7fW34RP,2022-09-08_12h55.21.611,jpn_C03,2022.1.2,MacIntel,62.5,,,,,,,,,,,,,,,,,left,1,0.675,0,0,0,0,1,,,,,,,,,,,,,,,,,,,,,,,,,,,,,,,,,,,,,,,,,,,,,,,,,,,,,,,,,,,
,,,,,,,,,R_PY9yvBjC7fW34RP,2022-09-08_12h55.21.611,jpn_C03,2022.1.2,MacIntel,62.5,,,,,,,,,,,,,,,,,,,,,,,,,0,8,8,0,1,CartoonStims/artist_r.jpg,シド,CartoonStims/burglar_r.jpg,left,CartoonStims/artist_r.jpg,audio/sido.mp3,残念！ こちらが正しい画像です。,,,,,,,,,,,,,,,,,,,,,,,,,,,,,,,,,,,,,,,,,,,,,,,
,,,,,,,,,R_PY9yvBjC7fW34RP,2022-09-08_12h55.21.611,jpn_C03,2022.1.2,MacIntel,62.5,,,,,,,,,,,,,,,,,right,1,0.15,,,,,,,,,,,,,,,,,,0,0,0,0,1,,,,,,,,,,,,,,,,,,,,,,,,,,,,,,,,,,,,,,,,,,
,,,,,,,,,R_PY9yvBjC7fW34RP,2022-09-08_12h55.21.611,jpn_C03,2022.1.2,MacIntel,62.5,,,,,,,,,,,,,,,,,,,,,,,,,0,9,9,7,1,CartoonStims/cowboy_r.jpg,ルピン,CartoonStims/burglar_r.jpg,right,CartoonStims/burglar_r.jpg,audio/lupin.mp3,残念！ こちらが正しい画像です。,,,,,,,,,,,,,,,,,,,,,,,,,,,,,,,,,,,,,,,,,,,,,,,
,,,,,,,,,R_PY9yvBjC7fW34RP,2022-09-08_12h55.21.611,jpn_C03,2022.1.2,MacIntel,62.5,,,,,,,,,,,,,,,,,left,1,0.11,0,0,0,0,1,,,,,,,,,,,,,,,,,,,,,,,,,,,,,,,,,,,,,,,,,,,,,,,,,,,,,,,,,,,
,,,,,,,,,R_PY9yvBjC7fW34RP,2022-09-08_12h55.21.611,jpn_C03,2022.1.2,MacIntel,62.5,,,,,,,,,,,,,,,,,,,,,,,,,0,10,10,1,1,CartoonStims/burglar_r.jpg,ルピン,CartoonStims/chef_r.jpg,left,CartoonStims/burglar_r.jpg,audio/lupin.mp3,残念！ こちらが正しい画像です。,,,,,,,,,,,,,,,,,,,,,,,,,,,,,,,,,,,,,,,,,,,,,,,
,,,,,,,,,R_PY9yvBjC7fW34RP,2022-09-08_12h55.21.611,jpn_C03,2022.1.2,MacIntel,62.5,,,,,,,,,,,,,,,,,right,1,0.49,,,,,,,,,,,,,,,,,,0,0,0,0,1,,,,,,,,,,,,,,,,,,,,,,,,,,,,,,,,,,,,,,,,,,
,,,,,,,,,R_PY9yvBjC7fW34RP,2022-09-08_12h55.21.611,jpn_C03,2022.1.2,MacIntel,62.5,,,,,,,,,,,,,,,,,,,,,,,,,0,11,11,10,1,CartoonStims/artist_r.jpg,ピポ,CartoonStims/doctor_r.jpg,right,CartoonStims/doctor_r.jpg,audio/pipo.mp3,残念！ こちらが正しい画像です。,,,,,,,,,,,,,,,,,,,,,,,,,,,,,,,,,,,,,,,,,,,,,,,
,,,,,,,,,R_PY9yvBjC7fW34RP,2022-09-08_12h55.21.611,jpn_C03,2022.1.2,MacIntel,62.5,,,,,,,,,,,,,,,,,,,,,,,,,,,,,,,,,,,,,,,,,,space,9.916,,right,11.359,0,0,0,0,1,,,,,,,,,,,,,,,,,,,,,,,,,,,,,,,,
,,,,,,,,,R_PY9yvBjC7fW34RP,2022-09-08_12h55.21.611,jpn_C03,2022.1.2,MacIntel,62.5,,,,,,,,,,,,,CartoonStims/boxer_r.jpg,audio/doki.mp3,,,,,,,,,,,,,,,,,,,,,,,,,,,,,,,,,,,,,,0,0,0,5,1,ドキ,,,,,,,,,,,,,,,,,,,,,,,,,,
,,,,,,,,,R_PY9yvBjC7fW34RP,2022-09-08_12h55.21.611,jpn_C03,2022.1.2,MacIntel,62.5,,,,,,,,,,,,,,,,,,,,,,,,,,,,,,,,,,,,,,,,,,,,ホレト,right,4.864,0,0,0,0,1,,,,,,,,,,,,,,,,,,,,,,,,,,,,,,,,
,,,,,,,,,R_PY9yvBjC7fW34RP,2022-09-08_12h55.21.611,jpn_C03,2022.1.2,MacIntel,62.5,,,,,,,,,,,,,CartoonStims/chef_r.jpg,audio/horeto.mp3,,,,,,,,,,,,,,,,,,,,,,,,,,,,,,,,,,,,,,0,1,1,2,1,ホレト,,,,,,,,,,,,,,,,,,,,,,,,,,
,,,,,,,,,R_PY9yvBjC7fW34RP,2022-09-08_12h55.21.611,jpn_C03,2022.1.2,MacIntel,62.5,,,,,,,,,,,,,,,,,,,,,,,,,,,,,,,,,,,,,,,,,,,,ムク,right,6.382,0,0,0,0,1,,,,,,,,,,,,,,,,,,,,,,,,,,,,,,,,
,,,,,,,,,R_PY9yvBjC7fW34RP,2022-09-08_12h55.21.611,jpn_C03,2022.1.2,MacIntel,62.5,,,,,,,,,,,,,CartoonStims/cowboy_r.jpg,audio/muku.mp3,,,,,,,,,,,,,,,,,,,,,,,,,,,,,,,,,,,,,,0,2,2,3,1,ムク,,,,,,,,,,,,,,,,,,,,,,,,,,
,,,,,,,,,R_PY9yvBjC7fW34RP,2022-09-08_12h55.21.611,jpn_C03,2022.1.2,MacIntel,62.5,,,,,,,,,,,,,,,,,,,,,,,,,,,,,,,,,,,,,,,,,,,,ルピン,right,4.699,0,0,0,0,1,,,,,,,,,,,,,,,,,,,,,,,,,,,,,,,,
,,,,,,,,,R_PY9yvBjC7fW34RP,2022-09-08_12h55.21.611,jpn_C03,2022.1.2,MacIntel,62.5,,,,,,,,,,,,,CartoonStims/burglar_r.jpg,audio/lupin.mp3,,,,,,,,,,,,,,,,,,,,,,,,,,,,,,,,,,,,,,0,3,3,1,1,ルピン,,,,,,,,,,,,,,,,,,,,,,,,,,
,,,,,,,,,R_PY9yvBjC7fW34RP,2022-09-08_12h55.21.611,jpn_C03,2022.1.2,MacIntel,62.5,,,,,,,,,,,,,,,,,,,,,,,,,,,,,,,,,,,,,,,,,,,,ピポ,right,3.22,0,0,0,0,1,,,,,,,,,,,,,,,,,,,,,,,,,,,,,,,,
,,,,,,,,,R_PY9yvBjC7fW34RP,2022-09-08_12h55.21.611,jpn_C03,2022.1.2,MacIntel,62.5,,,,,,,,,,,,,CartoonStims/doctor_r.jpg,audio/pipo.mp3,,,,,,,,,,,,,,,,,,,,,,,,,,,,,,,,,,,,,,0,4,4,4,1,ピポ,,,,,,,,,,,,,,,,,,,,,,,,,,
,,,,,,,,,R_PY9yvBjC7fW34RP,2022-09-08_12h55.21.611,jpn_C03,2022.1.2,MacIntel,62.5,,,,,,,,,,,,,,,,,,,,,,,,,,,,,,,,,,,,,,,,,,,,シド,right,7.383,0,0,0,0,1,,,,,,,,,,,,,,,,,,,,,,,,,,,,,,,,
,,,,,,,,,R_PY9yvBjC7fW34RP,2022-09-08_12h55.21.611,jpn_C03,2022.1.2,MacIntel,62.5,,,,,,,,,,,,,CartoonStims/artist_r.jpg,audio/sido.mp3,,,,,,,,,,,,,,,,,,,,,,,,,,,,,,,,,,,,,,0,5,5,0,1,シド,,,,,,,,,,,,,,,,,,,,,,,,,,
,,,,,,,,,R_PY9yvBjC7fW34RP,2022-09-08_12h55.21.611,jpn_C03,2022.1.2,MacIntel,62.5,,,,,,,,,,,,,,,,,,,,,,,,,,,,,,,,,,,,,,,,,,,,ドキ,right,4.232,0,0,0,0,1,,,,,,,,,,,,,,,,,,,,,,,,,,,,,,,,
,,,,,,,,,R_PY9yvBjC7fW34RP,2022-09-08_12h55.21.611,jpn_C03,2022.1.2,MacIntel,62.5,,,,,,,,,,,,,CartoonStims/boxer_r.jpg,audio/doki.mp3,,,,,,,,,,,,,,,,,,,,,,,,,,,,,,,,,,,,,,1,0,6,5,1,ドキ,,,,,,,,,,,,,,,,,,,,,,,,,,
,,,,,,,,,R_PY9yvBjC7fW34RP,2022-09-08_12h55.21.611,jpn_C03,2022.1.2,MacIntel,62.5,,,,,,,,,,,,,,,,,,,,,,,,,,,,,,,,,,,,,,,,,,,,ホレト,right,4.237,0,0,0,0,1,,,,,,,,,,,,,,,,,,,,,,,,,,,,,,,,
,,,,,,,,,R_PY9yvBjC7fW34RP,2022-09-08_12h55.21.611,jpn_C03,2022.1.2,MacIntel,62.5,,,,,,,,,,,,,CartoonStims/chef_r.jpg,audio/horeto.mp3,,,,,,,,,,,,,,,,,,,,,,,,,,,,,,,,,,,,,,1,1,7,2,1,ホレト,,,,,,,,,,,,,,,,,,,,,,,,,,
,,,,,,,,,R_PY9yvBjC7fW34RP,2022-09-08_12h55.21.611,jpn_C03,2022.1.2,MacIntel,62.5,,,,,,,,,,,,,,,,,,,,,,,,,,,,,,,,,,,,,,,,,,,,ルピン,right,3.856,0,0,0,0,1,,,,,,,,,,,,,,,,,,,,,,,,,,,,,,,,
,,,,,,,,,R_PY9yvBjC7fW34RP,2022-09-08_12h55.21.611,jpn_C03,2022.1.2,MacIntel,62.5,,,,,,,,,,,,,CartoonStims/burglar_r.jpg,audio/lupin.mp3,,,,,,,,,,,,,,,,,,,,,,,,,,,,,,,,,,,,,,1,2,8,1,1,ルピン,,,,,,,,,,,,,,,,,,,,,,,,,,
,,,,,,,,,R_PY9yvBjC7fW34RP,2022-09-08_12h55.21.611,jpn_C03,2022.1.2,MacIntel,62.5,,,,,,,,,,,,,,,,,,,,,,,,,,,,,,,,,,,,,,,,,,,,ピポ,right,4.664,0,0,0,0,1,,,,,,,,,,,,,,,,,,,,,,,,,,,,,,,,
,,,,,,,,,R_PY9yvBjC7fW34RP,2022-09-08_12h55.21.611,jpn_C03,2022.1.2,MacIntel,62.5,,,,,,,,,,,,,CartoonStims/doctor_r.jpg,audio/pipo.mp3,,,,,,,,,,,,,,,,,,,,,,,,,,,,,,,,,,,,,,1,3,9,4,1,ピポ,,,,,,,,,,,,,,,,,,,,,,,,,,
,,,,,,,,,R_PY9yvBjC7fW34RP,2022-09-08_12h55.21.611,jpn_C03,2022.1.2,MacIntel,62.5,,,,,,,,,,,,,,,,,,,,,,,,,,,,,,,,,,,,,,,,,,,,シド,right,3.563,0,0,0,0,1,,,,,,,,,,,,,,,,,,,,,,,,,,,,,,,,
,,,,,,,,,R_PY9yvBjC7fW34RP,2022-09-08_12h55.21.611,jpn_C03,2022.1.2,MacIntel,62.5,,,,,,,,,,,,,CartoonStims/artist_r.jpg,audio/sido.mp3,,,,,,,,,,,,,,,,,,,,,,,,,,,,,,,,,,,,,,1,4,10,0,1,シド,,,,,,,,,,,,,,,,,,,,,,,,,,
,,,,,,,,,R_PY9yvBjC7fW34RP,2022-09-08_12h55.21.611,jpn_C03,2022.1.2,MacIntel,62.5,,,,,,,,,,,,,,,,,,,,,,,,,,,,,,,,,,,,,,,,,,,,ムク,right,3.323,0,0,0,0,1,,,,,,,,,,,,,,,,,,,,,,,,,,,,,,,,
,,,,,,,,,R_PY9yvBjC7fW34RP,2022-09-08_12h55.21.611,jpn_C03,2022.1.2,MacIntel,62.5,,,,,,,,,,,,,CartoonStims/cowboy_r.jpg,audio/muku.mp3,,,,,,,,,,,,,,,,,,,,,,,,,,,,,,,,,,,,,,1,5,11,3,1,ムク,,,,,,,,,,,,,,,,,,,,,,,,,,
,,,,,,,,,R_PY9yvBjC7fW34RP,2022-09-08_12h55.21.611,jpn_C03,2022.1.2,MacIntel,62.5,,,,,,,,,,,,,,,,,,,,,,,,,,,,,,,,,,,,,,,,,,,,,,,,,,,,,,,,,,,space,11.552,0,0,0,0,1,NounExposure.xlsx,"最初のトライアルでは、 画像が表示され、 その画像の下に単語が出てきます。 またこの単語の音も聞くことができます。 この音を大きな声で復唱してください。 そしてこの画像がどのような単語を示しているのか, 考えてみてください。 その後、 続きのボタンを押すと次の単語の学習が始まります。

スペースキーを押して、学習を始めましょう。",3,NounFCT.xlsx,ここから語彙のクイズが始まります。スクリーンに表示される単語に合う画像をキーボードの右と左の矢印キーを使って選択してください。,NounTest.xlsx,2,次に、これまで学習してきたことをアウトプットしていただきます。 表示される画像を描写していると思う単語を、テキストボックスにタイプしてください。,1,"ここまでが最初のトライアルです。ここで休憩をとっても構いません。

休憩が済みましたら、スペースキーを押して続きを始めましょう。",,,,,,,,
,,,,,,,,,R_PY9yvBjC7fW34RP,2022-09-08_12h55.21.611,jpn_C03,2022.1.2,MacIntel,62.5,space,7.532,space,40.007,0,0,0,2,1,セル 　ルピン 　ホレト,,,CartoonStims/burglar_kick_chef_r.jpg,audio/serulupinhoreto.mp3,,,,,,,,,,,,,,,,,,,,,,,,,,,,,,,,,,,,,,,,,,,,,,,,,,,,,,,,,,,,,,,,,,,,,
,,,,,,,,,R_PY9yvBjC7fW34RP,2022-09-08_12h55.21.611,jpn_C03,2022.1.2,MacIntel,62.5,,,space,7.367,0,1,1,29,1,パツ　ホレト　シド,,,CartoonStims/chef_shoot_artist_r.jpg,audio/patsuhoretosido.mp3,,,,,,,,,,,,,,,,,,,,,,,,,,,,,,,,,,,,,,,,,,,,,,,,,,,,,,,,,,,,,,,,,,,,,
,,,,,,,,,R_PY9yvBjC7fW34RP,2022-09-08_12h55.21.611,jpn_C03,2022.1.2,MacIntel,62.5,,,space,8.684,0,2,2,8,1,セル　ピポ　ドキ,,,CartoonStims/doctor_kick_boxer_r.jpg,audio/serupipodoki.mp3,,,,,,,,,,,,,,,,,,,,,,,,,,,,,,,,,,,,,,,,,,,,,,,,,,,,,,,,,,,,,,,,,,,,,
,,,,,,,,,R_PY9yvBjC7fW34RP,2022-09-08_12h55.21.611,jpn_C03,2022.1.2,MacIntel,62.5,,,space,23.633,0,3,3,47,1,プミ　ドキ　ピポ,,,CartoonStims/boxer_punch_doctor_r.jpg,audio/pumidokipipo.mp3,,,,,,,,,,,,,,,,,,,,,,,,,,,,,,,,,,,,,,,,,,,,,,,,,,,,,,,,,,,,,,,,,,,,,
,,,,,,,,,R_PY9yvBjC7fW34RP,2022-09-08_12h55.21.611,jpn_C03,2022.1.2,MacIntel,62.5,,,space,4.659,0,4,4,17,1,トマ　ホレト　ドキ,,,CartoonStims/chef_point_boxer_r.jpg,audio/tomahoretodoki.mp3,,,,,,,,,,,,,,,,,,,,,,,,,,,,,,,,,,,,,,,,,,,,,,,,,,,,,,,,,,,,,,,,,,,,,
,,,,,,,,,R_PY9yvBjC7fW34RP,2022-09-08_12h55.21.611,jpn_C03,2022.1.2,MacIntel,62.5,,,space,7.75,0,5,5,42,1,プミ　ムク　ルピン,,,CartoonStims/cowboy_punch_burglar_r.jpg,audio/pumimukulupin.mp3,,,,,,,,,,,,,,,,,,,,,,,,,,,,,,,,,,,,,,,,,,,,,,,,,,,,,,,,,,,,,,,,,,,,,
,,,,,,,,,R_PY9yvBjC7fW34RP,2022-09-08_12h55.21.611,jpn_C03,2022.1.2,MacIntel,62.5,,,space,4.542,0,6,6,39,1,プミ　ルピン　シド,,,CartoonStims/burglar_punch_artist_r.jpg,audio/pumilupinsido.mp3,,,,,,,,,,,,,,,,,,,,,,,,,,,,,,,,,,,,,,,,,,,,,,,,,,,,,,,,,,,,,,,,,,,,,
,,,,,,,,,R_PY9yvBjC7fW34RP,2022-09-08_12h55.21.611,jpn_C03,2022.1.2,MacIntel,62.5,,,space,1.324,0,7,7,0,1,セル　シド　ルピン,,,CartoonStims/artist_kick_burglar_r.jpg,audio/serusidolupin.mp3,,,,,,,,,,,,,,,,,,,,,,,,,,,,,,,,,,,,,,,,,,,,,,,,,,,,,,,,,,,,,,,,,,,,,
,,,,,,,,,R_PY9yvBjC7fW34RP,2022-09-08_12h55.21.611,jpn_C03,2022.1.2,MacIntel,62.5,,,space,7.693,0,8,8,41,1,プミ　ホレト　ルピン,,,CartoonStims/chef_punch_burglar_r.jpg,audio/pumihoretolupin.mp3,,,,,,,,,,,,,,,,,,,,,,,,,,,,,,,,,,,,,,,,,,,,,,,,,,,,,,,,,,,,,,,,,,,,,
,,,,,,,,,R_PY9yvBjC7fW34RP,2022-09-08_12h55.21.611,jpn_C03,2022.1.2,MacIntel,62.5,,,space,8.567,0,9,9,14,1,トマ　ルピン　ムク,,,CartoonStims/burglar_point_cowboy_r.jpg,audio/tomalupinmuku.mp3,,,,,,,,,,,,,,,,,,,,,,,,,,,,,,,,,,,,,,,,,,,,,,,,,,,,,,,,,,,,,,,,,,,,,
,,,,,,,,,R_PY9yvBjC7fW34RP,2022-09-08_12h55.21.611,jpn_C03,2022.1.2,MacIntel,62.5,,,space,1.608,0,10,10,24,1,パツ　シド　ムク,,,CartoonStims/artist_shoot_cowboy_r.jpg,audio/patsusidomuku.mp3,,,,,,,,,,,,,,,,,,,,,,,,,,,,,,,,,,,,,,,,,,,,,,,,,,,,,,,,,,,,,,,,,,,,,
,,,,,,,,,R_PY9yvBjC7fW34RP,2022-09-08_12h55.21.611,jpn_C03,2022.1.2,MacIntel,62.5,,,space,1.525,0,11,11,5,1,セル　ホレト　ピポ,,,CartoonStims/chef_kick_doctor_r.jpg,audio/seruhoretopipo.mp3,,,,,,,,,,,,,,,,,,,,,,,,,,,,,,,,,,,,,,,,,,,,,,,,,,,,,,,,,,,,,,,,,,,,,
,,,,,,,,,R_PY9yvBjC7fW34RP,2022-09-08_12h55.21.611,jpn_C03,2022.1.2,MacIntel,62.5,,,space,0.733,0,12,12,9,1,セル　ピポ　シド,,,CartoonStims/doctor_kick_artist_r.jpg,audio/serupiposido.mp3,,,,,,,,,,,,,,,,,,,,,,,,,,,,,,,,,,,,,,,,,,,,,,,,,,,,,,,,,,,,,,,,,,,,,
,,,,,,,,,R_PY9yvBjC7fW34RP,2022-09-08_12h55.21.611,jpn_C03,2022.1.2,MacIntel,62.5,,,space,5.14,0,13,13,43,1,プミ　ムク　ホレト,,,CartoonStims/cowboy_punch_chef_r.jpg,audio/pumimukuhoreto.mp3,,,,,,,,,,,,,,,,,,,,,,,,,,,,,,,,,,,,,,,,,,,,,,,,,,,,,,,,,,,,,,,,,,,,,
,,,,,,,,,R_PY9yvBjC7fW34RP,2022-09-08_12h55.21.611,jpn_C03,2022.1.2,MacIntel,62.5,,,space,1.884,0,14,14,35,1,パツ　ドキ　ムク,,,CartoonStims/boxer_shoot_cowboy_r.jpg,audio/patsudokimuku.mp3,,,,,,,,,,,,,,,,,,,,,,,,,,,,,,,,,,,,,,,,,,,,,,,,,,,,,,,,,,,,,,,,,,,,,
,,,,,,,,,R_PY9yvBjC7fW34RP,2022-09-08_12h55.21.611,jpn_C03,2022.1.2,MacIntel,62.5,,,space,3.794,0,15,15,15,1,トマ　ルピン　ピポ,,,CartoonStims/burglar_point_doctor_r.jpg,audio/tomalupinpipo.mp3,,,,,,,,,,,,,,,,,,,,,,,,,,,,,,,,,,,,,,,,,,,,,,,,,,,,,,,,,,,,,,,,,,,,,
,,,,,,,,,R_PY9yvBjC7fW34RP,2022-09-08_12h55.21.611,jpn_C03,2022.1.2,MacIntel,62.5,,,space,0.885,0,16,16,13,1,トマ　シド　ムク,,,CartoonStims/artist_point_cowboy_r.jpg,audio/tomasidomuku.mp3,,,,,,,,,,,,,,,,,,,,,,,,,,,,,,,,,,,,,,,,,,,,,,,,,,,,,,,,,,,,,,,,,,,,,
,,,,,,,,,R_PY9yvBjC7fW34RP,2022-09-08_12h55.21.611,jpn_C03,2022.1.2,MacIntel,62.5,,,space,1.35,0,17,17,20,1,トマ　ピポ　シド,,,CartoonStims/doctor_point_artist_r.jpg,audio/tomapiposido.mp3,,,,,,,,,,,,,,,,,,,,,,,,,,,,,,,,,,,,,,,,,,,,,,,,,,,,,,,,,,,,,,,,,,,,,
,,,,,,,,,R_PY9yvBjC7fW34RP,2022-09-08_12h55.21.611,jpn_C03,2022.1.2,MacIntel,62.5,,,space,2.102,0,18,18,40,1,プミ　ホレト　シド,,,CartoonStims/chef_punch_artist_r.jpg,audio/pumihoretosido.mp3,,,,,,,,,,,,,,,,,,,,,,,,,,,,,,,,,,,,,,,,,,,,,,,,,,,,,,,,,,,,,,,,,,,,,
,,,,,,,,,R_PY9yvBjC7fW34RP,2022-09-08_12h55.21.611,jpn_C03,2022.1.2,MacIntel,62.5,,,space,4.266,0,19,19,23,1,トマ　ドキ　ホレト,,,CartoonStims/boxer_point_chef_r.jpg,audio/tomadokihoreto.mp3,,,,,,,,,,,,,,,,,,,,,,,,,,,,,,,,,,,,,,,,,,,,,,,,,,,,,,,,,,,,,,,,,,,,,
,,,,,,,,,R_PY9yvBjC7fW34RP,2022-09-08_12h55.21.611,jpn_C03,2022.1.2,MacIntel,62.5,,,space,3.568,0,20,20,11,1,セル　ドキ　ルピン,,,CartoonStims/boxer_kick_burglar_r.jpg,audio/serudokilupin.mp3,,,,,,,,,,,,,,,,,,,,,,,,,,,,,,,,,,,,,,,,,,,,,,,,,,,,,,,,,,,,,,,,,,,,,
,,,,,,,,,R_PY9yvBjC7fW34RP,2022-09-08_12h55.21.611,jpn_C03,2022.1.2,MacIntel,62.5,,,space,4.654,0,21,21,4,1,セル　ホレト　ムク,,,CartoonStims/chef_kick_cowboy_r.jpg,audio/seruhoretomuku.mp3,,,,,,,,,,,,,,,,,,,,,,,,,,,,,,,,,,,,,,,,,,,,,,,,,,,,,,,,,,,,,,,,,,,,,
,,,,,,,,,R_PY9yvBjC7fW34RP,2022-09-08_12h55.21.611,jpn_C03,2022.1.2,MacIntel,62.5,,,space,0.81,0,22,22,6,1,セル　ムク　ピポ,,,CartoonStims/cowboy_kick_doctor_r.jpg,audio/serumukupipo.mp3,,,,,,,,,,,,,,,,,,,,,,,,,,,,,,,,,,,,,,,,,,,,,,,,,,,,,,,,,,,,,,,,,,,,,
,,,,,,,,,R_PY9yvBjC7fW34RP,2022-09-08_12h55.21.611,jpn_C03,2022.1.2,MacIntel,62.5,,,space,0.568,0,23,23,32,1,パツ　ピポ　ルピン,,,CartoonStims/doctor_shoot_burglar_r.jpg,audio/patsupipolupin.mp3,,,,,,,,,,,,,,,,,,,,,,,,,,,,,,,,,,,,,,,,,,,,,,,,,,,,,,,,,,,,,,,,,,,,,
,,,,,,,,,R_PY9yvBjC7fW34RP,2022-09-08_12h55.21.611,jpn_C03,2022.1.2,MacIntel,62.5,,,space,2.967,0,24,24,26,1,パツ　ルピン　ピポ,,,CartoonStims/burglar_shoot_doctor_r.jpg,audio/patsulupinpipo.mp3,,,,,,,,,,,,,,,,,,,,,,,,,,,,,,,,,,,,,,,,,,,,,,,,,,,,,,,,,,,,,,,,,,,,,
,,,,,,,,,R_PY9yvBjC7fW34RP,2022-09-08_12h55.21.611,jpn_C03,2022.1.2,MacIntel,62.5,,,space,1.743,0,25,25,28,1,パツ　ホレト　ドキ,,,CartoonStims/chef_shoot_boxer_r.jpg,audio/patsuhoretodoki.mp3,,,,,,,,,,,,,,,,,,,,,,,,,,,,,,,,,,,,,,,,,,,,,,,,,,,,,,,,,,,,,,,,,,,,,
,,,,,,,,,R_PY9yvBjC7fW34RP,2022-09-08_12h55.21.611,jpn_C03,2022.1.2,MacIntel,62.5,,,space,6.169,0,26,26,38,1,プミ　ルピン　ドキ,,,CartoonStims/burglar_punch_boxer_r.jpg,audio/pumilupindoki.mp3,,,,,,,,,,,,,,,,,,,,,,,,,,,,,,,,,,,,,,,,,,,,,,,,,,,,,,,,,,,,,,,,,,,,,
,,,,,,,,,R_PY9yvBjC7fW34RP,2022-09-08_12h55.21.611,jpn_C03,2022.1.2,MacIntel,62.5,,,space,1.618,0,27,27,44,1,プミ　ピポ　ホレト,,,CartoonStims/doctor_punch_chef_r.jpg,audio/pumipipohoreto.mp3,,,,,,,,,,,,,,,,,,,,,,,,,,,,,,,,,,,,,,,,,,,,,,,,,,,,,,,,,,,,,,,,,,,,,
,,,,,,,,,R_PY9yvBjC7fW34RP,2022-09-08_12h55.21.611,jpn_C03,2022.1.2,MacIntel,62.5,,,space,2.517,0,28,28,30,1,パツ　ムク　シド,,,CartoonStims/cowboy_shoot_artist_r.jpg,audio/patsumukusido.mp3,,,,,,,,,,,,,,,,,,,,,,,,,,,,,,,,,,,,,,,,,,,,,,,,,,,,,,,,,,,,,,,,,,,,,
,,,,,,,,,R_PY9yvBjC7fW34RP,2022-09-08_12h55.21.611,jpn_C03,2022.1.2,MacIntel,62.5,,,space,2.65,0,29,29,21,1,トマ　ピポ　ルピン,,,CartoonStims/doctor_point_burglar_r.jpg,audio/tomapipolupin.mp3,,,,,,,,,,,,,,,,,,,,,,,,,,,,,,,,,,,,,,,,,,,,,,,,,,,,,,,,,,,,,,,,,,,,,
,,,,,,,,,R_PY9yvBjC7fW34RP,2022-09-08_12h55.21.611,jpn_C03,2022.1.2,MacIntel,62.5,,,space,0.906,0,30,30,19,1,トマ　ムク　シド,,,CartoonStims/cowboy_point_artist_r.jpg,audio/tomamukusido.mp3,,,,,,,,,,,,,,,,,,,,,,,,,,,,,,,,,,,,,,,,,,,,,,,,,,,,,,,,,,,,,,,,,,,,,
,,,,,,,,,R_PY9yvBjC7fW34RP,2022-09-08_12h55.21.611,jpn_C03,2022.1.2,MacIntel,62.5,,,space,2.056,0,31,31,12,1,トマ　シド　ホレト,,,CartoonStims/artist_point_chef_r.jpg,audio/tomasidohoreto.mp3,,,,,,,,,,,,,,,,,,,,,,,,,,,,,,,,,,,,,,,,,,,,,,,,,,,,,,,,,,,,,,,,,,,,,
,,,,,,,,,R_PY9yvBjC7fW34RP,2022-09-08_12h55.21.611,jpn_C03,2022.1.2,MacIntel,62.5,,,space,1.058,0,32,32,46,1,プミ　ドキ　ムク,,,CartoonStims/boxer_punch_cowboy_r.jpg,audio/pumidokimuku.mp3,,,,,,,,,,,,,,,,,,,,,,,,,,,,,,,,,,,,,,,,,,,,,,,,,,,,,,,,,,,,,,,,,,,,,
,,,,,,,,,R_PY9yvBjC7fW34RP,2022-09-08_12h55.21.611,jpn_C03,2022.1.2,MacIntel,62.5,,,space,0.383,0,33,33,25,1,パツ　シド　ピポ,,,CartoonStims/artist_shoot_doctor_r.jpg,audio/patsusidopipo.mp3,,,,,,,,,,,,,,,,,,,,,,,,,,,,,,,,,,,,,,,,,,,,,,,,,,,,,,,,,,,,,,,,,,,,,
,,,,,,,,,R_PY9yvBjC7fW34RP,2022-09-08_12h55.21.611,jpn_C03,2022.1.2,MacIntel,62.5,,,space,0.266,0,34,34,7,1,セル　ムク　ドキ,,,CartoonStims/cowboy_kick_boxer_r.jpg,audio/serumukudoki.mp3,,,,,,,,,,,,,,,,,,,,,,,,,,,,,,,,,,,,,,,,,,,,,,,,,,,,,,,,,,,,,,,,,,,,,
,,,,,,,,,R_PY9yvBjC7fW34RP,2022-09-08_12h55.21.611,jpn_C03,2022.1.2,MacIntel,62.5,,,space,0.138,0,35,35,1,1,セル 　シド 　ホレト,,,CartoonStims/artist_kick_chef_r.jpg,audio/serusidohoreto.mp3,,,,,,,,,,,,,,,,,,,,,,,,,,,,,,,,,,,,,,,,,,,,,,,,,,,,,,,,,,,,,,,,,,,,,
,,,,,,,,,R_PY9yvBjC7fW34RP,2022-09-08_12h55.21.611,jpn_C03,2022.1.2,MacIntel,62.5,,,space,0.328,0,36,36,3,1,セル　ルピン　ムク,,,CartoonStims/burglar_kick_cowboy_r.jpg,audio/serulupinmuku.mp3,,,,,,,,,,,,,,,,,,,,,,,,,,,,,,,,,,,,,,,,,,,,,,,,,,,,,,,,,,,,,,,,,,,,,
,,,,,,,,,R_PY9yvBjC7fW34RP,2022-09-08_12h55.21.611,jpn_C03,2022.1.2,MacIntel,62.5,,,space,0.312,0,37,37,31,1,パツ　ムク　ルピン,,,CartoonStims/cowboy_shoot_burglar_r.jpg,audio/patsumukulupin.mp3,,,,,,,,,,,,,,,,,,,,,,,,,,,,,,,,,,,,,,,,,,,,,,,,,,,,,,,,,,,,,,,,,,,,,
,,,,,,,,,R_PY9yvBjC7fW34RP,2022-09-08_12h55.21.611,jpn_C03,2022.1.2,MacIntel,62.5,,,space,0.406,0,38,38,16,1,トマ　ホレト　ピポ,,,CartoonStims/chef_point_doctor_r.jpg,audio/tomahoretopipo.mp3,,,,,,,,,,,,,,,,,,,,,,,,,,,,,,,,,,,,,,,,,,,,,,,,,,,,,,,,,,,,,,,,,,,,,
,,,,,,,,,R_PY9yvBjC7fW34RP,2022-09-08_12h55.21.611,jpn_C03,2022.1.2,MacIntel,62.5,,,space,0.475,0,39,39,10,1,セル　ドキ　シド,,,CartoonStims/boxer_kick_artist_r.jpg,audio/serudokisido.mp3,,,,,,,,,,,,,,,,,,,,,,,,,,,,,,,,,,,,,,,,,,,,,,,,,,,,,,,,,,,,,,,,,,,,,
,,,,,,,,,R_PY9yvBjC7fW34RP,2022-09-08_12h55.21.611,jpn_C03,2022.1.2,MacIntel,62.5,,,space,0.574,0,40,40,34,1,パツ　ドキ　ホレト,,,CartoonStims/boxer_shoot_chef_r.jpg,audio/patsudokihoreto.mp3,,,,,,,,,,,,,,,,,,,,,,,,,,,,,,,,,,,,,,,,,,,,,,,,,,,,,,,,,,,,,,,,,,,,,
,,,,,,,,,R_PY9yvBjC7fW34RP,2022-09-08_12h55.21.611,jpn_C03,2022.1.2,MacIntel,62.5,,,space,1.477,0,41,41,27,1,パツ　ルピン　ドキ,,,CartoonStims/burglar_shoot_boxer_r.jpg,audio/patsulupindoki.mp3,,,,,,,,,,,,,,,,,,,,,,,,,,,,,,,,,,,,,,,,,,,,,,,,,,,,,,,,,,,,,,,,,,,,,
,,,,,,,,,R_PY9yvBjC7fW34RP,2022-09-08_12h55.21.611,jpn_C03,2022.1.2,MacIntel,62.5,,,space,0.662,0,42,42,45,1,プミ　ピポ　ムク,,,CartoonStims/doctor_punch_cowboy_r.jpg,audio/pumipipomuku.mp3,,,,,,,,,,,,,,,,,,,,,,,,,,,,,,,,,,,,,,,,,,,,,,,,,,,,,,,,,,,,,,,,,,,,,
,,,,,,,,,R_PY9yvBjC7fW34RP,2022-09-08_12h55.21.611,jpn_C03,2022.1.2,MacIntel,62.5,,,space,3.695,0,43,43,18,1,トマ　ムク　ドキ,,,CartoonStims/cowboy_point_boxer_r.jpg,audio/tomamukudoki.mp3,,,,,,,,,,,,,,,,,,,,,,,,,,,,,,,,,,,,,,,,,,,,,,,,,,,,,,,,,,,,,,,,,,,,,
,,,,,,,,,R_PY9yvBjC7fW34RP,2022-09-08_12h55.21.611,jpn_C03,2022.1.2,MacIntel,62.5,,,space,5.856,0,44,44,36,1,プミ　シド　ピポ,,,CartoonStims/artist_punch_doctor_r.jpg,audio/pumisidopipo.mp3,,,,,,,,,,,,,,,,,,,,,,,,,,,,,,,,,,,,,,,,,,,,,,,,,,,,,,,,,,,,,,,,,,,,,
,,,,,,,,,R_PY9yvBjC7fW34RP,2022-09-08_12h55.21.611,jpn_C03,2022.1.2,MacIntel,62.5,,,space,1.067,0,45,45,33,1,パツ　ピポ　ホレト,,,CartoonStims/doctor_shoot_chef_r.jpg,audio/patsupipohoreto.mp3,,,,,,,,,,,,,,,,,,,,,,,,,,,,,,,,,,,,,,,,,,,,,,,,,,,,,,,,,,,,,,,,,,,,,
,,,,,,,,,R_PY9yvBjC7fW34RP,2022-09-08_12h55.21.611,jpn_C03,2022.1.2,MacIntel,62.5,,,space,1.84,0,46,46,22,1,トマ　ドキ　ルピン,,,CartoonStims/boxer_point_burglar_r.jpg,audio/tomadokilupin.mp3,,,,,,,,,,,,,,,,,,,,,,,,,,,,,,,,,,,,,,,,,,,,,,,,,,,,,,,,,,,,,,,,,,,,,
,,,,,,,,,R_PY9yvBjC7fW34RP,2022-09-08_12h55.21.611,jpn_C03,2022.1.2,MacIntel,62.5,,,space,0.856,0,47,47,37,1,プミ　シド　ドキ,,,CartoonStims/artist_punch_boxer_r.jpg,audio/pumisidodoki.mp3,,,,,,,,,,,,,,,,,,,,,,,,,,,,,,,,,,,,,,,,,,,,,,,,,,,,,,,,,,,,,,,,,,,,,
,,,,,,,,,R_PY9yvBjC7fW34RP,2022-09-08_12h55.21.611,jpn_C03,2022.1.2,MacIntel,62.5,,,,,,,,,,,,,,,space,2.102,right,1,3.467,,,,,,,,,,,,,,,,,,0,0,0,0,1,,,,,,,,,,,,,,,,,,,,,,,,,,,,,,,,,,,,,,,,,,
,,,,,,,,,R_PY9yvBjC7fW34RP,2022-09-08_12h55.21.611,jpn_C03,2022.1.2,MacIntel,62.5,,,,,,,,,,,,,,,,,,,,,,,,,0,0,0,11,1,CartoonStims/burglar_punch_cowboy_r.jpg,プミ　ホレト　ムク,CartoonStims/chef_punch_cowboy_r.jpg,right,CartoonStims/chef_punch_cowboy_r.jpg,audio/pumihoretomuku.mp3,残念！ こちらが正しい画像です。,,,,,,,,,,,,,,,,,,,,,,,,,,,,,,,,,,,,,,,,,,,,,,,
,,,,,,,,,R_PY9yvBjC7fW34RP,2022-09-08_12h55.21.611,jpn_C03,2022.1.2,MacIntel,62.5,,,,,,,,,,,,,,,,,left,1,1.662,0,0,0,0,1,,,,,,,,,,,,,,,,,,,,,,,,,,,,,,,,,,,,,,,,,,,,,,,,,,,,,,,,,,,
,,,,,,,,,R_PY9yvBjC7fW34RP,2022-09-08_12h55.21.611,jpn_C03,2022.1.2,MacIntel,62.5,,,,,,,,,,,,,,,,,,,,,,,,,0,1,1,0,1,CartoonStims/doctor_kick_burglar_r.jpg,セル　ピポ　ルピン,CartoonStims/doctor_kick_chef_r.jpg,left,CartoonStims/doctor_kick_burglar_r.jpg,audio/serupipolupin.mp3,残念！ こちらが正しい画像です。,,,,,,,,,,,,,,,,,,,,,,,,,,,,,,,,,,,,,,,,,,,,,,,
,,,,,,,,,R_PY9yvBjC7fW34RP,2022-09-08_12h55.21.611,jpn_C03,2022.1.2,MacIntel,62.5,,,,,,,,,,,,,,,,,right,1,3.783,,,,,,,,,,,,,,,,,,0,0,0,0,1,,,,,,,,,,,,,,,,,,,,,,,,,,,,,,,,,,,,,,,,,,
,,,,,,,,,R_PY9yvBjC7fW34RP,2022-09-08_12h55.21.611,jpn_C03,2022.1.2,MacIntel,62.5,,,,,,,,,,,,,,,,,,,,,,,,,0,2,2,7,1,CartoonStims/artist_punch_cowboy_r.jpg,セル　シド　ムク,CartoonStims/artist_kick_cowboy_r.jpg,right,CartoonStims/artist_kick_cowboy_r.jpg,audio/serusidomuku.mp3,残念！ こちらが正しい画像です。,,,,,,,,,,,,,,,,,,,,,,,,,,,,,,,,,,,,,,,,,,,,,,,
,,,,,,,,,R_PY9yvBjC7fW34RP,2022-09-08_12h55.21.611,jpn_C03,2022.1.2,MacIntel,62.5,,,,,,,,,,,,,,,,,left,1,2.711,0,0,0,0,1,,,,,,,,,,,,,,,,,,,,,,,,,,,,,,,,,,,,,,,,,,,,,,,,,,,,,,,,,,,
,,,,,,,,,R_PY9yvBjC7fW34RP,2022-09-08_12h55.21.611,jpn_C03,2022.1.2,MacIntel,62.5,,,,,,,,,,,,,,,,,,,,,,,,,0,3,3,6,1,CartoonStims/doctor_punch_boxer_r.jpg,プミ　ピポ　ドキ,CartoonStims/doctor_shoot_boxer_r.jpg,left,CartoonStims/doctor_punch_boxer_r.jpg,audio/pumipipodoki.mp3,残念！ こちらが正しい画像です。,,,,,,,,,,,,,,,,,,,,,,,,,,,,,,,,,,,,,,,,,,,,,,,
,,,,,,,,,R_PY9yvBjC7fW34RP,2022-09-08_12h55.21.611,jpn_C03,2022.1.2,MacIntel,62.5,,,,,,,,,,,,,,,,,left,1,2.467,0,0,0,0,1,,,,,,,,,,,,,,,,,,,,,,,,,,,,,,,,,,,,,,,,,,,,,,,,,,,,,,,,,,,
,,,,,,,,,R_PY9yvBjC7fW34RP,2022-09-08_12h55.21.611,jpn_C03,2022.1.2,MacIntel,62.5,,,,,,,,,,,,,,,,,,,,,,,,,0,4,4,2,1,CartoonStims/boxer_shoot_doctor_r.jpg,パツ　ドキ　ピポ,CartoonStims/boxer_shoot_artist_r.jpg,left,CartoonStims/boxer_shoot_doctor_r.jpg,audio/patsudokipipo.mp3,残念！ こちらが正しい画像です。,,,,,,,,,,,,,,,,,,,,,,,,,,,,,,,,,,,,,,,,,,,,,,,
,,,,,,,,,R_PY9yvBjC7fW34RP,2022-09-08_12h55.21.611,jpn_C03,2022.1.2,MacIntel,62.5,,,,,,,,,,,,,,,,,left,1,4.617,0,0,0,0,1,,,,,,,,,,,,,,,,,,,,,,,,,,,,,,,,,,,,,,,,,,,,,,,,,,,,,,,,,,,
,,,,,,,,,R_PY9yvBjC7fW34RP,2022-09-08_12h55.21.611,jpn_C03,2022.1.2,MacIntel,62.5,,,,,,,,,,,,,,,,,,,,,,,,,0,5,5,8,1,CartoonStims/doctor_point_cowboy_r.jpg,トマ　ピポ　ムク,CartoonStims/boxer_point_cowboy_r.jpg,left,CartoonStims/doctor_point_cowboy_r.jpg,audio/tomapipomuku.mp3,残念！ こちらが正しい画像です。,,,,,,,,,,,,,,,,,,,,,,,,,,,,,,,,,,,,,,,,,,,,,,,
,,,,,,,,,R_PY9yvBjC7fW34RP,2022-09-08_12h55.21.611,jpn_C03,2022.1.2,MacIntel,62.5,,,,,,,,,,,,,,,,,right,1,4.417,,,,,,,,,,,,,,,,,,0,0,0,0,1,,,,,,,,,,,,,,,,,,,,,,,,,,,,,,,,,,,,,,,,,,
,,,,,,,,,R_PY9yvBjC7fW34RP,2022-09-08_12h55.21.611,jpn_C03,2022.1.2,MacIntel,62.5,,,,,,,,,,,,,,,,,,,,,,,,,0,6,6,9,1,CartoonStims/chef_kick_artist_r.jpg,セル　ムク　シド,CartoonStims/cowboy_kick_artist_r.jpg,right,CartoonStims/cowboy_kick_artist_r.jpg,audio/serumukusido.mp3,残念！ こちらが正しい画像です。,,,,,,,,,,,,,,,,,,,,,,,,,,,,,,,,,,,,,,,,,,,,,,,
,,,,,,,,,R_PY9yvBjC7fW34RP,2022-09-08_12h55.21.611,jpn_C03,2022.1.2,MacIntel,62.5,,,,,,,,,,,,,,,,,right,1,1.115,,,,,,,,,,,,,,,,,,0,0,0,0,1,,,,,,,,,,,,,,,,,,,,,,,,,,,,,,,,,,,,,,,,,,
,,,,,,,,,R_PY9yvBjC7fW34RP,2022-09-08_12h55.21.611,jpn_C03,2022.1.2,MacIntel,62.5,,,,,,,,,,,,,,,,,,,,,,,,,0,7,7,5,1,CartoonStims/cowboy_point_chef_r.jpg,パツ　ムク　ホレト,CartoonStims/cowboy_shoot_chef_r.jpg,right,CartoonStims/cowboy_shoot_chef_r.jpg,audio/patsumukuhoreto.mp3,残念！ こちらが正しい画像です。,,,,,,,,,,,,,,,,,,,,,,,,,,,,,,,,,,,,,,,,,,,,,,,
,,,,,,,,,R_PY9yvBjC7fW34RP,2022-09-08_12h55.21.611,jpn_C03,2022.1.2,MacIntel,62.5,,,,,,,,,,,,,,,,,right,1,5.717,,,,,,,,,,,,,,,,,,0,0,0,0,1,,,,,,,,,,,,,,,,,,,,,,,,,,,,,,,,,,,,,,,,,,
,,,,,,,,,R_PY9yvBjC7fW34RP,2022-09-08_12h55.21.611,jpn_C03,2022.1.2,MacIntel,62.5,,,,,,,,,,,,,,,,,,,,,,,,,0,8,8,3,1,CartoonStims/cowboy_punch_doctor_r.jpg,プミ　ムク　ドキ,CartoonStims/cowboy_punch_boxer_r.jpg,right,CartoonStims/cowboy_punch_boxer_r.jpg,audio/pumimukudoki.mp3,残念！ こちらが正しい画像です。,,,,,,,,,,,,,,,,,,,,,,,,,,,,,,,,,,,,,,,,,,,,,,,
,,,,,,,,,R_PY9yvBjC7fW34RP,2022-09-08_12h55.21.611,jpn_C03,2022.1.2,MacIntel,62.5,,,,,,,,,,,,,,,,,left,1,0.869,0,0,0,0,1,,,,,,,,,,,,,,,,,,,,,,,,,,,,,,,,,,,,,,,,,,,,,,,,,,,,,,,,,,,
,,,,,,,,,R_PY9yvBjC7fW34RP,2022-09-08_12h55.21.611,jpn_C03,2022.1.2,MacIntel,62.5,,,,,,,,,,,,,,,,,,,,,,,,,0,9,9,4,1,CartoonStims/burglar_point_boxer_r.jpg,トマ　ルピン　ドキ,CartoonStims/burglar_kick_boxer_r.jpg,left,CartoonStims/burglar_point_boxer_r.jpg,audio/tomalupindoki.mp3,残念！ こちらが正しい画像です。,,,,,,,,,,,,,,,,,,,,,,,,,,,,,,,,,,,,,,,,,,,,,,,
,,,,,,,,,R_PY9yvBjC7fW34RP,2022-09-08_12h55.21.611,jpn_C03,2022.1.2,MacIntel,62.5,,,,,,,,,,,,,,,,,left,1,2.4,0,0,0,0,1,,,,,,,,,,,,,,,,,,,,,,,,,,,,,,,,,,,,,,,,,,,,,,,,,,,,,,,,,,,
,,,,,,,,,R_PY9yvBjC7fW34RP,2022-09-08_12h55.21.611,jpn_C03,2022.1.2,MacIntel,62.5,,,,,,,,,,,,,,,,,,,,,,,,,0,10,10,10,1,CartoonStims/artist_shoot_burglar_r.jpg,パツ　シド　ルピン,CartoonStims/chef_shoot_burglar_r.jpg,left,CartoonStims/artist_shoot_burglar_r.jpg,audio/patsusidolupin.mp3,残念！ こちらが正しい画像です。,,,,,,,,,,,,,,,,,,,,,,,,,,,,,,,,,,,,,,,,,,,,,,,
,,,,,,,,,R_PY9yvBjC7fW34RP,2022-09-08_12h55.21.611,jpn_C03,2022.1.2,MacIntel,62.5,,,,,,,,,,,,,,,,,right,1,2.873,,,,,,,,,,,,,,,,,,0,0,0,0,1,,,,,,,,,,,,,,,,,,,,,,,,,,,,,,,,,,,,,,,,,,
,,,,,,,,,R_PY9yvBjC7fW34RP,2022-09-08_12h55.21.611,jpn_C03,2022.1.2,MacIntel,62.5,,,,,,,,,,,,,,,,,,,,,,,,,0,11,11,1,1,CartoonStims/chef_point_burglar_r.jpg,トマ　ホレト　シド,CartoonStims/chef_point_artist_r.jpg,right,CartoonStims/chef_point_artist_r.jpg,audio/tomahoretosido.mp3,残念！ こちらが正しい画像です。,,,,,,,,,,,,,,,,,,,,,,,,,,,,,,,,,,,,,,,,,,,,,,,
,,,,,,,,,R_PY9yvBjC7fW34RP,2022-09-08_12h55.21.611,jpn_C03,2022.1.2,MacIntel,62.5,,,,,,,,,,,,,,,,,,,,,,,,,,,,,,,,,,,,,,,,,,space,6.668,パツ　ホレト　ムク,right,11.36,0,0,0,0,1,,,,,,,,,,,,,,,,,,,,,,,,,,,,,,,,
,,,,,,,,,R_PY9yvBjC7fW34RP,2022-09-08_12h55.21.611,jpn_C03,2022.1.2,MacIntel,62.5,,,,,,,,,,,,,CartoonStims/chef_shoot_cowboy_r.jpg,audio/patsuhoretomuku.mp3,,,,,,,,,,,,,,,,,,,,,,,,,,,,,,,,,,,,,,0,0,0,7,1,パツ　ホレト　ムク,,,,,,,,,,,,,,,,,,,,,,,,,,
,,,,,,,,,R_PY9yvBjC7fW34RP,2022-09-08_12h55.21.611,jpn_C03,2022.1.2,MacIntel,62.5,,,,,,,,,,,,,,,,,,,,,,,,,,,,,,,,,,,,,,,,,,,,,right,18.383,0,0,0,0,1,,,,,,,,,,,,,,,,,,,,,,,,,,,,,,,,
,,,,,,,,,R_PY9yvBjC7fW34RP,2022-09-08_12h55.21.611,jpn_C03,2022.1.2,MacIntel,62.5,,,,,,,,,,,,,CartoonStims/doctor_punch_boxer_r.jpg,audio/pumipipodoki.mp3,,,,,,,,,,,,,,,,,,,,,,,,,,,,,,,,,,,,,,0,1,1,10,1,プミ　ピポ　ドキ,,,,,,,,,,,,,,,,,,,,,,,,,,
,,,,,,,,,R_PY9yvBjC7fW34RP,2022-09-08_12h55.21.611,jpn_C03,2022.1.2,MacIntel,62.5,,,,,,,,,,,,,,,,,,,,,,,,,,,,,,,,,,,,,,,,,,,,ぷみ,right,5.347,0,0,0,0,1,,,,,,,,,,,,,,,,,,,,,,,,,,,,,,,,
,,,,,,,,,R_PY9yvBjC7fW34RP,2022-09-08_12h55.21.611,jpn_C03,2022.1.2,MacIntel,62.5,,,,,,,,,,,,,CartoonStims/artist_punch_burglar_r.jpg,audio/pumisidolupin.mp3,,,,,,,,,,,,,,,,,,,,,,,,,,,,,,,,,,,,,,0,2,2,9,1,プミ　シド　ルピン,,,,,,,,,,,,,,,,,,,,,,,,,,
,,,,,,,,,R_PY9yvBjC7fW34RP,2022-09-08_12h55.21.611,jpn_C03,2022.1.2,MacIntel,62.5,,,,,,,,,,,,,,,,,,,,,,,,,,,,,,,,,,,,,,,,,,,,トマ　ホレト　ルピン,right,20.248,0,0,0,0,1,,,,,,,,,,,,,,,,,,,,,,,,,,,,,,,,
,,,,,,,,,R_PY9yvBjC7fW34RP,2022-09-08_12h55.21.611,jpn_C03,2022.1.2,MacIntel,62.5,,,,,,,,,,,,,CartoonStims/chef_point_burglar_r.jpg,audio/tomahoretolupin.mp3,,,,,,,,,,,,,,,,,,,,,,,,,,,,,,,,,,,,,,0,3,3,5,1,トマ　ホレト　ルピン,,,,,,,,,,,,,,,,,,,,,,,,,,
,,,,,,,,,R_PY9yvBjC7fW34RP,2022-09-08_12h55.21.611,jpn_C03,2022.1.2,MacIntel,62.5,,,,,,,,,,,,,,,,,,,,,,,,,,,,,,,,,,,,,,,,,,,,パツ　ルピン　ホレト,right,14.153,0,0,0,0,1,,,,,,,,,,,,,,,,,,,,,,,,,,,,,,,,
,,,,,,,,,R_PY9yvBjC7fW34RP,2022-09-08_12h55.21.611,jpn_C03,2022.1.2,MacIntel,62.5,,,,,,,,,,,,,CartoonStims/burglar_shoot_chef_r.jpg,audio/patsulupinhoreto.mp3,,,,,,,,,,,,,,,,,,,,,,,,,,,,,,,,,,,,,,0,4,4,6,1,パツ　ルピン　ホレト,,,,,,,,,,,,,,,,,,,,,,,,,,
,,,,,,,,,R_PY9yvBjC7fW34RP,2022-09-08_12h55.21.611,jpn_C03,2022.1.2,MacIntel,62.5,,,,,,,,,,,,,,,,,,,,,,,,,,,,,,,,,,,,,,,,,,,,トマ　シド　ドキ,right,12.519,0,0,0,0,1,,,,,,,,,,,,,,,,,,,,,,,,,,,,,,,,
,,,,,,,,,R_PY9yvBjC7fW34RP,2022-09-08_12h55.21.611,jpn_C03,2022.1.2,MacIntel,62.5,,,,,,,,,,,,,CartoonStims/artist_point_boxer_r.jpg,audio/tomasidodoki.mp3,,,,,,,,,,,,,,,,,,,,,,,,,,,,,,,,,,,,,,0,5,5,3,1,トマ　シド　ドキ,,,,,,,,,,,,,,,,,,,,,,,,,,
,,,,,,,,,R_PY9yvBjC7fW34RP,2022-09-08_12h55.21.611,jpn_C03,2022.1.2,MacIntel,62.5,,,,,,,,,,,,,,,,,,,,,,,,,,,,,,,,,,,,,,,,,,,,セル　ドキ　ムク,right,10.744,0,0,0,0,1,,,,,,,,,,,,,,,,,,,,,,,,,,,,,,,,
,,,,,,,,,R_PY9yvBjC7fW34RP,2022-09-08_12h55.21.611,jpn_C03,2022.1.2,MacIntel,62.5,,,,,,,,,,,,,CartoonStims/boxer_kick_cowboy_r.jpg,audio/serudokimuku.mp3,,,,,,,,,,,,,,,,,,,,,,,,,,,,,,,,,,,,,,0,6,6,2,1,セル　ドキ　ムク,,,,,,,,,,,,,,,,,,,,,,,,,,
,,,,,,,,,R_PY9yvBjC7fW34RP,2022-09-08_12h55.21.611,jpn_C03,2022.1.2,MacIntel,62.5,,,,,,,,,,,,,,,,,,,,,,,,,,,,,,,,,,,,,,,,,,,,パツ　ムク　ピポ,right,10.253,0,0,0,0,1,,,,,,,,,,,,,,,,,,,,,,,,,,,,,,,,
,,,,,,,,,R_PY9yvBjC7fW34RP,2022-09-08_12h55.21.611,jpn_C03,2022.1.2,MacIntel,62.5,,,,,,,,,,,,,CartoonStims/cowboy_shoot_doctor_r.jpg,audio/patsumukupipo.mp3,,,,,,,,,,,,,,,,,,,,,,,,,,,,,,,,,,,,,,0,7,7,8,1,パツ　ムク　ピポ,,,,,,,,,,,,,,,,,,,,,,,,,,
,,,,,,,,,R_PY9yvBjC7fW34RP,2022-09-08_12h55.21.611,jpn_C03,2022.1.2,MacIntel,62.5,,,,,,,,,,,,,,,,,,,,,,,,,,,,,,,,,,,,,,,,,,,,セル　ピポ　ホレト,right,11.196,0,0,0,0,1,,,,,,,,,,,,,,,,,,,,,,,,,,,,,,,,
,,,,,,,,,R_PY9yvBjC7fW34RP,2022-09-08_12h55.21.611,jpn_C03,2022.1.2,MacIntel,62.5,,,,,,,,,,,,,CartoonStims/doctor_kick_chef_r.jpg,audio/serupipohoreto.mp3,,,,,,,,,,,,,,,,,,,,,,,,,,,,,,,,,,,,,,0,8,8,1,1,セル　ピポ　ホレト,,,,,,,,,,,,,,,,,,,,,,,,,,
,,,,,,,,,R_PY9yvBjC7fW34RP,2022-09-08_12h55.21.611,jpn_C03,2022.1.2,MacIntel,62.5,,,,,,,,,,,,,,,,,,,,,,,,,,,,,,,,,,,,,,,,,,,,プミ　ドキ　シド,right,16.835,0,0,0,0,1,,,,,,,,,,,,,,,,,,,,,,,,,,,,,,,,
,,,,,,,,,R_PY9yvBjC7fW34RP,2022-09-08_12h55.21.611,jpn_C03,2022.1.2,MacIntel,62.5,,,,,,,,,,,,,CartoonStims/boxer_punch_artist_r.jpg,audio/pumidokisido.mp3,,,,,,,,,,,,,,,,,,,,,,,,,,,,,,,,,,,,,,0,9,9,11,1,プミ　ドキ　シド,,,,,,,,,,,,,,,,,,,,,,,,,,
,,,,,,,,,R_PY9yvBjC7fW34RP,2022-09-08_12h55.21.611,jpn_C03,2022.1.2,MacIntel,62.5,,,,,,,,,,,,,,,,,,,,,,,,,,,,,,,,,,,,,,,,,,,,セル　ムク　ルピン,right,9.38,0,0,0,0,1,,,,,,,,,,,,,,,,,,,,,,,,,,,,,,,,
,,,,,,,,,R_PY9yvBjC7fW34RP,2022-09-08_12h55.21.611,jpn_C03,2022.1.2,MacIntel,62.5,,,,,,,,,,,,,CartoonStims/cowboy_kick_burglar_r.jpg,audio/serumukulupin.mp3,,,,,,,,,,,,,,,,,,,,,,,,,,,,,,,,,,,,,,0,10,10,0,1,セル　ムク　ルピン,,,,,,,,,,,,,,,,,,,,,,,,,,
,,,,,,,,,R_PY9yvBjC7fW34RP,2022-09-08_12h55.21.611,jpn_C03,2022.1.2,MacIntel,62.5,,,,,,,,,,,,,,,,,,,,,,,,,,,,,,,,,,,,,,,,,,,,トマ　ルピン　シド,right,8.569,0,0,0,0,1,,,,,,,,,,,,,,,,,,,,,,,,,,,,,,,,
,,,,,,,,,R_PY9yvBjC7fW34RP,2022-09-08_12h55.21.611,jpn_C03,2022.1.2,MacIntel,62.5,,,,,,,,,,,,,CartoonStims/burglar_point_artist_r.jpg,audio/tomalupinsido.mp3,,,,,,,,,,,,,,,,,,,,,,,,,,,,,,,,,,,,,,0,11,11,4,1,トマ　ルピン　シド,,,,,,,,,,,,,,,,,,,,,,,,,,
,,,,,,,,,R_PY9yvBjC7fW34RP,2022-09-08_12h55.21.611,jpn_C03,2022.1.2,MacIntel,62.5,,,,,,,,,,,,,,,,,,,,,,,,,,,,,,,,,,,,,,,,,,,,,,,,,,,,,,,,,,,space,18.634,0,1,1,1,1,AffExposure.xlsx,"第二のトライアルの学習では、この言語で書かれた文を見ていただきます。引き続き注意して、 聞こえた音を復唱してください。


スペースキーを押してください。",1,AffFCT.xlsx,ここからクイズが始まります。 スクリーンに表示されるテキストに合う画像を選んでください。,AffTest.xlsx,1,次にここまで学んだことをアウトプットしていただきます。 表示される画像を描写していると思う単語を、テキストボックスにタイプしてください。 答えを提出したあとに正しい正解が少しの間画面に写ります。,1,"これで第二のトライアルが終了しました。 ここで休憩をとっていただいても構いません。

休憩が終わりましたら、 スペースキーを押して続きの学習を行いましょう。",,,,,,,,
,,,,,,,,,R_PY9yvBjC7fW34RP,2022-09-08_12h55.21.611,jpn_C03,2022.1.2,MacIntel,62.5,space,2.408,space,11.79,0,0,0,7,1,セル　ピク　ムク　ドキ,,,CartoonStims/cowboy_kick_boxer_r_no.jpg,audio/serupikumukudoki.mp3,,,,,,,,,,,,,,,,,,,,,,,,,,,,,,,,,,,,,,,,,,,,,,,,,,,,,,,,,,,,,,,,,,,,,
,,,,,,,,,R_PY9yvBjC7fW34RP,2022-09-08_12h55.21.611,jpn_C03,2022.1.2,MacIntel,62.5,,,space,0.774,0,1,1,28,1,パツ　ピク　ホレト　ドキ,,,CartoonStims/chef_shoot_boxer_r_no.jpg,audio/patsupikuhoretodoki.mp3,,,,,,,,,,,,,,,,,,,,,,,,,,,,,,,,,,,,,,,,,,,,,,,,,,,,,,,,,,,,,,,,,,,,,
,,,,,,,,,R_PY9yvBjC7fW34RP,2022-09-08_12h55.21.611,jpn_C03,2022.1.2,MacIntel,62.5,,,space,0.423,0,2,2,5,1,セル　ピク　ホレト　ピポ,,,CartoonStims/chef_kick_doctor_r_no.jpg,audio/serupikuhoretopipo.mp3,,,,,,,,,,,,,,,,,,,,,,,,,,,,,,,,,,,,,,,,,,,,,,,,,,,,,,,,,,,,,,,,,,,,,
,,,,,,,,,R_PY9yvBjC7fW34RP,2022-09-08_12h55.21.611,jpn_C03,2022.1.2,MacIntel,62.5,,,space,9.066,0,3,3,0,1,ピク　セル　シド　ルピン,,,CartoonStims/artist_kick_burglar_r_no.jpg,audio/pikuserusidolupin.mp3,,,,,,,,,,,,,,,,,,,,,,,,,,,,,,,,,,,,,,,,,,,,,,,,,,,,,,,,,,,,,,,,,,,,,
,,,,,,,,,R_PY9yvBjC7fW34RP,2022-09-08_12h55.21.611,jpn_C03,2022.1.2,MacIntel,62.5,,,space,1.765,0,4,4,14,1,トマ　ピク　ルピン　ムク,,,CartoonStims/burglar_point_cowboy_r_no.jpg,audio/tomapikulupinmuku.mp3,,,,,,,,,,,,,,,,,,,,,,,,,,,,,,,,,,,,,,,,,,,,,,,,,,,,,,,,,,,,,,,,,,,,,
,,,,,,,,,R_PY9yvBjC7fW34RP,2022-09-08_12h55.21.611,jpn_C03,2022.1.2,MacIntel,62.5,,,space,9.4,0,5,5,42,1,ピク　プミ　ムク　ルピン,,,CartoonStims/cowboy_punch_burglar_r_no.jpg,audio/pikupumimukulupin.mp3,,,,,,,,,,,,,,,,,,,,,,,,,,,,,,,,,,,,,,,,,,,,,,,,,,,,,,,,,,,,,,,,,,,,,
,,,,,,,,,R_PY9yvBjC7fW34RP,2022-09-08_12h55.21.611,jpn_C03,2022.1.2,MacIntel,62.5,,,space,1.223,0,6,6,13,1,トマ　ピク　シド　ムク,,,CartoonStims/artist_point_cowboy_r_no.jpg,audio/tomapikusidomuku.mp3,,,,,,,,,,,,,,,,,,,,,,,,,,,,,,,,,,,,,,,,,,,,,,,,,,,,,,,,,,,,,,,,,,,,,
,,,,,,,,,R_PY9yvBjC7fW34RP,2022-09-08_12h55.21.611,jpn_C03,2022.1.2,MacIntel,62.5,,,space,0.283,0,7,7,20,1,トマ　ピク　ピポ　シド,,,CartoonStims/doctor_point_artist_r_no.jpg,audio/tomapikupiposido.mp3,,,,,,,,,,,,,,,,,,,,,,,,,,,,,,,,,,,,,,,,,,,,,,,,,,,,,,,,,,,,,,,,,,,,,
,,,,,,,,,R_PY9yvBjC7fW34RP,2022-09-08_12h55.21.611,jpn_C03,2022.1.2,MacIntel,62.5,,,space,4.026,0,8,8,44,1,ピク　プミ　ピポ　ホレト,,,CartoonStims/doctor_punch_chef_r_no.jpg,audio/pikupumipipohoreto.mp3,,,,,,,,,,,,,,,,,,,,,,,,,,,,,,,,,,,,,,,,,,,,,,,,,,,,,,,,,,,,,,,,,,,,,
,,,,,,,,,R_PY9yvBjC7fW34RP,2022-09-08_12h55.21.611,jpn_C03,2022.1.2,MacIntel,62.5,,,space,3.906,0,9,9,3,1,セル　ピク　ルピン　ムク,,,CartoonStims/burglar_kick_cowboy_r_no.jpg,audio/serupikulupinmuku.mp3,,,,,,,,,,,,,,,,,,,,,,,,,,,,,,,,,,,,,,,,,,,,,,,,,,,,,,,,,,,,,,,,,,,,,
,,,,,,,,,R_PY9yvBjC7fW34RP,2022-09-08_12h55.21.611,jpn_C03,2022.1.2,MacIntel,62.5,,,space,1.317,0,10,10,34,1,パツ　ピク　ドキ　ホレト,,,CartoonStims/boxer_shoot_chef_r_no.jpg,audio/patsupikudokihoreto.mp3,,,,,,,,,,,,,,,,,,,,,,,,,,,,,,,,,,,,,,,,,,,,,,,,,,,,,,,,,,,,,,,,,,,,,
,,,,,,,,,R_PY9yvBjC7fW34RP,2022-09-08_12h55.21.611,jpn_C03,2022.1.2,MacIntel,62.5,,,space,2.325,0,11,11,40,1,プミ　ピク　ホレト　シド,,,CartoonStims/chef_punch_artist_r_no.jpg,audio/pumipikuhoretosido.mp3,,,,,,,,,,,,,,,,,,,,,,,,,,,,,,,,,,,,,,,,,,,,,,,,,,,,,,,,,,,,,,,,,,,,,
,,,,,,,,,R_PY9yvBjC7fW34RP,2022-09-08_12h55.21.611,jpn_C03,2022.1.2,MacIntel,62.5,,,space,7.072,0,12,12,35,1,パツ　ピク　ドキ　ムク,,,CartoonStims/boxer_shoot_cowboy_r_no.jpg,audio/patsupikudokimuku.mp3,,,,,,,,,,,,,,,,,,,,,,,,,,,,,,,,,,,,,,,,,,,,,,,,,,,,,,,,,,,,,,,,,,,,,
,,,,,,,,,R_PY9yvBjC7fW34RP,2022-09-08_12h55.21.611,jpn_C03,2022.1.2,MacIntel,62.5,,,space,5.303,0,13,13,43,1,プミ　ピク　ムク　ホレト,,,CartoonStims/cowboy_punch_chef_r_no.jpg,audio/pumipikumukuhoreto.mp3,,,,,,,,,,,,,,,,,,,,,,,,,,,,,,,,,,,,,,,,,,,,,,,,,,,,,,,,,,,,,,,,,,,,,
,,,,,,,,,R_PY9yvBjC7fW34RP,2022-09-08_12h55.21.611,jpn_C03,2022.1.2,MacIntel,62.5,,,space,0.949,0,14,14,18,1,トマ　ピク　ムク　ドキ,,,CartoonStims/cowboy_point_boxer_r_no.jpg,audio/tomapikumukudoki.mp3,,,,,,,,,,,,,,,,,,,,,,,,,,,,,,,,,,,,,,,,,,,,,,,,,,,,,,,,,,,,,,,,,,,,,
,,,,,,,,,R_PY9yvBjC7fW34RP,2022-09-08_12h55.21.611,jpn_C03,2022.1.2,MacIntel,62.5,,,space,7.176,0,15,15,29,1,ピク　パツ　ホレト　シド,,,CartoonStims/chef_shoot_artist_r_no.jpg,audio/pikupatsuhoretosido.mp3,,,,,,,,,,,,,,,,,,,,,,,,,,,,,,,,,,,,,,,,,,,,,,,,,,,,,,,,,,,,,,,,,,,,,
,,,,,,,,,R_PY9yvBjC7fW34RP,2022-09-08_12h55.21.611,jpn_C03,2022.1.2,MacIntel,62.5,,,space,2.049,0,16,16,11,1,セル　ピク　ドキ　ルピン,,,CartoonStims/boxer_kick_burglar_r_no.jpg,audio/serupikudokilupin.mp3,,,,,,,,,,,,,,,,,,,,,,,,,,,,,,,,,,,,,,,,,,,,,,,,,,,,,,,,,,,,,,,,,,,,,
,,,,,,,,,R_PY9yvBjC7fW34RP,2022-09-08_12h55.21.611,jpn_C03,2022.1.2,MacIntel,62.5,,,space,8.642,0,17,17,47,1,プミ　ピク　ドキ　ピポ,,,CartoonStims/boxer_punch_doctor_r_no.jpg,audio/pumipikudokipipo.mp3,,,,,,,,,,,,,,,,,,,,,,,,,,,,,,,,,,,,,,,,,,,,,,,,,,,,,,,,,,,,,,,,,,,,,
,,,,,,,,,R_PY9yvBjC7fW34RP,2022-09-08_12h55.21.611,jpn_C03,2022.1.2,MacIntel,62.5,,,space,1.773,0,18,18,17,1,トマ　ピク　ホレト　ドキ,,,CartoonStims/chef_point_boxer_r_no.jpg,audio/tomapikuhoretodoki.mp3,,,,,,,,,,,,,,,,,,,,,,,,,,,,,,,,,,,,,,,,,,,,,,,,,,,,,,,,,,,,,,,,,,,,,
,,,,,,,,,R_PY9yvBjC7fW34RP,2022-09-08_12h55.21.611,jpn_C03,2022.1.2,MacIntel,62.5,,,space,8.816,0,19,19,23,1,ピク　トマ　ドキ　ホレト,,,CartoonStims/boxer_point_chef_r_no.jpg,audio/pikutomadokihoreto.mp3,,,,,,,,,,,,,,,,,,,,,,,,,,,,,,,,,,,,,,,,,,,,,,,,,,,,,,,,,,,,,,,,,,,,,
,,,,,,,,,R_PY9yvBjC7fW34RP,2022-09-08_12h55.21.611,jpn_C03,2022.1.2,MacIntel,62.5,,,space,8.151,0,20,20,1,1,セル　ピク　シド　ホレト,,,CartoonStims/artist_kick_chef_r_no.jpg,audio/serupikusidohoreto.mp3,,,,,,,,,,,,,,,,,,,,,,,,,,,,,,,,,,,,,,,,,,,,,,,,,,,,,,,,,,,,,,,,,,,,,
,,,,,,,,,R_PY9yvBjC7fW34RP,2022-09-08_12h55.21.611,jpn_C03,2022.1.2,MacIntel,62.5,,,space,7.518,0,21,21,38,1,プミ　ピク　ルピン　ドキ,,,CartoonStims/burglar_punch_boxer_r_no.jpg,audio/pumipikulupindoki.mp3,,,,,,,,,,,,,,,,,,,,,,,,,,,,,,,,,,,,,,,,,,,,,,,,,,,,,,,,,,,,,,,,,,,,,
,,,,,,,,,R_PY9yvBjC7fW34RP,2022-09-08_12h55.21.611,jpn_C03,2022.1.2,MacIntel,62.5,,,space,4.15,0,22,22,15,1,ピク　トマ　ルピン　ピポ,,,CartoonStims/burglar_point_doctor_r_no.jpg,audio/pikutomalupinpipo.mp3,,,,,,,,,,,,,,,,,,,,,,,,,,,,,,,,,,,,,,,,,,,,,,,,,,,,,,,,,,,,,,,,,,,,,
,,,,,,,,,R_PY9yvBjC7fW34RP,2022-09-08_12h55.21.611,jpn_C03,2022.1.2,MacIntel,62.5,,,space,8.119,0,23,23,4,1,ピク　セル　ホレト　ムク,,,CartoonStims/chef_kick_cowboy_r_no.jpg,audio/pikuseruhoretomuku.mp3,,,,,,,,,,,,,,,,,,,,,,,,,,,,,,,,,,,,,,,,,,,,,,,,,,,,,,,,,,,,,,,,,,,,,
,,,,,,,,,R_PY9yvBjC7fW34RP,2022-09-08_12h55.21.611,jpn_C03,2022.1.2,MacIntel,62.5,,,space,21.021,0,24,24,10,1,セル　ピク　ドキ　シド,,,CartoonStims/boxer_kick_artist_r_no.jpg,audio/serupikudokisido.mp3,,,,,,,,,,,,,,,,,,,,,,,,,,,,,,,,,,,,,,,,,,,,,,,,,,,,,,,,,,,,,,,,,,,,,
,,,,,,,,,R_PY9yvBjC7fW34RP,2022-09-08_12h55.21.611,jpn_C03,2022.1.2,MacIntel,62.5,,,space,2.466,0,25,25,6,1,セル　ピク　ムク　ピポ,,,CartoonStims/cowboy_kick_doctor_r_no.jpg,audio/serupikumukupipo.mp3,,,,,,,,,,,,,,,,,,,,,,,,,,,,,,,,,,,,,,,,,,,,,,,,,,,,,,,,,,,,,,,,,,,,,
,,,,,,,,,R_PY9yvBjC7fW34RP,2022-09-08_12h55.21.611,jpn_C03,2022.1.2,MacIntel,62.5,,,space,2.193,0,26,26,36,1,プミ　ピク　シド　ピポ,,,CartoonStims/artist_punch_doctor_r_no.jpg,audio/pumipikusidopipo.mp3,,,,,,,,,,,,,,,,,,,,,,,,,,,,,,,,,,,,,,,,,,,,,,,,,,,,,,,,,,,,,,,,,,,,,
,,,,,,,,,R_PY9yvBjC7fW34RP,2022-09-08_12h55.21.611,jpn_C03,2022.1.2,MacIntel,62.5,,,space,3.034,0,27,27,30,1,パツ　ピク　ムク　シド,,,CartoonStims/cowboy_shoot_artist_r_no.jpg,audio/patsupikumukusido.mp3,,,,,,,,,,,,,,,,,,,,,,,,,,,,,,,,,,,,,,,,,,,,,,,,,,,,,,,,,,,,,,,,,,,,,
,,,,,,,,,R_PY9yvBjC7fW34RP,2022-09-08_12h55.21.611,jpn_C03,2022.1.2,MacIntel,62.5,,,space,2.795,0,28,28,22,1,トマ　ピク　ドキ　ルピン,,,CartoonStims/boxer_point_burglar_r_no.jpg,audio/tomapikudokilupin.mp3,,,,,,,,,,,,,,,,,,,,,,,,,,,,,,,,,,,,,,,,,,,,,,,,,,,,,,,,,,,,,,,,,,,,,
,,,,,,,,,R_PY9yvBjC7fW34RP,2022-09-08_12h55.21.611,jpn_C03,2022.1.2,MacIntel,62.5,,,space,5.439,0,29,29,32,1,パツ　ピク　ピポ　ルピン,,,CartoonStims/doctor_shoot_burglar_r_no.jpg,audio/patsupikupipolupin.mp3,,,,,,,,,,,,,,,,,,,,,,,,,,,,,,,,,,,,,,,,,,,,,,,,,,,,,,,,,,,,,,,,,,,,,
,,,,,,,,,R_PY9yvBjC7fW34RP,2022-09-08_12h55.21.611,jpn_C03,2022.1.2,MacIntel,62.5,,,space,1.168,0,30,30,33,1,パツ　ピク　ピポ　ホレト,,,CartoonStims/doctor_shoot_chef_r_no.jpg,audio/patsupikupipohoreto.mp3,,,,,,,,,,,,,,,,,,,,,,,,,,,,,,,,,,,,,,,,,,,,,,,,,,,,,,,,,,,,,,,,,,,,,
,,,,,,,,,R_PY9yvBjC7fW34RP,2022-09-08_12h55.21.611,jpn_C03,2022.1.2,MacIntel,62.5,,,space,2.139,0,31,31,2,1,セル　ピク　ルピン　ホレト,,,CartoonStims/burglar_kick_chef_r_no.jpg,audio/serupikulupinhoreto.mp3,,,,,,,,,,,,,,,,,,,,,,,,,,,,,,,,,,,,,,,,,,,,,,,,,,,,,,,,,,,,,,,,,,,,,
,,,,,,,,,R_PY9yvBjC7fW34RP,2022-09-08_12h55.21.611,jpn_C03,2022.1.2,MacIntel,62.5,,,space,1.899,0,32,32,24,1,パツ　ピク　シド　ムク,,,CartoonStims/artist_shoot_cowboy_r_no.jpg,audio/patsupikusidomuku.mp3,,,,,,,,,,,,,,,,,,,,,,,,,,,,,,,,,,,,,,,,,,,,,,,,,,,,,,,,,,,,,,,,,,,,,
,,,,,,,,,R_PY9yvBjC7fW34RP,2022-09-08_12h55.21.611,jpn_C03,2022.1.2,MacIntel,62.5,,,space,2.208,0,33,33,12,1,トマ　ピク　シド　ホレト,,,CartoonStims/artist_point_chef_r_no.jpg,audio/tomapikusidohoreto.mp3,,,,,,,,,,,,,,,,,,,,,,,,,,,,,,,,,,,,,,,,,,,,,,,,,,,,,,,,,,,,,,,,,,,,,
,,,,,,,,,R_PY9yvBjC7fW34RP,2022-09-08_12h55.21.611,jpn_C03,2022.1.2,MacIntel,62.5,,,space,2.766,0,34,34,46,1,ピク　プミ　ドキ　ムク,,,CartoonStims/boxer_punch_cowboy_r_no.jpg,audio/pikupumidokimuku.mp3,,,,,,,,,,,,,,,,,,,,,,,,,,,,,,,,,,,,,,,,,,,,,,,,,,,,,,,,,,,,,,,,,,,,,
,,,,,,,,,R_PY9yvBjC7fW34RP,2022-09-08_12h55.21.611,jpn_C03,2022.1.2,MacIntel,62.5,,,space,3.284,0,35,35,25,1,ピク　パツ　シド　ピポ,,,CartoonStims/artist_shoot_doctor_r_no.jpg,audio/pikupatsusidopipo.mp3,,,,,,,,,,,,,,,,,,,,,,,,,,,,,,,,,,,,,,,,,,,,,,,,,,,,,,,,,,,,,,,,,,,,,
,,,,,,,,,R_PY9yvBjC7fW34RP,2022-09-08_12h55.21.611,jpn_C03,2022.1.2,MacIntel,62.5,,,space,6.706,0,36,36,45,1,プミ　ピク　ピポ　ムク,,,CartoonStims/doctor_punch_cowboy_r_no.jpg,audio/pumipikupipomuku.mp3,,,,,,,,,,,,,,,,,,,,,,,,,,,,,,,,,,,,,,,,,,,,,,,,,,,,,,,,,,,,,,,,,,,,,
,,,,,,,,,R_PY9yvBjC7fW34RP,2022-09-08_12h55.21.611,jpn_C03,2022.1.2,MacIntel,62.5,,,space,2.09,0,37,37,39,1,プミ　ピク　ルピン　シド,,,CartoonStims/burglar_punch_artist_r_no.jpg,audio/pumipikulupinsido.mp3,,,,,,,,,,,,,,,,,,,,,,,,,,,,,,,,,,,,,,,,,,,,,,,,,,,,,,,,,,,,,,,,,,,,,
,,,,,,,,,R_PY9yvBjC7fW34RP,2022-09-08_12h55.21.611,jpn_C03,2022.1.2,MacIntel,62.5,,,space,14.573,0,38,38,19,1,ピク　トマ　ムク　シド,,,CartoonStims/cowboy_point_artist_r_no.jpg,audio/pikutomamukusido.mp3,,,,,,,,,,,,,,,,,,,,,,,,,,,,,,,,,,,,,,,,,,,,,,,,,,,,,,,,,,,,,,,,,,,,,
,,,,,,,,,R_PY9yvBjC7fW34RP,2022-09-08_12h55.21.611,jpn_C03,2022.1.2,MacIntel,62.5,,,space,1.027,0,39,39,8,1,ピク　セル　ピポ　ドキ,,,CartoonStims/doctor_kick_boxer_r_no.jpg,audio/pikuserupipodoki.mp3,,,,,,,,,,,,,,,,,,,,,,,,,,,,,,,,,,,,,,,,,,,,,,,,,,,,,,,,,,,,,,,,,,,,,
,,,,,,,,,R_PY9yvBjC7fW34RP,2022-09-08_12h55.21.611,jpn_C03,2022.1.2,MacIntel,62.5,,,space,6.993,0,40,40,9,1,セル　ピク　ピポ　シド,,,CartoonStims/doctor_kick_artist_r_no.jpg,audio/serupikupiposido.mp3,,,,,,,,,,,,,,,,,,,,,,,,,,,,,,,,,,,,,,,,,,,,,,,,,,,,,,,,,,,,,,,,,,,,,
,,,,,,,,,R_PY9yvBjC7fW34RP,2022-09-08_12h55.21.611,jpn_C03,2022.1.2,MacIntel,62.5,,,space,1.167,0,41,41,31,1,パツ　ピク　ムク　ルピン,,,CartoonStims/cowboy_shoot_burglar_r_no.jpg,audio/patsupikumukulupin.mp3,,,,,,,,,,,,,,,,,,,,,,,,,,,,,,,,,,,,,,,,,,,,,,,,,,,,,,,,,,,,,,,,,,,,,
,,,,,,,,,R_PY9yvBjC7fW34RP,2022-09-08_12h55.21.611,jpn_C03,2022.1.2,MacIntel,62.5,,,space,1.558,0,42,42,21,1,トマ　ピク　ピポ　ルピン,,,CartoonStims/doctor_point_burglar_r_no.jpg,audio/tomapikupipolupin.mp3,,,,,,,,,,,,,,,,,,,,,,,,,,,,,,,,,,,,,,,,,,,,,,,,,,,,,,,,,,,,,,,,,,,,,
,,,,,,,,,R_PY9yvBjC7fW34RP,2022-09-08_12h55.21.611,jpn_C03,2022.1.2,MacIntel,62.5,,,space,1.819,0,43,43,41,1,プミ　ピク　ホレト　ルピン,,,CartoonStims/chef_punch_burglar_r_no.jpg,audio/pumipikuhoretolupin.mp3,,,,,,,,,,,,,,,,,,,,,,,,,,,,,,,,,,,,,,,,,,,,,,,,,,,,,,,,,,,,,,,,,,,,,
,,,,,,,,,R_PY9yvBjC7fW34RP,2022-09-08_12h55.21.611,jpn_C03,2022.1.2,MacIntel,62.5,,,space,1.432,0,44,44,26,1,パツ　ピク　ルピン　ピポ,,,CartoonStims/burglar_shoot_doctor_r_no.jpg,audio/patsupikulupinpipo.mp3,,,,,,,,,,,,,,,,,,,,,,,,,,,,,,,,,,,,,,,,,,,,,,,,,,,,,,,,,,,,,,,,,,,,,
,,,,,,,,,R_PY9yvBjC7fW34RP,2022-09-08_12h55.21.611,jpn_C03,2022.1.2,MacIntel,62.5,,,space,1.423,0,45,45,27,1,ピク　パツ　ルピン　ドキ,,,CartoonStims/burglar_shoot_boxer_r_no.jpg,audio/pikupatsulupindoki.mp3,,,,,,,,,,,,,,,,,,,,,,,,,,,,,,,,,,,,,,,,,,,,,,,,,,,,,,,,,,,,,,,,,,,,,
,,,,,,,,,R_PY9yvBjC7fW34RP,2022-09-08_12h55.21.611,jpn_C03,2022.1.2,MacIntel,62.5,,,space,2.241,0,46,46,16,1,トマ　ピク　ホレト　ピポ,,,CartoonStims/chef_point_doctor_r_no.jpg,audio/tomapikuhoretopipo.mp3,,,,,,,,,,,,,,,,,,,,,,,,,,,,,,,,,,,,,,,,,,,,,,,,,,,,,,,,,,,,,,,,,,,,,
,,,,,,,,,R_PY9yvBjC7fW34RP,2022-09-08_12h55.21.611,jpn_C03,2022.1.2,MacIntel,62.5,,,space,3.167,0,47,47,37,1,プミ　ピク　シド　ドキ,,,CartoonStims/artist_punch_boxer_r_no.jpg,audio/pumipikusidodoki.mp3,,,,,,,,,,,,,,,,,,,,,,,,,,,,,,,,,,,,,,,,,,,,,,,,,,,,,,,,,,,,,,,,,,,,,
,,,,,,,,,R_PY9yvBjC7fW34RP,2022-09-08_12h55.21.611,jpn_C03,2022.1.2,MacIntel,62.5,,,,,,,,,,,,,,,space,0.872,left,0,5.617,,,,,,,,,,,,,,,,,,,,,,,,,,,,,,,,,,,,,,,,,,,,,,,,,,,,,,,,,0,0,0,0,1,,,
,,,,,,,,,R_PY9yvBjC7fW34RP,2022-09-08_12h55.21.611,jpn_C03,2022.1.2,MacIntel,62.5,,,,,,,,,,,,,,,,,,,,,,,,,0,0,0,5,1,CartoonStims/boxer_kick_cowboy_r.jpg,セル　ピク　ドキ　ムク,CartoonStims/boxer_punch_cowboy_r.jpg,right,CartoonStims/boxer_punch_cowboy_r.jpg,audio/serupikudokimuku.mp3,"残念！ こちらが正しい画像です。

否定文は起きていないことを示しているのを思い出してください。",,,,,,,,,,,,,,,,,,,,,,,,,,,,,,,,,,,,,,,,,,,,,,,
,,,,,,,,,R_PY9yvBjC7fW34RP,2022-09-08_12h55.21.611,jpn_C03,2022.1.2,MacIntel,62.5,,,,,,,,,,,,,,,,,right,1,3.724,,,,,,,,,,,,,,,,,,0,0,0,0,1,,,,,,,,,,,,,,,,,,,,,,,,,,,,,,,,,,,,,,,,,,
,,,,,,,,,R_PY9yvBjC7fW34RP,2022-09-08_12h55.21.611,jpn_C03,2022.1.2,MacIntel,62.5,,,,,,,,,,,,,,,,,,,,,,,,,0,1,1,11,1,CartoonStims/chef_shoot_burglar_r.jpg,パツ　ピク　ホレト　ルピン,CartoonStims/chef_kick_burglar_r.jpg,right,CartoonStims/chef_kick_burglar_r.jpg,audio/patsupikuhoretolupin.mp3,"残念！ こちらが正しい画像です。

否定文は起きていないことを示しているのを思い出してください。",,,,,,,,,,,,,,,,,,,,,,,,,,,,,,,,,,,,,,,,,,,,,,,
,,,,,,,,,R_PY9yvBjC7fW34RP,2022-09-08_12h55.21.611,jpn_C03,2022.1.2,MacIntel,62.5,,,,,,,,,,,,,,,,,left,1,7.701,0,0,0,0,1,,,,,,,,,,,,,,,,,,,,,,,,,,,,,,,,,,,,,,,,,,,,,,,,,,,,,,,,,,,
,,,,,,,,,R_PY9yvBjC7fW34RP,2022-09-08_12h55.21.611,jpn_C03,2022.1.2,MacIntel,62.5,,,,,,,,,,,,,,,,,,,,,,,,,0,2,2,0,1,CartoonStims/artist_shoot_burglar_r.jpg,ピク　プミ　シド　ルピン,CartoonStims/artist_punch_burglar_r.jpg,left,CartoonStims/artist_shoot_burglar_r.jpg,audio/pikupumisidolupin.mp3,"残念！ こちらが正しい画像です。

否定文は起きていないことを示しているのを思い出してください。",,,,,,,,,,,,,,,,,,,,,,,,,,,,,,,,,,,,,,,,,,,,,,,
,,,,,,,,,R_PY9yvBjC7fW34RP,2022-09-08_12h55.21.611,jpn_C03,2022.1.2,MacIntel,62.5,,,,,,,,,,,,,,,,,right,1,0.958,,,,,,,,,,,,,,,,,,0,0,0,0,1,,,,,,,,,,,,,,,,,,,,,,,,,,,,,,,,,,,,,,,,,,
,,,,,,,,,R_PY9yvBjC7fW34RP,2022-09-08_12h55.21.611,jpn_C03,2022.1.2,MacIntel,62.5,,,,,,,,,,,,,,,,,,,,,,,,,0,3,3,9,1,CartoonStims/boxer_shoot_doctor_r.jpg,パツ　ピク　ドキ　ピポ,CartoonStims/boxer_point_doctor_r.jpg,right,CartoonStims/boxer_point_doctor_r.jpg,audio/patsupikudokipipo.mp3,"残念！ こちらが正しい画像です。

否定文は起きていないことを示しているのを思い出してください。",,,,,,,,,,,,,,,,,,,,,,,,,,,,,,,,,,,,,,,,,,,,,,,
,,,,,,,,,R_PY9yvBjC7fW34RP,2022-09-08_12h55.21.611,jpn_C03,2022.1.2,MacIntel,62.5,,,,,,,,,,,,,,,,,left,1,2.299,0,0,0,0,1,,,,,,,,,,,,,,,,,,,,,,,,,,,,,,,,,,,,,,,,,,,,,,,,,,,,,,,,,,,
,,,,,,,,,R_PY9yvBjC7fW34RP,2022-09-08_12h55.21.611,jpn_C03,2022.1.2,MacIntel,62.5,,,,,,,,,,,,,,,,,,,,,,,,,0,4,4,4,1,CartoonStims/burglar_shoot_doctor_r.jpg,セル　ピク　ルピン　ピポ,CartoonStims/burglar_kick_doctor_r.jpg,left,CartoonStims/burglar_shoot_doctor_r.jpg,audio/serupikulupinpipo.mp3,"残念！ こちらが正しい画像です。

否定文は起きていないことを示しているのを思い出してください。",,,,,,,,,,,,,,,,,,,,,,,,,,,,,,,,,,,,,,,,,,,,,,,
,,,,,,,,,R_PY9yvBjC7fW34RP,2022-09-08_12h55.21.611,jpn_C03,2022.1.2,MacIntel,62.5,,,,,,,,,,,,,,,,,right,1,1.467,,,,,,,,,,,,,,,,,,0,0,0,0,1,,,,,,,,,,,,,,,,,,,,,,,,,,,,,,,,,,,,,,,,,,
,,,,,,,,,R_PY9yvBjC7fW34RP,2022-09-08_12h55.21.611,jpn_C03,2022.1.2,MacIntel,62.5,,,,,,,,,,,,,,,,,,,,,,,,,0,5,5,3,1,CartoonStims/chef_kick_artist_r.jpg,ピク　セル　ホレト　シド,CartoonStims/chef_point_artist_r.jpg,right,CartoonStims/chef_point_artist_r.jpg,audio/pikuseruhoretosido.mp3,"残念！ こちらが正しい画像です。

否定文は起きていないことを示しているのを思い出してください。",,,,,,,,,,,,,,,,,,,,,,,,,,,,,,,,,,,,,,,,,,,,,,,
,,,,,,,,,R_PY9yvBjC7fW34RP,2022-09-08_12h55.21.611,jpn_C03,2022.1.2,MacIntel,62.5,,,,,,,,,,,,,,,,,right,1,1.385,,,,,,,,,,,,,,,,,,0,0,0,0,1,,,,,,,,,,,,,,,,,,,,,,,,,,,,,,,,,,,,,,,,,,
,,,,,,,,,R_PY9yvBjC7fW34RP,2022-09-08_12h55.21.611,jpn_C03,2022.1.2,MacIntel,62.5,,,,,,,,,,,,,,,,,,,,,,,,,0,6,6,1,1,CartoonStims/chef_punch_cowboy_r.jpg,プミ　ピク　ホレト　ムク,CartoonStims/chef_kick_cowboy_r.jpg,right,CartoonStims/chef_kick_cowboy_r.jpg,audio/pumipikuhoretomuku.mp3,"残念！ こちらが正しい画像です。

否定文は起きていないことを示しているのを思い出してください。",,,,,,,,,,,,,,,,,,,,,,,,,,,,,,,,,,,,,,,,,,,,,,,
,,,,,,,,,R_PY9yvBjC7fW34RP,2022-09-08_12h55.21.611,jpn_C03,2022.1.2,MacIntel,62.5,,,,,,,,,,,,,,,,,right,1,1.108,,,,,,,,,,,,,,,,,,0,0,0,0,1,,,,,,,,,,,,,,,,,,,,,,,,,,,,,,,,,,,,,,,,,,
,,,,,,,,,R_PY9yvBjC7fW34RP,2022-09-08_12h55.21.611,jpn_C03,2022.1.2,MacIntel,62.5,,,,,,,,,,,,,,,,,,,,,,,,,0,7,7,7,1,CartoonStims/cowboy_point_chef_r.jpg,ピク　トマ　ムク　ホレト,CartoonStims/cowboy_kick_chef_r.jpg,right,CartoonStims/cowboy_kick_chef_r.jpg,audio/pikutomamukuhoreto.mp3,"残念！ こちらが正しい画像です。

否定文は起きていないことを示しているのを思い出してください。",,,,,,,,,,,,,,,,,,,,,,,,,,,,,,,,,,,,,,,,,,,,,,,
,,,,,,,,,R_PY9yvBjC7fW34RP,2022-09-08_12h55.21.611,jpn_C03,2022.1.2,MacIntel,62.5,,,,,,,,,,,,,,,,,left,1,0.936,0,0,0,0,1,,,,,,,,,,,,,,,,,,,,,,,,,,,,,,,,,,,,,,,,,,,,,,,,,,,,,,,,,,,
,,,,,,,,,R_PY9yvBjC7fW34RP,2022-09-08_12h55.21.611,jpn_C03,2022.1.2,MacIntel,62.5,,,,,,,,,,,,,,,,,,,,,,,,,0,8,8,10,1,CartoonStims/doctor_punch_cowboy_r.jpg,ピク　パツ　ピポ　ムク,CartoonStims/doctor_shoot_cowboy_r.jpg,left,CartoonStims/doctor_punch_cowboy_r.jpg,audio/pikupatsupipomuku.mp3,"残念！ こちらが正しい画像です。

否定文は起きていないことを示しているのを思い出してください。",,,,,,,,,,,,,,,,,,,,,,,,,,,,,,,,,,,,,,,,,,,,,,,
,,,,,,,,,R_PY9yvBjC7fW34RP,2022-09-08_12h55.21.611,jpn_C03,2022.1.2,MacIntel,62.5,,,,,,,,,,,,,,,,,left,1,2.318,0,0,0,0,1,,,,,,,,,,,,,,,,,,,,,,,,,,,,,,,,,,,,,,,,,,,,,,,,,,,,,,,,,,,
,,,,,,,,,R_PY9yvBjC7fW34RP,2022-09-08_12h55.21.611,jpn_C03,2022.1.2,MacIntel,62.5,,,,,,,,,,,,,,,,,,,,,,,,,0,9,9,6,1,CartoonStims/artist_shoot_boxer_r.jpg,トマ　ピク　シド　ドキ,CartoonStims/artist_point_boxer_r.jpg,left,CartoonStims/artist_shoot_boxer_r.jpg,audio/tomapikusidodoki.mp3,"残念！ こちらが正しい画像です。

否定文は起きていないことを示しているのを思い出してください。",,,,,,,,,,,,,,,,,,,,,,,,,,,,,,,,,,,,,,,,,,,,,,,
,,,,,,,,,R_PY9yvBjC7fW34RP,2022-09-08_12h55.21.611,jpn_C03,2022.1.2,MacIntel,62.5,,,,,,,,,,,,,,,,,left,1,2.316,0,0,0,0,1,,,,,,,,,,,,,,,,,,,,,,,,,,,,,,,,,,,,,,,,,,,,,,,,,,,,,,,,,,,
,,,,,,,,,R_PY9yvBjC7fW34RP,2022-09-08_12h55.21.611,jpn_C03,2022.1.2,MacIntel,62.5,,,,,,,,,,,,,,,,,,,,,,,,,0,10,10,2,1,CartoonStims/doctor_point_boxer_r.jpg,プミ　ピク　ピポ　ドキ,CartoonStims/doctor_punch_boxer_r.jpg,left,CartoonStims/doctor_point_boxer_r.jpg,audio/pumipikupipodoki.mp3,"残念！ こちらが正しい画像です。

否定文は起きていないことを示しているのを思い出してください。",,,,,,,,,,,,,,,,,,,,,,,,,,,,,,,,,,,,,,,,,,,,,,,
,,,,,,,,,R_PY9yvBjC7fW34RP,2022-09-08_12h55.21.611,jpn_C03,2022.1.2,MacIntel,62.5,,,,,,,,,,,,,,,,,left,1,2.954,0,0,0,0,1,,,,,,,,,,,,,,,,,,,,,,,,,,,,,,,,,,,,,,,,,,,,,,,,,,,,,,,,,,,
,,,,,,,,,R_PY9yvBjC7fW34RP,2022-09-08_12h55.21.611,jpn_C03,2022.1.2,MacIntel,62.5,,,,,,,,,,,,,,,,,,,,,,,,,0,11,11,8,1,CartoonStims/burglar_punch_artist_r.jpg,トマ　ピク　ルピン　シド,CartoonStims/burglar_point_artist_r.jpg,left,CartoonStims/burglar_punch_artist_r.jpg,audio/tomapikulupinsido.mp3,"残念！ こちらが正しい画像です。

否定文は起きていないことを示しているのを思い出してください。",,,,,,,,,,,,,,,,,,,,,,,,,,,,,,,,,,,,,,,,,,,,,,,
,,,,,,,,,R_PY9yvBjC7fW34RP,2022-09-08_12h55.21.611,jpn_C03,2022.1.2,MacIntel,62.5,,,,,,,,,,,,,CartoonStims/boxer_punch_artist_r.jpg,,,,,,,,,,,,,,,,,,,,,,,,,,,,,space,7.125,,right,9.138,,,,,,0,0,0,35,1,,,,,,,,,,,,,,,,,,,,,,,,,プミ　ドキ　シド,プミ　ドキ　シド,0
,,,,,,,,,R_PY9yvBjC7fW34RP,2022-09-08_12h55.21.611,jpn_C03,2022.1.2,MacIntel,62.5,,,,,,,,,,,,,CartoonStims/artist_point_burglar_r_no.jpg,,,,,,,,,,,,,,,,,,,,,,,,,,,,,,,トマ　ピク　シド　ルピン,right,20.444,,,,,,0,1,1,6,1,,,,,,,,,,,,,,,,,,,,,,,,,ピク　トマ　シド　ルピン,トマ　ピク　シド　ルピン,1
,,,,,,,,,R_PY9yvBjC7fW34RP,2022-09-08_12h55.21.611,jpn_C03,2022.1.2,MacIntel,62.5,,,,,,,,,,,,,CartoonStims/burglar_shoot_cowboy_r_no.jpg,,,,,,,,,,,,,,,,,,,,,,,,,,,,,,,パツ　ピク　ルピン　ムク,right,19.127,,,,,,0,2,2,13,1,,,,,,,,,,,,,,,,,,,,,,,,,ピク　パツ　ルピン　ムク,パツ　ピク　ルピン　ムク,1
,,,,,,,,,R_PY9yvBjC7fW34RP,2022-09-08_12h55.21.611,jpn_C03,2022.1.2,MacIntel,62.5,,,,,,,,,,,,,CartoonStims/doctor_shoot_artist_r_no.jpg,,,,,,,,,,,,,,,,,,,,,,,,,,,,,,,パツ　ピク　ピポ　シド,right,21.658,,,,,,0,3,3,16,1,,,,,,,,,,,,,,,,,,,,,,,,,ピク　パツ　ピポ　シド,パツ　ピク　ピポ　シド,1
,,,,,,,,,R_PY9yvBjC7fW34RP,2022-09-08_12h55.21.611,jpn_C03,2022.1.2,MacIntel,62.5,,,,,,,,,,,,,CartoonStims/doctor_point_boxer_r_no.jpg,,,,,,,,,,,,,,,,,,,,,,,,,,,,,,,トマ　ピク　ピポ　ドキ,right,12.597,,,,,,0,4,4,10,1,,,,,,,,,,,,,,,,,,,,,,,,,ピク　トマ　ピポ　ドキ,トマ　ピク　ピポ　ドキ,1
,,,,,,,,,R_PY9yvBjC7fW34RP,2022-09-08_12h55.21.611,jpn_C03,2022.1.2,MacIntel,62.5,,,,,,,,,,,,,CartoonStims/boxer_point_artist_r_no.jpg,,,,,,,,,,,,,,,,,,,,,,,,,,,,,,,トマ　ピク　ドキ　シド,right,11.112,,,,,,0,5,5,11,1,,,,,,,,,,,,,,,,,,,,,,,,,ピク　トマ　ドキ　シド,トマ　ピク　ドキ　シド,1
,,,,,,,,,R_PY9yvBjC7fW34RP,2022-09-08_12h55.21.611,jpn_C03,2022.1.2,MacIntel,62.5,,,,,,,,,,,,,CartoonStims/chef_punch_boxer_r_no.jpg,,,,,,,,,,,,,,,,,,,,,,,,,,,,,,,プミ　ピク　ホレト　ドキ,right,15.369,,,,,,0,6,6,20,1,,,,,,,,,,,,,,,,,,,,,,,,,ピク　プミ　ホレト　ドキ,プミ　ピク　ホレト　ドキ,1
,,,,,,,,,R_PY9yvBjC7fW34RP,2022-09-08_12h55.21.611,jpn_C03,2022.1.2,MacIntel,62.5,,,,,,,,,,,,,CartoonStims/doctor_kick_chef_r.jpg,,,,,,,,,,,,,,,,,,,,,,,,,,,,,,,セル　ピポ　ホレト,right,22.815,,,,,,0,7,7,25,1,,,,,,,,,,,,,,,,,,,,,,,,,セル　ピポ　ホレト,セル　ピポ　ホレト,0
,,,,,,,,,R_PY9yvBjC7fW34RP,2022-09-08_12h55.21.611,jpn_C03,2022.1.2,MacIntel,62.5,,,,,,,,,,,,,CartoonStims/boxer_kick_cowboy_r.jpg,,,,,,,,,,,,,,,,,,,,,,,,,,,,,,,セル　ドキ　ムク,right,21.83,,,,,,0,8,8,26,1,,,,,,,,,,,,,,,,,,,,,,,,,セル　ドキ　ムク,セル　ドキ　ムク,0
,,,,,,,,,R_PY9yvBjC7fW34RP,2022-09-08_12h55.21.611,jpn_C03,2022.1.2,MacIntel,62.5,,,,,,,,,,,,,CartoonStims/chef_shoot_doctor_r_no.jpg,,,,,,,,,,,,,,,,,,,,,,,,,,,,,,,パツ　ピク　ホレト　ピポ,right,13.148,,,,,,0,9,9,14,1,,,,,,,,,,,,,,,,,,,,,,,,,ピク　パツ　ホレト　ピポ,パツ　ピク　ホレト　ピポ,1
,,,,,,,,,R_PY9yvBjC7fW34RP,2022-09-08_12h55.21.611,jpn_C03,2022.1.2,MacIntel,62.5,,,,,,,,,,,,,CartoonStims/cowboy_kick_chef_r_no.jpg,,,,,,,,,,,,,,,,,,,,,,,,,,,,,,,セル　ピク　ムク　ホレト,right,16.709,,,,,,0,10,10,3,1,,,,,,,,,,,,,,,,,,,,,,,,,ピク　セル　ムク　ホレト,セル　ピク　ムク　ホレト,1
,,,,,,,,,R_PY9yvBjC7fW34RP,2022-09-08_12h55.21.611,jpn_C03,2022.1.2,MacIntel,62.5,,,,,,,,,,,,,CartoonStims/doctor_punch_burglar_r_no.jpg,,,,,,,,,,,,,,,,,,,,,,,,,,,,,,,プミ　ピク　ピポ　ルピン,right,11.77,,,,,,0,11,11,22,1,,,,,,,,,,,,,,,,,,,,,,,,,ピク　プミ　ピポ　ルピン,プミ　ピク　ピポ　ルピン,1
,,,,,,,,,R_PY9yvBjC7fW34RP,2022-09-08_12h55.21.611,jpn_C03,2022.1.2,MacIntel,62.5,,,,,,,,,,,,,CartoonStims/burglar_point_artist_r.jpg,,,,,,,,,,,,,,,,,,,,,,,,,,,,,,,トマ　ルピン　シド,right,9.916,,,,,,0,12,12,28,1,,,,,,,,,,,,,,,,,,,,,,,,,トマ　ルピン　シド,トマ　ルピン　シド,0
,,,,,,,,,R_PY9yvBjC7fW34RP,2022-09-08_12h55.21.611,jpn_C03,2022.1.2,MacIntel,62.5,,,,,,,,,,,,,CartoonStims/chef_shoot_cowboy_r.jpg,,,,,,,,,,,,,,,,,,,,,,,,,,,,,,,パツ　ホレト　ムク,right,15.533,,,,,,0,13,13,31,1,,,,,,,,,,,,,,,,,,,,,,,,,パツ　ホレト　ムク,パツ　ホレト　ムク,0
,,,,,,,,,R_PY9yvBjC7fW34RP,2022-09-08_12h55.21.611,jpn_C03,2022.1.2,MacIntel,62.5,,,,,,,,,,,,,CartoonStims/cowboy_punch_artist_r_no.jpg,,,,,,,,,,,,,,,,,,,,,,,,,,,,,,,プミ　ピク　ムク　シド,right,23.025,,,,,,0,14,14,21,1,,,,,,,,,,,,,,,,,,,,,,,,,ピク　プミ　ムク　シド,プミ　ピク　ムク　シド,1
,,,,,,,,,R_PY9yvBjC7fW34RP,2022-09-08_12h55.21.611,jpn_C03,2022.1.2,MacIntel,62.5,,,,,,,,,,,,,CartoonStims/artist_punch_burglar_r.jpg,,,,,,,,,,,,,,,,,,,,,,,,,,,,,,,プミ　シド　ルピン,right,19.142,,,,,,0,15,15,33,1,,,,,,,,,,,,,,,,,,,,,,,,,プミ　シド　ルピン,プミ　シド　ルピン,0
,,,,,,,,,R_PY9yvBjC7fW34RP,2022-09-08_12h55.21.611,jpn_C03,2022.1.2,MacIntel,62.5,,,,,,,,,,,,,CartoonStims/doctor_kick_cowboy_r_no.jpg,,,,,,,,,,,,,,,,,,,,,,,,,,,,,,,セル　ピク　ピポ　ムク,right,23.029,,,,,,0,16,16,4,1,,,,,,,,,,,,,,,,,,,,,,,,,ピク　セル　ピポ　ムク,セル　ピク　ピポ　ムク,1
,,,,,,,,,R_PY9yvBjC7fW34RP,2022-09-08_12h55.21.611,jpn_C03,2022.1.2,MacIntel,62.5,,,,,,,,,,,,,CartoonStims/chef_point_burglar_r.jpg,,,,,,,,,,,,,,,,,,,,,,,,,,,,,,,トマ　ホレト　ルピン,right,8.544,,,,,,0,17,17,29,1,,,,,,,,,,,,,,,,,,,,,,,,,トマ　ホレト　ルピン,トマ　ホレト　ルピン,0
,,,,,,,,,R_PY9yvBjC7fW34RP,2022-09-08_12h55.21.611,jpn_C03,2022.1.2,MacIntel,62.5,,,,,,,,,,,,,CartoonStims/cowboy_kick_burglar_r.jpg,,,,,,,,,,,,,,,,,,,,,,,,,,,,,,,セル　ムク　ルピン,right,8.167,,,,,,0,18,18,24,1,,,,,,,,,,,,,,,,,,,,,,,,,セル　ムク　ルピン,セル　ムク　ルピン,0
,,,,,,,,,R_PY9yvBjC7fW34RP,2022-09-08_12h55.21.611,jpn_C03,2022.1.2,MacIntel,62.5,,,,,,,,,,,,,CartoonStims/chef_point_cowboy_r_no.jpg,,,,,,,,,,,,,,,,,,,,,,,,,,,,,,,トマ　ピク　ホレト　ムク,right,16.303,,,,,,0,19,19,8,1,,,,,,,,,,,,,,,,,,,,,,,,,ピク　トマ　ホレト　ムク,トマ　ピク　ホレト　ムク,1
,,,,,,,,,R_PY9yvBjC7fW34RP,2022-09-08_12h55.21.611,jpn_C03,2022.1.2,MacIntel,62.5,,,,,,,,,,,,,CartoonStims/burglar_point_chef_r_no.jpg,,,,,,,,,,,,,,,,,,,,,,,,,,,,,,,トマ　ピク　ルピン　ホレト,right,11.111,,,,,,0,20,20,7,1,,,,,,,,,,,,,,,,,,,,,,,,,ピク　トマ　ルピン　ホレト,トマ　ピク　ルピン　ホレト,1
,,,,,,,,,R_PY9yvBjC7fW34RP,2022-09-08_12h55.21.611,jpn_C03,2022.1.2,MacIntel,62.5,,,,,,,,,,,,,CartoonStims/artist_shoot_chef_r_no.jpg,,,,,,,,,,,,,,,,,,,,,,,,,,,,,,,パツ　ピク　シド　ホレト,right,24.919,,,,,,0,21,21,12,1,,,,,,,,,,,,,,,,,,,,,,,,,ピク　パツ　シド　ホレト,パツ　ピク　シド　ホレト,1
,,,,,,,,,R_PY9yvBjC7fW34RP,2022-09-08_12h55.21.611,jpn_C03,2022.1.2,MacIntel,62.5,,,,,,,,,,,,,CartoonStims/artist_punch_cowboy_r_no.jpg,,,,,,,,,,,,,,,,,,,,,,,,,,,,,,,プミ　ピク　シド　ムク,right,14.132,,,,,,0,22,22,18,1,,,,,,,,,,,,,,,,,,,,,,,,,ピク　プミ　シド　ムク,プミ　ピク　シド　ムク,1
,,,,,,,,,R_PY9yvBjC7fW34RP,2022-09-08_12h55.21.611,jpn_C03,2022.1.2,MacIntel,62.5,,,,,,,,,,,,,CartoonStims/cowboy_shoot_doctor_r.jpg,,,,,,,,,,,,,,,,,,,,,,,,,,,,,,,パツ　ムク　ピポ,right,11.828,,,,,,0,23,23,32,1,,,,,,,,,,,,,,,,,,,,,,,,,パツ　ムク　ピポ,パツ　ムク　ピポ,0
,,,,,,,,,R_PY9yvBjC7fW34RP,2022-09-08_12h55.21.611,jpn_C03,2022.1.2,MacIntel,62.5,,,,,,,,,,,,,CartoonStims/artist_point_boxer_r.jpg,,,,,,,,,,,,,,,,,,,,,,,,,,,,,,,トマ　シド　ドキ,right,12.05,,,,,,0,24,24,27,1,,,,,,,,,,,,,,,,,,,,,,,,,トマ　シド　ドキ,トマ　シド　ドキ,0
,,,,,,,,,R_PY9yvBjC7fW34RP,2022-09-08_12h55.21.611,jpn_C03,2022.1.2,MacIntel,62.5,,,,,,,,,,,,,CartoonStims/cowboy_shoot_boxer_r_no.jpg,,,,,,,,,,,,,,,,,,,,,,,,,,,,,,,パツ　ピク　ムク　ドキ,right,12.146,,,,,,0,25,25,15,1,,,,,,,,,,,,,,,,,,,,,,,,,ピク　パツ　ムク　ドキ,パツ　ピク　ムク　ドキ,1
,,,,,,,,,R_PY9yvBjC7fW34RP,2022-09-08_12h55.21.611,jpn_C03,2022.1.2,MacIntel,62.5,,,,,,,,,,,,,CartoonStims/boxer_shoot_burglar_r_no.jpg,,,,,,,,,,,,,,,,,,,,,,,,,,,,,,,パツ　ピク　ドキ　ルピン,right,12.549,,,,,,0,26,26,17,1,,,,,,,,,,,,,,,,,,,,,,,,,ピク　パツ　ドキ　ルピン,パツ　ピク　ドキ　ルピン,1
,,,,,,,,,R_PY9yvBjC7fW34RP,2022-09-08_12h55.21.611,jpn_C03,2022.1.2,MacIntel,62.5,,,,,,,,,,,,,CartoonStims/burglar_punch_doctor_r_no.jpg,,,,,,,,,,,,,,,,,,,,,,,,,,,,,,,プミ　ピク　ルピン　ピポ,right,10.321,,,,,,0,27,27,19,1,,,,,,,,,,,,,,,,,,,,,,,,,ピク　プミ　ルピン　ピポ,プミ　ピク　ルピン　ピポ,1
,,,,,,,,,R_PY9yvBjC7fW34RP,2022-09-08_12h55.21.611,jpn_C03,2022.1.2,MacIntel,62.5,,,,,,,,,,,,,CartoonStims/boxer_kick_doctor_r_no.jpg,,,,,,,,,,,,,,,,,,,,,,,,,,,,,,,セル　ピク　ドキ　ピポ,right,10.525,,,,,,0,28,28,5,1,,,,,,,,,,,,,,,,,,,,,,,,,ピク　セル　ドキ　ピポ,セル　ピク　ドキ　ピポ,1
,,,,,,,,,R_PY9yvBjC7fW34RP,2022-09-08_12h55.21.611,jpn_C03,2022.1.2,MacIntel,62.5,,,,,,,,,,,,,CartoonStims/cowboy_point_doctor_r_no.jpg,,,,,,,,,,,,,,,,,,,,,,,,,,,,,,,トマ　ピク　ムク　ピポ,right,11.463,,,,,,0,29,29,9,1,,,,,,,,,,,,,,,,,,,,,,,,,ピク　トマ　ムク　ピポ,トマ　ピク　ムク　ピポ,1
,,,,,,,,,R_PY9yvBjC7fW34RP,2022-09-08_12h55.21.611,jpn_C03,2022.1.2,MacIntel,62.5,,,,,,,,,,,,,CartoonStims/burglar_kick_artist_r_no.jpg,,,,,,,,,,,,,,,,,,,,,,,,,,,,,,,セル　ピク　ルピン　シド,right,12.515,,,,,,0,30,30,1,1,,,,,,,,,,,,,,,,,,,,,,,,,ピク　セル　ルピン　シド,セル　ピク　ルピン　シド,1
,,,,,,,,,R_PY9yvBjC7fW34RP,2022-09-08_12h55.21.611,jpn_C03,2022.1.2,MacIntel,62.5,,,,,,,,,,,,,CartoonStims/artist_kick_boxer_r_no.jpg,,,,,,,,,,,,,,,,,,,,,,,,,,,,,,,セル　ピク　シド　ドキ,right,22.712,,,,,,0,31,31,0,1,,,,,,,,,,,,,,,,,,,,,,,,,ピク　セル　シド　ドキ,セル　ピク　シド　ドキ,1
,,,,,,,,,R_PY9yvBjC7fW34RP,2022-09-08_12h55.21.611,jpn_C03,2022.1.2,MacIntel,62.5,,,,,,,,,,,,,CartoonStims/boxer_punch_chef_r_no.jpg,,,,,,,,,,,,,,,,,,,,,,,,,,,,,,,プミ　ピク　ドキ　ホレト,right,10.913,,,,,,0,32,32,23,1,,,,,,,,,,,,,,,,,,,,,,,,,ピク　プミ　ドキ　ホレト,プミ　ピク　ドキ　ホレト,1
,,,,,,,,,R_PY9yvBjC7fW34RP,2022-09-08_12h55.21.611,jpn_C03,2022.1.2,MacIntel,62.5,,,,,,,,,,,,,CartoonStims/chef_kick_burglar_r_no.jpg,,,,,,,,,,,,,,,,,,,,,,,,,,,,,,,セル　ピク　ホレト　ルピン,right,11.109,,,,,,0,33,33,2,1,,,,,,,,,,,,,,,,,,,,,,,,,ピク　セル　ホレト　ルピン,セル　ピク　ホレト　ルピン,1
,,,,,,,,,R_PY9yvBjC7fW34RP,2022-09-08_12h55.21.611,jpn_C03,2022.1.2,MacIntel,62.5,,,,,,,,,,,,,CartoonStims/burglar_shoot_chef_r.jpg,,,,,,,,,,,,,,,,,,,,,,,,,,,,,,,パツ　ルピン　ホレト,right,11.747,,,,,,0,34,34,30,1,,,,,,,,,,,,,,,,,,,,,,,,,パツ　ルピン　ホレト,パツ　ルピン　ホレト,0
,,,,,,,,,R_PY9yvBjC7fW34RP,2022-09-08_12h55.21.611,jpn_C03,2022.1.2,MacIntel,62.5,,,,,,,,,,,,,CartoonStims/doctor_punch_boxer_r.jpg,,,,,,,,,,,,,,,,,,,,,,,,,,,,,,,,right,1.896,,,,,,0,35,35,34,1,,,,,,,,,,,,,,,,,,,,,,,,,プミ　ピポ　ドキ,プミ　ピポ　ドキ,0
,,,,,,,,,R_PY9yvBjC7fW34RP,2022-09-08_12h55.21.611,jpn_C03,2022.1.2,MacIntel,62.5,,,,,,,,,,,,,,,,,,,,,,,,,,,,,,,,,,,,,,,,,,,,,,,,,,,,,,,,,,,space,2.828,0,2,2,2,1,VNegCondition.xlsx,"ここではこの言語における否定の文を学習していただきます。引き続き注意して、 聞こえた音を復唱してください。

スペースキーを押してください。",1,VNegFCT.xlsx,ここからクイズが始まります。 スクリーンに表示されるテキストに合うイメージを選んでください。,NegTest.xlsx,1,最後にここまで学んだことをアウトプットしていただきます。 テキストボックスにあるイメージを描写するテキストを入力してください。 このタスクでは、 答え合わせは行いません。,0,これですべての実験が終わりました。 お疲れさまです。 この後はアンケートに答えていただきます。,,,,,,,,