key_resp_instr_a.keys,key_resp_instr_a.rt,key_resp_instr_b.keys,key_resp_instr_b.rt,dummy.thisRepN,dummy.thisTrialN,dummy.thisN,dummy.thisIndex,dummy.ran,participant,date,expName,psychopyVersion,OS,frameRate,key_resp_instr1.keys,key_resp_instr1.rt,key_resp.keys,key_resp.rt,exp_loop.thisRepN,exp_loop.thisTrialN,exp_loop.thisN,exp_loop.thisIndex,exp_loop.ran,Word,English,Flip,Path,Audio,key_resp_instr2.keys,key_resp_instr2.rt,key_resp_fct.keys,key_resp_fct.corr,key_resp_fct.rt,trials.thisRepN,trials.thisTrialN,trials.thisN,trials.thisIndex,trials.ran,fct_loop.thisRepN,fct_loop.thisTrialN,fct_loop.thisN,fct_loop.thisIndex,fct_loop.ran,left_img,word,right_img,correctans,correct_img,audio,incorrect_feedback,trials_4.thisRepN,trials_4.thisTrialN,trials_4.thisN,trials_4.thisIndex,trials_4.ran,trials_2.thisRepN,trials_2.thisTrialN,trials_2.thisN,trials_2.thisIndex,trials_2.ran,trials_3.thisRepN,trials_3.thisTrialN,trials_3.thisN,trials_3.thisIndex,trials_3.ran,key_resp_instr3.keys,key_resp_instr3.rt,textbox.text,key_resp_2.keys,key_resp_2.rt,fb_yn.thisRepN,fb_yn.thisTrialN,fb_yn.thisN,fb_yn.thisIndex,fb_yn.ran,gather_loop.thisRepN,gather_loop.thisTrialN,gather_loop.thisN,gather_loop.thisIndex,gather_loop.ran,Text,Wordbank,key_resp_instr4.keys,key_resp_instr4.rt,master_loop.thisRepN,master_loop.thisTrialN,master_loop.thisN,master_loop.thisIndex,master_loop.ran,exposure_file,instr_1,exp_reps,fct_file,instr_2,gather_file,gather_reps,instr_3,fReps,instr_4,NegVSentence,VNegSentence,NegTF
space,3.4581,space,6.2962,0,0,0,0,1,R_2aXOg2DGybiNRWz,2022-10-10_01h58.33.569,jpn_C03,2022.1.2,MacIntel,60.0024001,,,,,,,,,,,,,,,,,,,,,,,,,,,,,,,,,,,,,,,,,,,,,,,,,,,,,,,,,,,,,,,,,,,,,,,,,,,,,,,,,,,,,,,,
,,,,,,,,,R_2aXOg2DGybiNRWz,2022-10-10_01h58.33.569,jpn_C03,2022.1.2,MacIntel,60.0024001,space,1.6931,space,5.3941,0,0,0,0,1,シド,artist,,CartoonStims/artist_r.jpg,audio/sido.mp3,,,,,,,,,,,,,,,,,,,,,,,,,,,,,,,,,,,,,,,,,,,,,,,,,,,,,,,,,,,,,,,,,,,,,,,,,,
,,,,,,,,,R_2aXOg2DGybiNRWz,2022-10-10_01h58.33.569,jpn_C03,2022.1.2,MacIntel,60.0024001,,,space,2.3281,0,1,1,3,1,ムク,cowboy,,CartoonStims/cowboy_r.jpg,audio/muku.mp3,,,,,,,,,,,,,,,,,,,,,,,,,,,,,,,,,,,,,,,,,,,,,,,,,,,,,,,,,,,,,,,,,,,,,,,,,,
,,,,,,,,,R_2aXOg2DGybiNRWz,2022-10-10_01h58.33.569,jpn_C03,2022.1.2,MacIntel,60.0024001,,,space,0.6541,0,2,2,2,1,ホレト,chef,,CartoonStims/chef_r.jpg,audio/horeto.mp3,,,,,,,,,,,,,,,,,,,,,,,,,,,,,,,,,,,,,,,,,,,,,,,,,,,,,,,,,,,,,,,,,,,,,,,,,,
,,,,,,,,,R_2aXOg2DGybiNRWz,2022-10-10_01h58.33.569,jpn_C03,2022.1.2,MacIntel,60.0024001,,,space,1.3051,0,3,3,1,1,ルピン,burglar,,CartoonStims/burglar_r.jpg,audio/lupin.mp3,,,,,,,,,,,,,,,,,,,,,,,,,,,,,,,,,,,,,,,,,,,,,,,,,,,,,,,,,,,,,,,,,,,,,,,,,,
,,,,,,,,,R_2aXOg2DGybiNRWz,2022-10-10_01h58.33.569,jpn_C03,2022.1.2,MacIntel,60.0024001,,,space,1.7528,0,4,4,5,1,ドキ,boxer,,CartoonStims/boxer_r.jpg,audio/doki.mp3,,,,,,,,,,,,,,,,,,,,,,,,,,,,,,,,,,,,,,,,,,,,,,,,,,,,,,,,,,,,,,,,,,,,,,,,,,
,,,,,,,,,R_2aXOg2DGybiNRWz,2022-10-10_01h58.33.569,jpn_C03,2022.1.2,MacIntel,60.0024001,,,space,0.5314,0,5,5,4,1,ピポ,doctor,,CartoonStims/doctor_r.jpg,audio/pipo.mp3,,,,,,,,,,,,,,,,,,,,,,,,,,,,,,,,,,,,,,,,,,,,,,,,,,,,,,,,,,,,,,,,,,,,,,,,,,
,,,,,,,,,R_2aXOg2DGybiNRWz,2022-10-10_01h58.33.569,jpn_C03,2022.1.2,MacIntel,60.0024001,,,space,1.0559,1,0,6,4,1,ピポ,doctor,,CartoonStims/doctor_r.jpg,audio/pipo.mp3,,,,,,,,,,,,,,,,,,,,,,,,,,,,,,,,,,,,,,,,,,,,,,,,,,,,,,,,,,,,,,,,,,,,,,,,,,
,,,,,,,,,R_2aXOg2DGybiNRWz,2022-10-10_01h58.33.569,jpn_C03,2022.1.2,MacIntel,60.0024001,,,space,1.0781,1,1,7,2,1,ホレト,chef,,CartoonStims/chef_r.jpg,audio/horeto.mp3,,,,,,,,,,,,,,,,,,,,,,,,,,,,,,,,,,,,,,,,,,,,,,,,,,,,,,,,,,,,,,,,,,,,,,,,,,
,,,,,,,,,R_2aXOg2DGybiNRWz,2022-10-10_01h58.33.569,jpn_C03,2022.1.2,MacIntel,60.0024001,,,space,1.4721,1,2,8,5,1,ドキ,boxer,,CartoonStims/boxer_r.jpg,audio/doki.mp3,,,,,,,,,,,,,,,,,,,,,,,,,,,,,,,,,,,,,,,,,,,,,,,,,,,,,,,,,,,,,,,,,,,,,,,,,,
,,,,,,,,,R_2aXOg2DGybiNRWz,2022-10-10_01h58.33.569,jpn_C03,2022.1.2,MacIntel,60.0024001,,,space,0.5021,1,3,9,3,1,ムク,cowboy,,CartoonStims/cowboy_r.jpg,audio/muku.mp3,,,,,,,,,,,,,,,,,,,,,,,,,,,,,,,,,,,,,,,,,,,,,,,,,,,,,,,,,,,,,,,,,,,,,,,,,,
,,,,,,,,,R_2aXOg2DGybiNRWz,2022-10-10_01h58.33.569,jpn_C03,2022.1.2,MacIntel,60.0024001,,,space,0.6883,1,4,10,0,1,シド,artist,,CartoonStims/artist_r.jpg,audio/sido.mp3,,,,,,,,,,,,,,,,,,,,,,,,,,,,,,,,,,,,,,,,,,,,,,,,,,,,,,,,,,,,,,,,,,,,,,,,,,
,,,,,,,,,R_2aXOg2DGybiNRWz,2022-10-10_01h58.33.569,jpn_C03,2022.1.2,MacIntel,60.0024001,,,space,0.3219,1,5,11,1,1,ルピン,burglar,,CartoonStims/burglar_r.jpg,audio/lupin.mp3,,,,,,,,,,,,,,,,,,,,,,,,,,,,,,,,,,,,,,,,,,,,,,,,,,,,,,,,,,,,,,,,,,,,,,,,,,
,,,,,,,,,R_2aXOg2DGybiNRWz,2022-10-10_01h58.33.569,jpn_C03,2022.1.2,MacIntel,60.0024001,,,space,0.997,2,0,12,4,1,ピポ,doctor,,CartoonStims/doctor_r.jpg,audio/pipo.mp3,,,,,,,,,,,,,,,,,,,,,,,,,,,,,,,,,,,,,,,,,,,,,,,,,,,,,,,,,,,,,,,,,,,,,,,,,,
,,,,,,,,,R_2aXOg2DGybiNRWz,2022-10-10_01h58.33.569,jpn_C03,2022.1.2,MacIntel,60.0024001,,,space,0.2046,2,1,13,5,1,ドキ,boxer,,CartoonStims/boxer_r.jpg,audio/doki.mp3,,,,,,,,,,,,,,,,,,,,,,,,,,,,,,,,,,,,,,,,,,,,,,,,,,,,,,,,,,,,,,,,,,,,,,,,,,
,,,,,,,,,R_2aXOg2DGybiNRWz,2022-10-10_01h58.33.569,jpn_C03,2022.1.2,MacIntel,60.0024001,,,space,0.4837,2,2,14,3,1,ムク,cowboy,,CartoonStims/cowboy_r.jpg,audio/muku.mp3,,,,,,,,,,,,,,,,,,,,,,,,,,,,,,,,,,,,,,,,,,,,,,,,,,,,,,,,,,,,,,,,,,,,,,,,,,
,,,,,,,,,R_2aXOg2DGybiNRWz,2022-10-10_01h58.33.569,jpn_C03,2022.1.2,MacIntel,60.0024001,,,space,0.5808,2,3,15,0,1,シド,artist,,CartoonStims/artist_r.jpg,audio/sido.mp3,,,,,,,,,,,,,,,,,,,,,,,,,,,,,,,,,,,,,,,,,,,,,,,,,,,,,,,,,,,,,,,,,,,,,,,,,,
,,,,,,,,,R_2aXOg2DGybiNRWz,2022-10-10_01h58.33.569,jpn_C03,2022.1.2,MacIntel,60.0024001,,,space,0.3922,2,4,16,1,1,ルピン,burglar,,CartoonStims/burglar_r.jpg,audio/lupin.mp3,,,,,,,,,,,,,,,,,,,,,,,,,,,,,,,,,,,,,,,,,,,,,,,,,,,,,,,,,,,,,,,,,,,,,,,,,,
,,,,,,,,,R_2aXOg2DGybiNRWz,2022-10-10_01h58.33.569,jpn_C03,2022.1.2,MacIntel,60.0024001,,,space,0.5053,2,5,17,2,1,ホレト,chef,,CartoonStims/chef_r.jpg,audio/horeto.mp3,,,,,,,,,,,,,,,,,,,,,,,,,,,,,,,,,,,,,,,,,,,,,,,,,,,,,,,,,,,,,,,,,,,,,,,,,,
,,,,,,,,,R_2aXOg2DGybiNRWz,2022-10-10_01h58.33.569,jpn_C03,2022.1.2,MacIntel,60.0024001,,,,,,,,,,,,,,,space,3.3744,left,1,3.5317,0,0,0,0,1,,,,,,,,,,,,,,,,,,,,,,,,,,,,,,,,,,,,,,,,,,,,,,,,,,,,,,,,,,,,,,,,
,,,,,,,,,R_2aXOg2DGybiNRWz,2022-10-10_01h58.33.569,jpn_C03,2022.1.2,MacIntel,60.0024001,,,,,,,,,,,,,,,,,,,,,,,,,0,0,0,4,1,CartoonStims/doctor_r.jpg,ピポ,CartoonStims/boxer_r.jpg,left,CartoonStims/doctor_r.jpg,audio/pipo.mp3,残念！ こちらが正しい画像です。,,,,,,,,,,,,,,,,,,,,,,,,,,,,,,,,,,,,,,,,,,,,,,,,,,,,
,,,,,,,,,R_2aXOg2DGybiNRWz,2022-10-10_01h58.33.569,jpn_C03,2022.1.2,MacIntel,60.0024001,,,,,,,,,,,,,,,,,left,0,2.5266,,,,,,,,,,,,,,,,,,0,0,0,0,1,,,,,,,,,,,,,,,,,,,,,,,,,,,,,,,,,,,,,,,,,,,,,,,
,,,,,,,,,R_2aXOg2DGybiNRWz,2022-10-10_01h58.33.569,jpn_C03,2022.1.2,MacIntel,60.0024001,,,,,,,,,,,,,,,,,,,,,,,,,0,1,1,10,1,CartoonStims/artist_r.jpg,ピポ,CartoonStims/doctor_r.jpg,right,CartoonStims/doctor_r.jpg,audio/pipo.mp3,残念！ こちらが正しい画像です。,,,,,,,,,,,,,,,,,,,,,,,,,,,,,,,,,,,,,,,,,,,,,,,,,,,,
,,,,,,,,,R_2aXOg2DGybiNRWz,2022-10-10_01h58.33.569,jpn_C03,2022.1.2,MacIntel,60.0024001,,,,,,,,,,,,,,,,,right,1,2.4387,,,,,,,,,,,,,,,,,,,,,,,0,0,0,0,1,,,,,,,,,,,,,,,,,,,,,,,,,,,,,,,,,,,,,,,,,,
,,,,,,,,,R_2aXOg2DGybiNRWz,2022-10-10_01h58.33.569,jpn_C03,2022.1.2,MacIntel,60.0024001,,,,,,,,,,,,,,,,,,,,,,,,,0,2,2,9,1,CartoonStims/boxer_r.jpg,ムク,CartoonStims/cowboy_r.jpg,right,CartoonStims/cowboy_r.jpg,audio/muku.mp3,残念！ こちらが正しい画像です。,,,,,,,,,,,,,,,,,,,,,,,,,,,,,,,,,,,,,,,,,,,,,,,,,,,,
,,,,,,,,,R_2aXOg2DGybiNRWz,2022-10-10_01h58.33.569,jpn_C03,2022.1.2,MacIntel,60.0024001,,,,,,,,,,,,,,,,,right,1,0.5787,,,,,,,,,,,,,,,,,,,,,,,0,0,0,0,1,,,,,,,,,,,,,,,,,,,,,,,,,,,,,,,,,,,,,,,,,,
,,,,,,,,,R_2aXOg2DGybiNRWz,2022-10-10_01h58.33.569,jpn_C03,2022.1.2,MacIntel,60.0024001,,,,,,,,,,,,,,,,,,,,,,,,,0,3,3,7,1,CartoonStims/cowboy_r.jpg,ルピン,CartoonStims/burglar_r.jpg,right,CartoonStims/burglar_r.jpg,audio/lupin.mp3,残念！ こちらが正しい画像です。,,,,,,,,,,,,,,,,,,,,,,,,,,,,,,,,,,,,,,,,,,,,,,,,,,,,
,,,,,,,,,R_2aXOg2DGybiNRWz,2022-10-10_01h58.33.569,jpn_C03,2022.1.2,MacIntel,60.0024001,,,,,,,,,,,,,,,,,left,1,1.3872,0,0,0,0,1,,,,,,,,,,,,,,,,,,,,,,,,,,,,,,,,,,,,,,,,,,,,,,,,,,,,,,,,,,,,,,,,
,,,,,,,,,R_2aXOg2DGybiNRWz,2022-10-10_01h58.33.569,jpn_C03,2022.1.2,MacIntel,60.0024001,,,,,,,,,,,,,,,,,,,,,,,,,0,4,4,5,1,CartoonStims/boxer_r.jpg,ドキ,CartoonStims/artist_r.jpg,left,CartoonStims/boxer_r.jpg,audio/doki.mp3,残念！ こちらが正しい画像です。,,,,,,,,,,,,,,,,,,,,,,,,,,,,,,,,,,,,,,,,,,,,,,,,,,,,
,,,,,,,,,R_2aXOg2DGybiNRWz,2022-10-10_01h58.33.569,jpn_C03,2022.1.2,MacIntel,60.0024001,,,,,,,,,,,,,,,,,left,1,3.0406,0,0,0,0,1,,,,,,,,,,,,,,,,,,,,,,,,,,,,,,,,,,,,,,,,,,,,,,,,,,,,,,,,,,,,,,,,
,,,,,,,,,R_2aXOg2DGybiNRWz,2022-10-10_01h58.33.569,jpn_C03,2022.1.2,MacIntel,60.0024001,,,,,,,,,,,,,,,,,,,,,,,,,0,5,5,2,1,CartoonStims/chef_r.jpg,ホレト,CartoonStims/cowboy_r.jpg,left,CartoonStims/chef_r.jpg,audio/horeto.mp3,残念！ こちらが正しい画像です。,,,,,,,,,,,,,,,,,,,,,,,,,,,,,,,,,,,,,,,,,,,,,,,,,,,,
,,,,,,,,,R_2aXOg2DGybiNRWz,2022-10-10_01h58.33.569,jpn_C03,2022.1.2,MacIntel,60.0024001,,,,,,,,,,,,,,,,,right,0,1.7841,,,,,,,,,,,,,,,,,,,,,,,,,,,,0,0,0,0,1,,,,,,,,,,,,,,,,,,,,,,,,,,,,,,,,,,,,,
,,,,,,,,,R_2aXOg2DGybiNRWz,2022-10-10_01h58.33.569,jpn_C03,2022.1.2,MacIntel,60.0024001,,,,,,,,,,,,,,,,,,,,,,,,,0,6,6,3,1,CartoonStims/cowboy_r.jpg,ムク,CartoonStims/doctor_r.jpg,left,CartoonStims/cowboy_r.jpg,audio/muku.mp3,残念！ こちらが正しい画像です。,,,,,,,,,,,,,,,,,,,,,,,,,,,,,,,,,,,,,,,,,,,,,,,,,,,,
,,,,,,,,,R_2aXOg2DGybiNRWz,2022-10-10_01h58.33.569,jpn_C03,2022.1.2,MacIntel,60.0024001,,,,,,,,,,,,,,,,,right,1,1.061,,,,,,,,,,,,,,,,,,,,,,,0,0,0,0,1,,,,,,,,,,,,,,,,,,,,,,,,,,,,,,,,,,,,,,,,,,
,,,,,,,,,R_2aXOg2DGybiNRWz,2022-10-10_01h58.33.569,jpn_C03,2022.1.2,MacIntel,60.0024001,,,,,,,,,,,,,,,,,,,,,,,,,0,7,7,8,1,CartoonStims/doctor_r.jpg,ホレト,CartoonStims/chef_r.jpg,right,CartoonStims/chef_r.jpg,audio/horeto.mp3,残念！ こちらが正しい画像です。,,,,,,,,,,,,,,,,,,,,,,,,,,,,,,,,,,,,,,,,,,,,,,,,,,,,
,,,,,,,,,R_2aXOg2DGybiNRWz,2022-10-10_01h58.33.569,jpn_C03,2022.1.2,MacIntel,60.0024001,,,,,,,,,,,,,,,,,left,1,1.3549,0,0,0,0,1,,,,,,,,,,,,,,,,,,,,,,,,,,,,,,,,,,,,,,,,,,,,,,,,,,,,,,,,,,,,,,,,
,,,,,,,,,R_2aXOg2DGybiNRWz,2022-10-10_01h58.33.569,jpn_C03,2022.1.2,MacIntel,60.0024001,,,,,,,,,,,,,,,,,,,,,,,,,0,8,8,0,1,CartoonStims/artist_r.jpg,シド,CartoonStims/burglar_r.jpg,left,CartoonStims/artist_r.jpg,audio/sido.mp3,残念！ こちらが正しい画像です。,,,,,,,,,,,,,,,,,,,,,,,,,,,,,,,,,,,,,,,,,,,,,,,,,,,,
,,,,,,,,,R_2aXOg2DGybiNRWz,2022-10-10_01h58.33.569,jpn_C03,2022.1.2,MacIntel,60.0024001,,,,,,,,,,,,,,,,,right,1,0.6955,,,,,,,,,,,,,,,,,,,,,,,0,0,0,0,1,,,,,,,,,,,,,,,,,,,,,,,,,,,,,,,,,,,,,,,,,,
,,,,,,,,,R_2aXOg2DGybiNRWz,2022-10-10_01h58.33.569,jpn_C03,2022.1.2,MacIntel,60.0024001,,,,,,,,,,,,,,,,,,,,,,,,,0,9,9,11,1,CartoonStims/burglar_r.jpg,ドキ,CartoonStims/boxer_r.jpg,right,CartoonStims/boxer_r.jpg,audio/doki.mp3,残念！ こちらが正しい画像です。,,,,,,,,,,,,,,,,,,,,,,,,,,,,,,,,,,,,,,,,,,,,,,,,,,,,
,,,,,,,,,R_2aXOg2DGybiNRWz,2022-10-10_01h58.33.569,jpn_C03,2022.1.2,MacIntel,60.0024001,,,,,,,,,,,,,,,,,left,1,0.4434,0,0,0,0,1,,,,,,,,,,,,,,,,,,,,,,,,,,,,,,,,,,,,,,,,,,,,,,,,,,,,,,,,,,,,,,,,
,,,,,,,,,R_2aXOg2DGybiNRWz,2022-10-10_01h58.33.569,jpn_C03,2022.1.2,MacIntel,60.0024001,,,,,,,,,,,,,,,,,,,,,,,,,0,10,10,1,1,CartoonStims/burglar_r.jpg,ルピン,CartoonStims/chef_r.jpg,left,CartoonStims/burglar_r.jpg,audio/lupin.mp3,残念！ こちらが正しい画像です。,,,,,,,,,,,,,,,,,,,,,,,,,,,,,,,,,,,,,,,,,,,,,,,,,,,,
,,,,,,,,,R_2aXOg2DGybiNRWz,2022-10-10_01h58.33.569,jpn_C03,2022.1.2,MacIntel,60.0024001,,,,,,,,,,,,,,,,,right,1,1.6969,,,,,,,,,,,,,,,,,,,,,,,0,0,0,0,1,,,,,,,,,,,,,,,,,,,,,,,,,,,,,,,,,,,,,,,,,,
,,,,,,,,,R_2aXOg2DGybiNRWz,2022-10-10_01h58.33.569,jpn_C03,2022.1.2,MacIntel,60.0024001,,,,,,,,,,,,,,,,,,,,,,,,,0,11,11,6,1,CartoonStims/chef_r.jpg,シド,CartoonStims/artist_r.jpg,right,CartoonStims/artist_r.jpg,audio/sido.mp3,残念！ こちらが正しい画像です。,,,,,,,,,,,,,,,,,,,,,,,,,,,,,,,,,,,,,,,,,,,,,,,,,,,,
,,,,,,,,,R_2aXOg2DGybiNRWz,2022-10-10_01h58.33.569,jpn_C03,2022.1.2,MacIntel,60.0024001,,,,,,,,,,,,,,,,,,,,,,,,,,,,,,,,,,,,,,,,,,,,,,,,,,,,space,2.2727,ルピン,right,15.1582,0,0,0,0,1,,,,,,,,,,,,,,,,,,,,,,,,,,,
,,,,,,,,,R_2aXOg2DGybiNRWz,2022-10-10_01h58.33.569,jpn_C03,2022.1.2,MacIntel,60.0024001,,,,,,,,,,,,,CartoonStims/burglar_r.jpg,audio/lupin.mp3,,,,,,,,,,,,,,,,,,,,,,,,,,,,,,,,,,,,,,,,,,,,,,,,0,0,0,1,1,ルピン,,,,,,,,,,,,,,,,,,,,,
,,,,,,,,,R_2aXOg2DGybiNRWz,2022-10-10_01h58.33.569,jpn_C03,2022.1.2,MacIntel,60.0024001,,,,,,,,,,,,,,,,,,,,,,,,,,,,,,,,,,,,,,,,,,,,,,,,,,,,,,シド,right,6.7429,0,0,0,0,1,,,,,,,,,,,,,,,,,,,,,,,,,,,
,,,,,,,,,R_2aXOg2DGybiNRWz,2022-10-10_01h58.33.569,jpn_C03,2022.1.2,MacIntel,60.0024001,,,,,,,,,,,,,CartoonStims/doctor_r.jpg,audio/pipo.mp3,,,,,,,,,,,,,,,,,,,,,,,,,,,,,,,,,,,,,,,,,,,,,,,,0,1,1,4,1,ピポ,,,,,,,,,,,,,,,,,,,,,
,,,,,,,,,R_2aXOg2DGybiNRWz,2022-10-10_01h58.33.569,jpn_C03,2022.1.2,MacIntel,60.0024001,,,,,,,,,,,,,,,,,,,,,,,,,,,,,,,,,,,,,,,,,,,,,,,,,,,,,,ムク,right,6.8606,0,0,0,0,1,,,,,,,,,,,,,,,,,,,,,,,,,,,
,,,,,,,,,R_2aXOg2DGybiNRWz,2022-10-10_01h58.33.569,jpn_C03,2022.1.2,MacIntel,60.0024001,,,,,,,,,,,,,CartoonStims/cowboy_r.jpg,audio/muku.mp3,,,,,,,,,,,,,,,,,,,,,,,,,,,,,,,,,,,,,,,,,,,,,,,,0,2,2,3,1,ムク,,,,,,,,,,,,,,,,,,,,,
,,,,,,,,,R_2aXOg2DGybiNRWz,2022-10-10_01h58.33.569,jpn_C03,2022.1.2,MacIntel,60.0024001,,,,,,,,,,,,,,,,,,,,,,,,,,,,,,,,,,,,,,,,,,,,,,,,,,,,,,ホレト,right,3.391,0,0,0,0,1,,,,,,,,,,,,,,,,,,,,,,,,,,,
,,,,,,,,,R_2aXOg2DGybiNRWz,2022-10-10_01h58.33.569,jpn_C03,2022.1.2,MacIntel,60.0024001,,,,,,,,,,,,,CartoonStims/chef_r.jpg,audio/horeto.mp3,,,,,,,,,,,,,,,,,,,,,,,,,,,,,,,,,,,,,,,,,,,,,,,,0,3,3,2,1,ホレト,,,,,,,,,,,,,,,,,,,,,
,,,,,,,,,R_2aXOg2DGybiNRWz,2022-10-10_01h58.33.569,jpn_C03,2022.1.2,MacIntel,60.0024001,,,,,,,,,,,,,,,,,,,,,,,,,,,,,,,,,,,,,,,,,,,,,,,,,,,,,,ドキ,right,4.3495,0,0,0,0,1,,,,,,,,,,,,,,,,,,,,,,,,,,,
,,,,,,,,,R_2aXOg2DGybiNRWz,2022-10-10_01h58.33.569,jpn_C03,2022.1.2,MacIntel,60.0024001,,,,,,,,,,,,,CartoonStims/boxer_r.jpg,audio/doki.mp3,,,,,,,,,,,,,,,,,,,,,,,,,,,,,,,,,,,,,,,,,,,,,,,,0,4,4,5,1,ドキ,,,,,,,,,,,,,,,,,,,,,
,,,,,,,,,R_2aXOg2DGybiNRWz,2022-10-10_01h58.33.569,jpn_C03,2022.1.2,MacIntel,60.0024001,,,,,,,,,,,,,,,,,,,,,,,,,,,,,,,,,,,,,,,,,,,,,,,,,,,,,,シド,right,13.6726,0,0,0,0,1,,,,,,,,,,,,,,,,,,,,,,,,,,,
,,,,,,,,,R_2aXOg2DGybiNRWz,2022-10-10_01h58.33.569,jpn_C03,2022.1.2,MacIntel,60.0024001,,,,,,,,,,,,,CartoonStims/artist_r.jpg,audio/sido.mp3,,,,,,,,,,,,,,,,,,,,,,,,,,,,,,,,,,,,,,,,,,,,,,,,0,5,5,0,1,シド,,,,,,,,,,,,,,,,,,,,,
,,,,,,,,,R_2aXOg2DGybiNRWz,2022-10-10_01h58.33.569,jpn_C03,2022.1.2,MacIntel,60.0024001,,,,,,,,,,,,,,,,,,,,,,,,,,,,,,,,,,,,,,,,,,,,,,,,,,,,,,シド,right,3.6627,0,0,0,0,1,,,,,,,,,,,,,,,,,,,,,,,,,,,
,,,,,,,,,R_2aXOg2DGybiNRWz,2022-10-10_01h58.33.569,jpn_C03,2022.1.2,MacIntel,60.0024001,,,,,,,,,,,,,CartoonStims/artist_r.jpg,audio/sido.mp3,,,,,,,,,,,,,,,,,,,,,,,,,,,,,,,,,,,,,,,,,,,,,,,,1,0,6,0,1,シド,,,,,,,,,,,,,,,,,,,,,
,,,,,,,,,R_2aXOg2DGybiNRWz,2022-10-10_01h58.33.569,jpn_C03,2022.1.2,MacIntel,60.0024001,,,,,,,,,,,,,,,,,,,,,,,,,,,,,,,,,,,,,,,,,,,,,,,,,,,,,,ルピン,right,4.0673,0,0,0,0,1,,,,,,,,,,,,,,,,,,,,,,,,,,,
,,,,,,,,,R_2aXOg2DGybiNRWz,2022-10-10_01h58.33.569,jpn_C03,2022.1.2,MacIntel,60.0024001,,,,,,,,,,,,,CartoonStims/burglar_r.jpg,audio/lupin.mp3,,,,,,,,,,,,,,,,,,,,,,,,,,,,,,,,,,,,,,,,,,,,,,,,1,1,7,1,1,ルピン,,,,,,,,,,,,,,,,,,,,,
,,,,,,,,,R_2aXOg2DGybiNRWz,2022-10-10_01h58.33.569,jpn_C03,2022.1.2,MacIntel,60.0024001,,,,,,,,,,,,,,,,,,,,,,,,,,,,,,,,,,,,,,,,,,,,,,,,,,,,,,ムク,right,3.6285,0,0,0,0,1,,,,,,,,,,,,,,,,,,,,,,,,,,,
,,,,,,,,,R_2aXOg2DGybiNRWz,2022-10-10_01h58.33.569,jpn_C03,2022.1.2,MacIntel,60.0024001,,,,,,,,,,,,,CartoonStims/cowboy_r.jpg,audio/muku.mp3,,,,,,,,,,,,,,,,,,,,,,,,,,,,,,,,,,,,,,,,,,,,,,,,1,2,8,3,1,ムク,,,,,,,,,,,,,,,,,,,,,
,,,,,,,,,R_2aXOg2DGybiNRWz,2022-10-10_01h58.33.569,jpn_C03,2022.1.2,MacIntel,60.0024001,,,,,,,,,,,,,,,,,,,,,,,,,,,,,,,,,,,,,,,,,,,,,,,,,,,,,,ドキ,right,3.6784,0,0,0,0,1,,,,,,,,,,,,,,,,,,,,,,,,,,,
,,,,,,,,,R_2aXOg2DGybiNRWz,2022-10-10_01h58.33.569,jpn_C03,2022.1.2,MacIntel,60.0024001,,,,,,,,,,,,,CartoonStims/boxer_r.jpg,audio/doki.mp3,,,,,,,,,,,,,,,,,,,,,,,,,,,,,,,,,,,,,,,,,,,,,,,,1,3,9,5,1,ドキ,,,,,,,,,,,,,,,,,,,,,
,,,,,,,,,R_2aXOg2DGybiNRWz,2022-10-10_01h58.33.569,jpn_C03,2022.1.2,MacIntel,60.0024001,,,,,,,,,,,,,,,,,,,,,,,,,,,,,,,,,,,,,,,,,,,,,,,,,,,,,,ホレト,right,3.684,0,0,0,0,1,,,,,,,,,,,,,,,,,,,,,,,,,,,
,,,,,,,,,R_2aXOg2DGybiNRWz,2022-10-10_01h58.33.569,jpn_C03,2022.1.2,MacIntel,60.0024001,,,,,,,,,,,,,CartoonStims/chef_r.jpg,audio/horeto.mp3,,,,,,,,,,,,,,,,,,,,,,,,,,,,,,,,,,,,,,,,,,,,,,,,1,4,10,2,1,ホレト,,,,,,,,,,,,,,,,,,,,,
,,,,,,,,,R_2aXOg2DGybiNRWz,2022-10-10_01h58.33.569,jpn_C03,2022.1.2,MacIntel,60.0024001,,,,,,,,,,,,,,,,,,,,,,,,,,,,,,,,,,,,,,,,,,,,,,,,,,,,,,ピポ,right,5.5269,0,0,0,0,1,,,,,,,,,,,,,,,,,,,,,,,,,,,
,,,,,,,,,R_2aXOg2DGybiNRWz,2022-10-10_01h58.33.569,jpn_C03,2022.1.2,MacIntel,60.0024001,,,,,,,,,,,,,CartoonStims/doctor_r.jpg,audio/pipo.mp3,,,,,,,,,,,,,,,,,,,,,,,,,,,,,,,,,,,,,,,,,,,,,,,,1,5,11,4,1,ピポ,,,,,,,,,,,,,,,,,,,,,
,,,,,,,,,R_2aXOg2DGybiNRWz,2022-10-10_01h58.33.569,jpn_C03,2022.1.2,MacIntel,60.0024001,,,,,,,,,,,,,,,,,,,,,,,,,,,,,,,,,,,,,,,,,,,,,,,,,,,,,,,,,,,,,,,,,,,,,space,4.3059,0,0,0,0,1,NounExposure.xlsx,"最初のトライアルでは、 画像が表示され、 その画像の下に単語が出てきます。 またこの単語の音も聞くことができます。 この音を大きな声で復唱してください。 そしてこの画像がどのような単語を示しているのか, 考えてみてください。 その後、 続きのボタンを押すと次の単語の学習が始まります。

スペースキーを押して、学習を始めましょう。",3,NounFCT.xlsx,ここから語彙のクイズが始まります。スクリーンに表示される単語に合う画像をキーボードの右と左の矢印キーを使って選択してください。,NounTest.xlsx,2,次に、これまで学習してきたことをアウトプットしていただきます。 表示される画像を描写していると思う単語を、テキストボックスにタイプしてください。,1,"ここまでが最初のトライアルです。ここで休憩をとっても構いません。

休憩が済みましたら、スペースキーを押して続きを始めましょう。",,,
,,,,,,,,,R_2aXOg2DGybiNRWz,2022-10-10_01h58.33.569,jpn_C03,2022.1.2,MacIntel,60.0024001,space,114.5511,space,11.4719,0,0,0,8,1,セル　ピポ　ドキ,,,CartoonStims/doctor_kick_boxer_r.jpg,audio/serupipodoki.mp3,,,,,,,,,,,,,,,,,,,,,,,,,,,,,,,,,,,,,,,,,,,,,,,,,,,,,,,,,,,,,,,,,,,,,,,,,,
,,,,,,,,,R_2aXOg2DGybiNRWz,2022-10-10_01h58.33.569,jpn_C03,2022.1.2,MacIntel,60.0024001,,,space,11.2902,0,1,1,41,1,プミ　ホレト　ルピン,,,CartoonStims/chef_punch_burglar_r.jpg,audio/pumihoretolupin.mp3,,,,,,,,,,,,,,,,,,,,,,,,,,,,,,,,,,,,,,,,,,,,,,,,,,,,,,,,,,,,,,,,,,,,,,,,,,
,,,,,,,,,R_2aXOg2DGybiNRWz,2022-10-10_01h58.33.569,jpn_C03,2022.1.2,MacIntel,60.0024001,,,space,8.3244,0,2,2,27,1,パツ　ルピン　ドキ,,,CartoonStims/burglar_shoot_boxer_r.jpg,audio/patsulupindoki.mp3,,,,,,,,,,,,,,,,,,,,,,,,,,,,,,,,,,,,,,,,,,,,,,,,,,,,,,,,,,,,,,,,,,,,,,,,,,
,,,,,,,,,R_2aXOg2DGybiNRWz,2022-10-10_01h58.33.569,jpn_C03,2022.1.2,MacIntel,60.0024001,,,space,5.8578,0,3,3,16,1,トマ　ホレト　ピポ,,,CartoonStims/chef_point_doctor_r.jpg,audio/tomahoretopipo.mp3,,,,,,,,,,,,,,,,,,,,,,,,,,,,,,,,,,,,,,,,,,,,,,,,,,,,,,,,,,,,,,,,,,,,,,,,,,
,,,,,,,,,R_2aXOg2DGybiNRWz,2022-10-10_01h58.33.569,jpn_C03,2022.1.2,MacIntel,60.0024001,,,space,3.8077,0,4,4,15,1,トマ　ルピン　ピポ,,,CartoonStims/burglar_point_doctor_r.jpg,audio/tomalupinpipo.mp3,,,,,,,,,,,,,,,,,,,,,,,,,,,,,,,,,,,,,,,,,,,,,,,,,,,,,,,,,,,,,,,,,,,,,,,,,,
,,,,,,,,,R_2aXOg2DGybiNRWz,2022-10-10_01h58.33.569,jpn_C03,2022.1.2,MacIntel,60.0024001,,,space,2.7403,0,5,5,25,1,パツ　シド　ピポ,,,CartoonStims/artist_shoot_doctor_r.jpg,audio/patsusidopipo.mp3,,,,,,,,,,,,,,,,,,,,,,,,,,,,,,,,,,,,,,,,,,,,,,,,,,,,,,,,,,,,,,,,,,,,,,,,,,
,,,,,,,,,R_2aXOg2DGybiNRWz,2022-10-10_01h58.33.569,jpn_C03,2022.1.2,MacIntel,60.0024001,,,space,5.6229,0,6,6,7,1,セル　ムク　ドキ,,,CartoonStims/cowboy_kick_boxer_r.jpg,audio/serumukudoki.mp3,,,,,,,,,,,,,,,,,,,,,,,,,,,,,,,,,,,,,,,,,,,,,,,,,,,,,,,,,,,,,,,,,,,,,,,,,,
,,,,,,,,,R_2aXOg2DGybiNRWz,2022-10-10_01h58.33.569,jpn_C03,2022.1.2,MacIntel,60.0024001,,,space,4.4261,0,7,7,22,1,トマ　ドキ　ルピン,,,CartoonStims/boxer_point_burglar_r.jpg,audio/tomadokilupin.mp3,,,,,,,,,,,,,,,,,,,,,,,,,,,,,,,,,,,,,,,,,,,,,,,,,,,,,,,,,,,,,,,,,,,,,,,,,,
,,,,,,,,,R_2aXOg2DGybiNRWz,2022-10-10_01h58.33.569,jpn_C03,2022.1.2,MacIntel,60.0024001,,,space,30.3449,0,8,8,30,1,パツ　ムク　シド,,,CartoonStims/cowboy_shoot_artist_r.jpg,audio/patsumukusido.mp3,,,,,,,,,,,,,,,,,,,,,,,,,,,,,,,,,,,,,,,,,,,,,,,,,,,,,,,,,,,,,,,,,,,,,,,,,,
,,,,,,,,,R_2aXOg2DGybiNRWz,2022-10-10_01h58.33.569,jpn_C03,2022.1.2,MacIntel,60.0024001,,,space,8.2226,0,9,9,2,1,セル 　ルピン 　ホレト,,,CartoonStims/burglar_kick_chef_r.jpg,audio/serulupinhoreto.mp3,,,,,,,,,,,,,,,,,,,,,,,,,,,,,,,,,,,,,,,,,,,,,,,,,,,,,,,,,,,,,,,,,,,,,,,,,,
,,,,,,,,,R_2aXOg2DGybiNRWz,2022-10-10_01h58.33.569,jpn_C03,2022.1.2,MacIntel,60.0024001,,,space,3.5815,0,10,10,0,1,セル　シド　ルピン,,,CartoonStims/artist_kick_burglar_r.jpg,audio/serusidolupin.mp3,,,,,,,,,,,,,,,,,,,,,,,,,,,,,,,,,,,,,,,,,,,,,,,,,,,,,,,,,,,,,,,,,,,,,,,,,,
,,,,,,,,,R_2aXOg2DGybiNRWz,2022-10-10_01h58.33.569,jpn_C03,2022.1.2,MacIntel,60.0024001,,,space,3.8,0,11,11,31,1,パツ　ムク　ルピン,,,CartoonStims/cowboy_shoot_burglar_r.jpg,audio/patsumukulupin.mp3,,,,,,,,,,,,,,,,,,,,,,,,,,,,,,,,,,,,,,,,,,,,,,,,,,,,,,,,,,,,,,,,,,,,,,,,,,
,,,,,,,,,R_2aXOg2DGybiNRWz,2022-10-10_01h58.33.569,jpn_C03,2022.1.2,MacIntel,60.0024001,,,space,3.6955,0,12,12,46,1,プミ　ドキ　ムク,,,CartoonStims/boxer_punch_cowboy_r.jpg,audio/pumidokimuku.mp3,,,,,,,,,,,,,,,,,,,,,,,,,,,,,,,,,,,,,,,,,,,,,,,,,,,,,,,,,,,,,,,,,,,,,,,,,,
,,,,,,,,,R_2aXOg2DGybiNRWz,2022-10-10_01h58.33.569,jpn_C03,2022.1.2,MacIntel,60.0024001,,,space,3.8101,0,13,13,4,1,セル　ホレト　ムク,,,CartoonStims/chef_kick_cowboy_r.jpg,audio/seruhoretomuku.mp3,,,,,,,,,,,,,,,,,,,,,,,,,,,,,,,,,,,,,,,,,,,,,,,,,,,,,,,,,,,,,,,,,,,,,,,,,,
,,,,,,,,,R_2aXOg2DGybiNRWz,2022-10-10_01h58.33.569,jpn_C03,2022.1.2,MacIntel,60.0024001,,,space,2.2433,0,14,14,18,1,トマ　ムク　ドキ,,,CartoonStims/cowboy_point_boxer_r.jpg,audio/tomamukudoki.mp3,,,,,,,,,,,,,,,,,,,,,,,,,,,,,,,,,,,,,,,,,,,,,,,,,,,,,,,,,,,,,,,,,,,,,,,,,,
,,,,,,,,,R_2aXOg2DGybiNRWz,2022-10-10_01h58.33.569,jpn_C03,2022.1.2,MacIntel,60.0024001,,,space,3.7514,0,15,15,29,1,パツ　ホレト　シド,,,CartoonStims/chef_shoot_artist_r.jpg,audio/patsuhoretosido.mp3,,,,,,,,,,,,,,,,,,,,,,,,,,,,,,,,,,,,,,,,,,,,,,,,,,,,,,,,,,,,,,,,,,,,,,,,,,
,,,,,,,,,R_2aXOg2DGybiNRWz,2022-10-10_01h58.33.569,jpn_C03,2022.1.2,MacIntel,60.0024001,,,space,4.0711,0,16,16,39,1,プミ　ルピン　シド,,,CartoonStims/burglar_punch_artist_r.jpg,audio/pumilupinsido.mp3,,,,,,,,,,,,,,,,,,,,,,,,,,,,,,,,,,,,,,,,,,,,,,,,,,,,,,,,,,,,,,,,,,,,,,,,,,
,,,,,,,,,R_2aXOg2DGybiNRWz,2022-10-10_01h58.33.569,jpn_C03,2022.1.2,MacIntel,60.0024001,,,space,4.2386,0,17,17,36,1,プミ　シド　ピポ,,,CartoonStims/artist_punch_doctor_r.jpg,audio/pumisidopipo.mp3,,,,,,,,,,,,,,,,,,,,,,,,,,,,,,,,,,,,,,,,,,,,,,,,,,,,,,,,,,,,,,,,,,,,,,,,,,
,,,,,,,,,R_2aXOg2DGybiNRWz,2022-10-10_01h58.33.569,jpn_C03,2022.1.2,MacIntel,60.0024001,,,space,3.1874,0,18,18,11,1,セル　ドキ　ルピン,,,CartoonStims/boxer_kick_burglar_r.jpg,audio/serudokilupin.mp3,,,,,,,,,,,,,,,,,,,,,,,,,,,,,,,,,,,,,,,,,,,,,,,,,,,,,,,,,,,,,,,,,,,,,,,,,,
,,,,,,,,,R_2aXOg2DGybiNRWz,2022-10-10_01h58.33.569,jpn_C03,2022.1.2,MacIntel,60.0024001,,,space,4.946,0,19,19,26,1,パツ　ルピン　ピポ,,,CartoonStims/burglar_shoot_doctor_r.jpg,audio/patsulupinpipo.mp3,,,,,,,,,,,,,,,,,,,,,,,,,,,,,,,,,,,,,,,,,,,,,,,,,,,,,,,,,,,,,,,,,,,,,,,,,,
,,,,,,,,,R_2aXOg2DGybiNRWz,2022-10-10_01h58.33.569,jpn_C03,2022.1.2,MacIntel,60.0024001,,,space,2.1399,0,20,20,28,1,パツ　ホレト　ドキ,,,CartoonStims/chef_shoot_boxer_r.jpg,audio/patsuhoretodoki.mp3,,,,,,,,,,,,,,,,,,,,,,,,,,,,,,,,,,,,,,,,,,,,,,,,,,,,,,,,,,,,,,,,,,,,,,,,,,
,,,,,,,,,R_2aXOg2DGybiNRWz,2022-10-10_01h58.33.569,jpn_C03,2022.1.2,MacIntel,60.0024001,,,space,1.8225,0,21,21,35,1,パツ　ドキ　ムク,,,CartoonStims/boxer_shoot_cowboy_r.jpg,audio/patsudokimuku.mp3,,,,,,,,,,,,,,,,,,,,,,,,,,,,,,,,,,,,,,,,,,,,,,,,,,,,,,,,,,,,,,,,,,,,,,,,,,
,,,,,,,,,R_2aXOg2DGybiNRWz,2022-10-10_01h58.33.569,jpn_C03,2022.1.2,MacIntel,60.0024001,,,space,2.638,0,22,22,45,1,プミ　ピポ　ムク,,,CartoonStims/doctor_punch_cowboy_r.jpg,audio/pumipipomuku.mp3,,,,,,,,,,,,,,,,,,,,,,,,,,,,,,,,,,,,,,,,,,,,,,,,,,,,,,,,,,,,,,,,,,,,,,,,,,
,,,,,,,,,R_2aXOg2DGybiNRWz,2022-10-10_01h58.33.569,jpn_C03,2022.1.2,MacIntel,60.0024001,,,space,3.363,0,23,23,42,1,プミ　ムク　ルピン,,,CartoonStims/cowboy_punch_burglar_r.jpg,audio/pumimukulupin.mp3,,,,,,,,,,,,,,,,,,,,,,,,,,,,,,,,,,,,,,,,,,,,,,,,,,,,,,,,,,,,,,,,,,,,,,,,,,
,,,,,,,,,R_2aXOg2DGybiNRWz,2022-10-10_01h58.33.569,jpn_C03,2022.1.2,MacIntel,60.0024001,,,space,1.6567,0,24,24,23,1,トマ　ドキ　ホレト,,,CartoonStims/boxer_point_chef_r.jpg,audio/tomadokihoreto.mp3,,,,,,,,,,,,,,,,,,,,,,,,,,,,,,,,,,,,,,,,,,,,,,,,,,,,,,,,,,,,,,,,,,,,,,,,,,
,,,,,,,,,R_2aXOg2DGybiNRWz,2022-10-10_01h58.33.569,jpn_C03,2022.1.2,MacIntel,60.0024001,,,space,1.8377,0,25,25,20,1,トマ　ピポ　シド,,,CartoonStims/doctor_point_artist_r.jpg,audio/tomapiposido.mp3,,,,,,,,,,,,,,,,,,,,,,,,,,,,,,,,,,,,,,,,,,,,,,,,,,,,,,,,,,,,,,,,,,,,,,,,,,
,,,,,,,,,R_2aXOg2DGybiNRWz,2022-10-10_01h58.33.569,jpn_C03,2022.1.2,MacIntel,60.0024001,,,space,1.5888,0,26,26,14,1,トマ　ルピン　ムク,,,CartoonStims/burglar_point_cowboy_r.jpg,audio/tomalupinmuku.mp3,,,,,,,,,,,,,,,,,,,,,,,,,,,,,,,,,,,,,,,,,,,,,,,,,,,,,,,,,,,,,,,,,,,,,,,,,,
,,,,,,,,,R_2aXOg2DGybiNRWz,2022-10-10_01h58.33.569,jpn_C03,2022.1.2,MacIntel,60.0024001,,,space,1.6367,0,27,27,24,1,パツ　シド　ムク,,,CartoonStims/artist_shoot_cowboy_r.jpg,audio/patsusidomuku.mp3,,,,,,,,,,,,,,,,,,,,,,,,,,,,,,,,,,,,,,,,,,,,,,,,,,,,,,,,,,,,,,,,,,,,,,,,,,
,,,,,,,,,R_2aXOg2DGybiNRWz,2022-10-10_01h58.33.569,jpn_C03,2022.1.2,MacIntel,60.0024001,,,space,1.539,0,28,28,40,1,プミ　ホレト　シド,,,CartoonStims/chef_punch_artist_r.jpg,audio/pumihoretosido.mp3,,,,,,,,,,,,,,,,,,,,,,,,,,,,,,,,,,,,,,,,,,,,,,,,,,,,,,,,,,,,,,,,,,,,,,,,,,
,,,,,,,,,R_2aXOg2DGybiNRWz,2022-10-10_01h58.33.569,jpn_C03,2022.1.2,MacIntel,60.0024001,,,space,1.9588,0,29,29,12,1,トマ　シド　ホレト,,,CartoonStims/artist_point_chef_r.jpg,audio/tomasidohoreto.mp3,,,,,,,,,,,,,,,,,,,,,,,,,,,,,,,,,,,,,,,,,,,,,,,,,,,,,,,,,,,,,,,,,,,,,,,,,,
,,,,,,,,,R_2aXOg2DGybiNRWz,2022-10-10_01h58.33.569,jpn_C03,2022.1.2,MacIntel,60.0024001,,,space,2.2226,0,30,30,38,1,プミ　ルピン　ドキ,,,CartoonStims/burglar_punch_boxer_r.jpg,audio/pumilupindoki.mp3,,,,,,,,,,,,,,,,,,,,,,,,,,,,,,,,,,,,,,,,,,,,,,,,,,,,,,,,,,,,,,,,,,,,,,,,,,
,,,,,,,,,R_2aXOg2DGybiNRWz,2022-10-10_01h58.33.569,jpn_C03,2022.1.2,MacIntel,60.0024001,,,space,2.1068,0,31,31,34,1,パツ　ドキ　ホレト,,,CartoonStims/boxer_shoot_chef_r.jpg,audio/patsudokihoreto.mp3,,,,,,,,,,,,,,,,,,,,,,,,,,,,,,,,,,,,,,,,,,,,,,,,,,,,,,,,,,,,,,,,,,,,,,,,,,
,,,,,,,,,R_2aXOg2DGybiNRWz,2022-10-10_01h58.33.569,jpn_C03,2022.1.2,MacIntel,60.0024001,,,space,2.0071,0,32,32,37,1,プミ　シド　ドキ,,,CartoonStims/artist_punch_boxer_r.jpg,audio/pumisidodoki.mp3,,,,,,,,,,,,,,,,,,,,,,,,,,,,,,,,,,,,,,,,,,,,,,,,,,,,,,,,,,,,,,,,,,,,,,,,,,
,,,,,,,,,R_2aXOg2DGybiNRWz,2022-10-10_01h58.33.569,jpn_C03,2022.1.2,MacIntel,60.0024001,,,space,2.1234,0,33,33,19,1,トマ　ムク　シド,,,CartoonStims/cowboy_point_artist_r.jpg,audio/tomamukusido.mp3,,,,,,,,,,,,,,,,,,,,,,,,,,,,,,,,,,,,,,,,,,,,,,,,,,,,,,,,,,,,,,,,,,,,,,,,,,
,,,,,,,,,R_2aXOg2DGybiNRWz,2022-10-10_01h58.33.569,jpn_C03,2022.1.2,MacIntel,60.0024001,,,space,2.6665,0,34,34,44,1,プミ　ピポ　ホレト,,,CartoonStims/doctor_punch_chef_r.jpg,audio/pumipipohoreto.mp3,,,,,,,,,,,,,,,,,,,,,,,,,,,,,,,,,,,,,,,,,,,,,,,,,,,,,,,,,,,,,,,,,,,,,,,,,,
,,,,,,,,,R_2aXOg2DGybiNRWz,2022-10-10_01h58.33.569,jpn_C03,2022.1.2,MacIntel,60.0024001,,,space,2.1183,0,35,35,17,1,トマ　ホレト　ドキ,,,CartoonStims/chef_point_boxer_r.jpg,audio/tomahoretodoki.mp3,,,,,,,,,,,,,,,,,,,,,,,,,,,,,,,,,,,,,,,,,,,,,,,,,,,,,,,,,,,,,,,,,,,,,,,,,,
,,,,,,,,,R_2aXOg2DGybiNRWz,2022-10-10_01h58.33.569,jpn_C03,2022.1.2,MacIntel,60.0024001,,,space,3.5634,0,36,36,6,1,セル　ムク　ピポ,,,CartoonStims/cowboy_kick_doctor_r.jpg,audio/serumukupipo.mp3,,,,,,,,,,,,,,,,,,,,,,,,,,,,,,,,,,,,,,,,,,,,,,,,,,,,,,,,,,,,,,,,,,,,,,,,,,
,,,,,,,,,R_2aXOg2DGybiNRWz,2022-10-10_01h58.33.569,jpn_C03,2022.1.2,MacIntel,60.0024001,,,space,1.6293,0,37,37,13,1,トマ　シド　ムク,,,CartoonStims/artist_point_cowboy_r.jpg,audio/tomasidomuku.mp3,,,,,,,,,,,,,,,,,,,,,,,,,,,,,,,,,,,,,,,,,,,,,,,,,,,,,,,,,,,,,,,,,,,,,,,,,,
,,,,,,,,,R_2aXOg2DGybiNRWz,2022-10-10_01h58.33.569,jpn_C03,2022.1.2,MacIntel,60.0024001,,,space,3.6227,0,38,38,33,1,パツ　ピポ　ホレト,,,CartoonStims/doctor_shoot_chef_r.jpg,audio/patsupipohoreto.mp3,,,,,,,,,,,,,,,,,,,,,,,,,,,,,,,,,,,,,,,,,,,,,,,,,,,,,,,,,,,,,,,,,,,,,,,,,,
,,,,,,,,,R_2aXOg2DGybiNRWz,2022-10-10_01h58.33.569,jpn_C03,2022.1.2,MacIntel,60.0024001,,,space,2.3553,0,39,39,3,1,セル　ルピン　ムク,,,CartoonStims/burglar_kick_cowboy_r.jpg,audio/serulupinmuku.mp3,,,,,,,,,,,,,,,,,,,,,,,,,,,,,,,,,,,,,,,,,,,,,,,,,,,,,,,,,,,,,,,,,,,,,,,,,,
,,,,,,,,,R_2aXOg2DGybiNRWz,2022-10-10_01h58.33.569,jpn_C03,2022.1.2,MacIntel,60.0024001,,,space,2.2526,0,40,40,9,1,セル　ピポ　シド,,,CartoonStims/doctor_kick_artist_r.jpg,audio/serupiposido.mp3,,,,,,,,,,,,,,,,,,,,,,,,,,,,,,,,,,,,,,,,,,,,,,,,,,,,,,,,,,,,,,,,,,,,,,,,,,
,,,,,,,,,R_2aXOg2DGybiNRWz,2022-10-10_01h58.33.569,jpn_C03,2022.1.2,MacIntel,60.0024001,,,space,2.755,0,41,41,5,1,セル　ホレト　ピポ,,,CartoonStims/chef_kick_doctor_r.jpg,audio/seruhoretopipo.mp3,,,,,,,,,,,,,,,,,,,,,,,,,,,,,,,,,,,,,,,,,,,,,,,,,,,,,,,,,,,,,,,,,,,,,,,,,,
,,,,,,,,,R_2aXOg2DGybiNRWz,2022-10-10_01h58.33.569,jpn_C03,2022.1.2,MacIntel,60.0024001,,,space,1.9696,0,42,42,32,1,パツ　ピポ　ルピン,,,CartoonStims/doctor_shoot_burglar_r.jpg,audio/patsupipolupin.mp3,,,,,,,,,,,,,,,,,,,,,,,,,,,,,,,,,,,,,,,,,,,,,,,,,,,,,,,,,,,,,,,,,,,,,,,,,,
,,,,,,,,,R_2aXOg2DGybiNRWz,2022-10-10_01h58.33.569,jpn_C03,2022.1.2,MacIntel,60.0024001,,,space,1.954,0,43,43,47,1,プミ　ドキ　ピポ,,,CartoonStims/boxer_punch_doctor_r.jpg,audio/pumidokipipo.mp3,,,,,,,,,,,,,,,,,,,,,,,,,,,,,,,,,,,,,,,,,,,,,,,,,,,,,,,,,,,,,,,,,,,,,,,,,,
,,,,,,,,,R_2aXOg2DGybiNRWz,2022-10-10_01h58.33.569,jpn_C03,2022.1.2,MacIntel,60.0024001,,,space,4.6594,0,44,44,1,1,セル 　シド 　ホレト,,,CartoonStims/artist_kick_chef_r.jpg,audio/serusidohoreto.mp3,,,,,,,,,,,,,,,,,,,,,,,,,,,,,,,,,,,,,,,,,,,,,,,,,,,,,,,,,,,,,,,,,,,,,,,,,,
,,,,,,,,,R_2aXOg2DGybiNRWz,2022-10-10_01h58.33.569,jpn_C03,2022.1.2,MacIntel,60.0024001,,,space,5.1214,0,45,45,21,1,トマ　ピポ　ルピン,,,CartoonStims/doctor_point_burglar_r.jpg,audio/tomapipolupin.mp3,,,,,,,,,,,,,,,,,,,,,,,,,,,,,,,,,,,,,,,,,,,,,,,,,,,,,,,,,,,,,,,,,,,,,,,,,,
,,,,,,,,,R_2aXOg2DGybiNRWz,2022-10-10_01h58.33.569,jpn_C03,2022.1.2,MacIntel,60.0024001,,,space,2.0176,0,46,46,43,1,プミ　ムク　ホレト,,,CartoonStims/cowboy_punch_chef_r.jpg,audio/pumimukuhoreto.mp3,,,,,,,,,,,,,,,,,,,,,,,,,,,,,,,,,,,,,,,,,,,,,,,,,,,,,,,,,,,,,,,,,,,,,,,,,,
,,,,,,,,,R_2aXOg2DGybiNRWz,2022-10-10_01h58.33.569,jpn_C03,2022.1.2,MacIntel,60.0024001,,,space,3.99,0,47,47,10,1,セル　ドキ　シド,,,CartoonStims/boxer_kick_artist_r.jpg,audio/serudokisido.mp3,,,,,,,,,,,,,,,,,,,,,,,,,,,,,,,,,,,,,,,,,,,,,,,,,,,,,,,,,,,,,,,,,,,,,,,,,,
,,,,,,,,,R_2aXOg2DGybiNRWz,2022-10-10_01h58.33.569,jpn_C03,2022.1.2,MacIntel,60.0024001,,,,,,,,,,,,,,,space,4.9349,right,1,8.4656,,,,,,,,,,,,,,,,,,,,,,,0,0,0,0,1,,,,,,,,,,,,,,,,,,,,,,,,,,,,,,,,,,,,,,,,,,
,,,,,,,,,R_2aXOg2DGybiNRWz,2022-10-10_01h58.33.569,jpn_C03,2022.1.2,MacIntel,60.0024001,,,,,,,,,,,,,,,,,,,,,,,,,0,0,0,9,1,CartoonStims/chef_kick_artist_r.jpg,セル　ムク　シド,CartoonStims/cowboy_kick_artist_r.jpg,right,CartoonStims/cowboy_kick_artist_r.jpg,audio/serumukusido.mp3,残念！ こちらが正しい画像です。,,,,,,,,,,,,,,,,,,,,,,,,,,,,,,,,,,,,,,,,,,,,,,,,,,,,
,,,,,,,,,R_2aXOg2DGybiNRWz,2022-10-10_01h58.33.569,jpn_C03,2022.1.2,MacIntel,60.0024001,,,,,,,,,,,,,,,,,left,1,10.7042,0,0,0,0,1,,,,,,,,,,,,,,,,,,,,,,,,,,,,,,,,,,,,,,,,,,,,,,,,,,,,,,,,,,,,,,,,
,,,,,,,,,R_2aXOg2DGybiNRWz,2022-10-10_01h58.33.569,jpn_C03,2022.1.2,MacIntel,60.0024001,,,,,,,,,,,,,,,,,,,,,,,,,0,1,1,2,1,CartoonStims/boxer_shoot_doctor_r.jpg,パツ　ドキ　ピポ,CartoonStims/boxer_shoot_artist_r.jpg,left,CartoonStims/boxer_shoot_doctor_r.jpg,audio/patsudokipipo.mp3,残念！ こちらが正しい画像です。,,,,,,,,,,,,,,,,,,,,,,,,,,,,,,,,,,,,,,,,,,,,,,,,,,,,
,,,,,,,,,R_2aXOg2DGybiNRWz,2022-10-10_01h58.33.569,jpn_C03,2022.1.2,MacIntel,60.0024001,,,,,,,,,,,,,,,,,left,1,6.6577,0,0,0,0,1,,,,,,,,,,,,,,,,,,,,,,,,,,,,,,,,,,,,,,,,,,,,,,,,,,,,,,,,,,,,,,,,
,,,,,,,,,R_2aXOg2DGybiNRWz,2022-10-10_01h58.33.569,jpn_C03,2022.1.2,MacIntel,60.0024001,,,,,,,,,,,,,,,,,,,,,,,,,0,2,2,6,1,CartoonStims/doctor_punch_boxer_r.jpg,プミ　ピポ　ドキ,CartoonStims/doctor_shoot_boxer_r.jpg,left,CartoonStims/doctor_punch_boxer_r.jpg,audio/pumipipodoki.mp3,残念！ こちらが正しい画像です。,,,,,,,,,,,,,,,,,,,,,,,,,,,,,,,,,,,,,,,,,,,,,,,,,,,,
,,,,,,,,,R_2aXOg2DGybiNRWz,2022-10-10_01h58.33.569,jpn_C03,2022.1.2,MacIntel,60.0024001,,,,,,,,,,,,,,,,,left,1,7.5635,0,0,0,0,1,,,,,,,,,,,,,,,,,,,,,,,,,,,,,,,,,,,,,,,,,,,,,,,,,,,,,,,,,,,,,,,,
,,,,,,,,,R_2aXOg2DGybiNRWz,2022-10-10_01h58.33.569,jpn_C03,2022.1.2,MacIntel,60.0024001,,,,,,,,,,,,,,,,,,,,,,,,,0,3,3,10,1,CartoonStims/artist_shoot_burglar_r.jpg,パツ　シド　ルピン,CartoonStims/chef_shoot_burglar_r.jpg,left,CartoonStims/artist_shoot_burglar_r.jpg,audio/patsusidolupin.mp3,残念！ こちらが正しい画像です。,,,,,,,,,,,,,,,,,,,,,,,,,,,,,,,,,,,,,,,,,,,,,,,,,,,,
,,,,,,,,,R_2aXOg2DGybiNRWz,2022-10-10_01h58.33.569,jpn_C03,2022.1.2,MacIntel,60.0024001,,,,,,,,,,,,,,,,,right,1,3.4492,,,,,,,,,,,,,,,,,,,,,,,0,0,0,0,1,,,,,,,,,,,,,,,,,,,,,,,,,,,,,,,,,,,,,,,,,,
,,,,,,,,,R_2aXOg2DGybiNRWz,2022-10-10_01h58.33.569,jpn_C03,2022.1.2,MacIntel,60.0024001,,,,,,,,,,,,,,,,,,,,,,,,,0,4,4,5,1,CartoonStims/cowboy_point_chef_r.jpg,パツ　ムク　ホレト,CartoonStims/cowboy_shoot_chef_r.jpg,right,CartoonStims/cowboy_shoot_chef_r.jpg,audio/patsumukuhoreto.mp3,残念！ こちらが正しい画像です。,,,,,,,,,,,,,,,,,,,,,,,,,,,,,,,,,,,,,,,,,,,,,,,,,,,,
,,,,,,,,,R_2aXOg2DGybiNRWz,2022-10-10_01h58.33.569,jpn_C03,2022.1.2,MacIntel,60.0024001,,,,,,,,,,,,,,,,,left,1,4.7696,0,0,0,0,1,,,,,,,,,,,,,,,,,,,,,,,,,,,,,,,,,,,,,,,,,,,,,,,,,,,,,,,,,,,,,,,,
,,,,,,,,,R_2aXOg2DGybiNRWz,2022-10-10_01h58.33.569,jpn_C03,2022.1.2,MacIntel,60.0024001,,,,,,,,,,,,,,,,,,,,,,,,,0,5,5,8,1,CartoonStims/doctor_point_cowboy_r.jpg,トマ　ピポ　ムク,CartoonStims/boxer_point_cowboy_r.jpg,left,CartoonStims/doctor_point_cowboy_r.jpg,audio/tomapipomuku.mp3,残念！ こちらが正しい画像です。,,,,,,,,,,,,,,,,,,,,,,,,,,,,,,,,,,,,,,,,,,,,,,,,,,,,
,,,,,,,,,R_2aXOg2DGybiNRWz,2022-10-10_01h58.33.569,jpn_C03,2022.1.2,MacIntel,60.0024001,,,,,,,,,,,,,,,,,right,1,5.163,,,,,,,,,,,,,,,,,,,,,,,0,0,0,0,1,,,,,,,,,,,,,,,,,,,,,,,,,,,,,,,,,,,,,,,,,,
,,,,,,,,,R_2aXOg2DGybiNRWz,2022-10-10_01h58.33.569,jpn_C03,2022.1.2,MacIntel,60.0024001,,,,,,,,,,,,,,,,,,,,,,,,,0,6,6,11,1,CartoonStims/burglar_punch_cowboy_r.jpg,プミ　ホレト　ムク,CartoonStims/chef_punch_cowboy_r.jpg,right,CartoonStims/chef_punch_cowboy_r.jpg,audio/pumihoretomuku.mp3,残念！ こちらが正しい画像です。,,,,,,,,,,,,,,,,,,,,,,,,,,,,,,,,,,,,,,,,,,,,,,,,,,,,
,,,,,,,,,R_2aXOg2DGybiNRWz,2022-10-10_01h58.33.569,jpn_C03,2022.1.2,MacIntel,60.0024001,,,,,,,,,,,,,,,,,left,1,4.4076,0,0,0,0,1,,,,,,,,,,,,,,,,,,,,,,,,,,,,,,,,,,,,,,,,,,,,,,,,,,,,,,,,,,,,,,,,
,,,,,,,,,R_2aXOg2DGybiNRWz,2022-10-10_01h58.33.569,jpn_C03,2022.1.2,MacIntel,60.0024001,,,,,,,,,,,,,,,,,,,,,,,,,0,7,7,4,1,CartoonStims/burglar_point_boxer_r.jpg,トマ　ルピン　ドキ,CartoonStims/burglar_kick_boxer_r.jpg,left,CartoonStims/burglar_point_boxer_r.jpg,audio/tomalupindoki.mp3,残念！ こちらが正しい画像です。,,,,,,,,,,,,,,,,,,,,,,,,,,,,,,,,,,,,,,,,,,,,,,,,,,,,
,,,,,,,,,R_2aXOg2DGybiNRWz,2022-10-10_01h58.33.569,jpn_C03,2022.1.2,MacIntel,60.0024001,,,,,,,,,,,,,,,,,left,1,3.7545,0,0,0,0,1,,,,,,,,,,,,,,,,,,,,,,,,,,,,,,,,,,,,,,,,,,,,,,,,,,,,,,,,,,,,,,,,
,,,,,,,,,R_2aXOg2DGybiNRWz,2022-10-10_01h58.33.569,jpn_C03,2022.1.2,MacIntel,60.0024001,,,,,,,,,,,,,,,,,,,,,,,,,0,8,8,0,1,CartoonStims/doctor_kick_burglar_r.jpg,セル　ピポ　ルピン,CartoonStims/doctor_kick_chef_r.jpg,left,CartoonStims/doctor_kick_burglar_r.jpg,audio/serupipolupin.mp3,残念！ こちらが正しい画像です。,,,,,,,,,,,,,,,,,,,,,,,,,,,,,,,,,,,,,,,,,,,,,,,,,,,,
,,,,,,,,,R_2aXOg2DGybiNRWz,2022-10-10_01h58.33.569,jpn_C03,2022.1.2,MacIntel,60.0024001,,,,,,,,,,,,,,,,,right,1,7.015,,,,,,,,,,,,,,,,,,,,,,,0,0,0,0,1,,,,,,,,,,,,,,,,,,,,,,,,,,,,,,,,,,,,,,,,,,
,,,,,,,,,R_2aXOg2DGybiNRWz,2022-10-10_01h58.33.569,jpn_C03,2022.1.2,MacIntel,60.0024001,,,,,,,,,,,,,,,,,,,,,,,,,0,9,9,3,1,CartoonStims/cowboy_punch_doctor_r.jpg,プミ　ムク　ドキ,CartoonStims/cowboy_punch_boxer_r.jpg,right,CartoonStims/cowboy_punch_boxer_r.jpg,audio/pumimukudoki.mp3,残念！ こちらが正しい画像です。,,,,,,,,,,,,,,,,,,,,,,,,,,,,,,,,,,,,,,,,,,,,,,,,,,,,
,,,,,,,,,R_2aXOg2DGybiNRWz,2022-10-10_01h58.33.569,jpn_C03,2022.1.2,MacIntel,60.0024001,,,,,,,,,,,,,,,,,right,1,4.2391,,,,,,,,,,,,,,,,,,,,,,,0,0,0,0,1,,,,,,,,,,,,,,,,,,,,,,,,,,,,,,,,,,,,,,,,,,
,,,,,,,,,R_2aXOg2DGybiNRWz,2022-10-10_01h58.33.569,jpn_C03,2022.1.2,MacIntel,60.0024001,,,,,,,,,,,,,,,,,,,,,,,,,0,10,10,7,1,CartoonStims/artist_punch_cowboy_r.jpg,セル　シド　ムク,CartoonStims/artist_kick_cowboy_r.jpg,right,CartoonStims/artist_kick_cowboy_r.jpg,audio/serusidomuku.mp3,残念！ こちらが正しい画像です。,,,,,,,,,,,,,,,,,,,,,,,,,,,,,,,,,,,,,,,,,,,,,,,,,,,,
,,,,,,,,,R_2aXOg2DGybiNRWz,2022-10-10_01h58.33.569,jpn_C03,2022.1.2,MacIntel,60.0024001,,,,,,,,,,,,,,,,,right,1,3.4917,,,,,,,,,,,,,,,,,,,,,,,0,0,0,0,1,,,,,,,,,,,,,,,,,,,,,,,,,,,,,,,,,,,,,,,,,,
,,,,,,,,,R_2aXOg2DGybiNRWz,2022-10-10_01h58.33.569,jpn_C03,2022.1.2,MacIntel,60.0024001,,,,,,,,,,,,,,,,,,,,,,,,,0,11,11,1,1,CartoonStims/chef_point_burglar_r.jpg,トマ　ホレト　シド,CartoonStims/chef_point_artist_r.jpg,right,CartoonStims/chef_point_artist_r.jpg,audio/tomahoretosido.mp3,残念！ こちらが正しい画像です。,,,,,,,,,,,,,,,,,,,,,,,,,,,,,,,,,,,,,,,,,,,,,,,,,,,,
,,,,,,,,,R_2aXOg2DGybiNRWz,2022-10-10_01h58.33.569,jpn_C03,2022.1.2,MacIntel,60.0024001,,,,,,,,,,,,,,,,,,,,,,,,,,,,,,,,,,,,,,,,,,,,,,,,,,,,space,10.3102,パツ　ルピン　ホレト,right,22.0956,0,0,0,0,1,,,,,,,,,,,,,,,,,,,,,,,,,,,
,,,,,,,,,R_2aXOg2DGybiNRWz,2022-10-10_01h58.33.569,jpn_C03,2022.1.2,MacIntel,60.0024001,,,,,,,,,,,,,CartoonStims/burglar_shoot_chef_r.jpg,audio/patsulupinhoreto.mp3,,,,,,,,,,,,,,,,,,,,,,,,,,,,,,,,,,,,,,,,,,,,,,,,0,0,0,6,1,パツ　ルピン　ホレト,,,,,,,,,,,,,,,,,,,,,
,,,,,,,,,R_2aXOg2DGybiNRWz,2022-10-10_01h58.33.569,jpn_C03,2022.1.2,MacIntel,60.0024001,,,,,,,,,,,,,,,,,,,,,,,,,,,,,,,,,,,,,,,,,,,,,,,,,,,,,,プミ　シド　ルピン,right,19.8724,0,0,0,0,1,,,,,,,,,,,,,,,,,,,,,,,,,,,
,,,,,,,,,R_2aXOg2DGybiNRWz,2022-10-10_01h58.33.569,jpn_C03,2022.1.2,MacIntel,60.0024001,,,,,,,,,,,,,CartoonStims/artist_punch_burglar_r.jpg,audio/pumisidolupin.mp3,,,,,,,,,,,,,,,,,,,,,,,,,,,,,,,,,,,,,,,,,,,,,,,,0,1,1,9,1,プミ　シド　ルピン,,,,,,,,,,,,,,,,,,,,,
,,,,,,,,,R_2aXOg2DGybiNRWz,2022-10-10_01h58.33.569,jpn_C03,2022.1.2,MacIntel,60.0024001,,,,,,,,,,,,,,,,,,,,,,,,,,,,,,,,,,,,,,,,,,,,,,,,,,,,,,トマ　ホレト　ルピン,right,15.2271,0,0,0,0,1,,,,,,,,,,,,,,,,,,,,,,,,,,,
,,,,,,,,,R_2aXOg2DGybiNRWz,2022-10-10_01h58.33.569,jpn_C03,2022.1.2,MacIntel,60.0024001,,,,,,,,,,,,,CartoonStims/chef_point_burglar_r.jpg,audio/tomahoretolupin.mp3,,,,,,,,,,,,,,,,,,,,,,,,,,,,,,,,,,,,,,,,,,,,,,,,0,2,2,5,1,トマ　ホレト　ルピン,,,,,,,,,,,,,,,,,,,,,
,,,,,,,,,R_2aXOg2DGybiNRWz,2022-10-10_01h58.33.569,jpn_C03,2022.1.2,MacIntel,60.0024001,,,,,,,,,,,,,,,,,,,,,,,,,,,,,,,,,,,,,,,,,,,,,,,,,,,,,,トマ　シド　ドキ,right,17.9058,0,0,0,0,1,,,,,,,,,,,,,,,,,,,,,,,,,,,
,,,,,,,,,R_2aXOg2DGybiNRWz,2022-10-10_01h58.33.569,jpn_C03,2022.1.2,MacIntel,60.0024001,,,,,,,,,,,,,CartoonStims/artist_point_boxer_r.jpg,audio/tomasidodoki.mp3,,,,,,,,,,,,,,,,,,,,,,,,,,,,,,,,,,,,,,,,,,,,,,,,0,3,3,3,1,トマ　シド　ドキ,,,,,,,,,,,,,,,,,,,,,
,,,,,,,,,R_2aXOg2DGybiNRWz,2022-10-10_01h58.33.569,jpn_C03,2022.1.2,MacIntel,60.0024001,,,,,,,,,,,,,,,,,,,,,,,,,,,,,,,,,,,,,,,,,,,,,,,,,,,,,,パツ　ムク　ピポ,right,10.2688,0,0,0,0,1,,,,,,,,,,,,,,,,,,,,,,,,,,,
,,,,,,,,,R_2aXOg2DGybiNRWz,2022-10-10_01h58.33.569,jpn_C03,2022.1.2,MacIntel,60.0024001,,,,,,,,,,,,,CartoonStims/cowboy_shoot_doctor_r.jpg,audio/patsumukupipo.mp3,,,,,,,,,,,,,,,,,,,,,,,,,,,,,,,,,,,,,,,,,,,,,,,,0,4,4,8,1,パツ　ムク　ピポ,,,,,,,,,,,,,,,,,,,,,
,,,,,,,,,R_2aXOg2DGybiNRWz,2022-10-10_01h58.33.569,jpn_C03,2022.1.2,MacIntel,60.0024001,,,,,,,,,,,,,,,,,,,,,,,,,,,,,,,,,,,,,,,,,,,,,,,,,,,,,,セル　ドキ　ムク,right,10.729,0,0,0,0,1,,,,,,,,,,,,,,,,,,,,,,,,,,,
,,,,,,,,,R_2aXOg2DGybiNRWz,2022-10-10_01h58.33.569,jpn_C03,2022.1.2,MacIntel,60.0024001,,,,,,,,,,,,,CartoonStims/boxer_kick_cowboy_r.jpg,audio/serudokimuku.mp3,,,,,,,,,,,,,,,,,,,,,,,,,,,,,,,,,,,,,,,,,,,,,,,,0,5,5,2,1,セル　ドキ　ムク,,,,,,,,,,,,,,,,,,,,,
,,,,,,,,,R_2aXOg2DGybiNRWz,2022-10-10_01h58.33.569,jpn_C03,2022.1.2,MacIntel,60.0024001,,,,,,,,,,,,,,,,,,,,,,,,,,,,,,,,,,,,,,,,,,,,,,,,,,,,,,プミ　ピポ　ドキ,right,13.8565,0,0,0,0,1,,,,,,,,,,,,,,,,,,,,,,,,,,,
,,,,,,,,,R_2aXOg2DGybiNRWz,2022-10-10_01h58.33.569,jpn_C03,2022.1.2,MacIntel,60.0024001,,,,,,,,,,,,,CartoonStims/doctor_punch_boxer_r.jpg,audio/pumipipodoki.mp3,,,,,,,,,,,,,,,,,,,,,,,,,,,,,,,,,,,,,,,,,,,,,,,,0,6,6,10,1,プミ　ピポ　ドキ,,,,,,,,,,,,,,,,,,,,,
,,,,,,,,,R_2aXOg2DGybiNRWz,2022-10-10_01h58.33.569,jpn_C03,2022.1.2,MacIntel,60.0024001,,,,,,,,,,,,,,,,,,,,,,,,,,,,,,,,,,,,,,,,,,,,,,,,,,,,,,プミ　ドキ　シド,right,9.5799,0,0,0,0,1,,,,,,,,,,,,,,,,,,,,,,,,,,,
,,,,,,,,,R_2aXOg2DGybiNRWz,2022-10-10_01h58.33.569,jpn_C03,2022.1.2,MacIntel,60.0024001,,,,,,,,,,,,,CartoonStims/boxer_punch_artist_r.jpg,audio/pumidokisido.mp3,,,,,,,,,,,,,,,,,,,,,,,,,,,,,,,,,,,,,,,,,,,,,,,,0,7,7,11,1,プミ　ドキ　シド,,,,,,,,,,,,,,,,,,,,,
,,,,,,,,,R_2aXOg2DGybiNRWz,2022-10-10_01h58.33.569,jpn_C03,2022.1.2,MacIntel,60.0024001,,,,,,,,,,,,,,,,,,,,,,,,,,,,,,,,,,,,,,,,,,,,,,,,,,,,,,セル　ピポ　ホレト,right,21.7224,0,0,0,0,1,,,,,,,,,,,,,,,,,,,,,,,,,,,
,,,,,,,,,R_2aXOg2DGybiNRWz,2022-10-10_01h58.33.569,jpn_C03,2022.1.2,MacIntel,60.0024001,,,,,,,,,,,,,CartoonStims/doctor_kick_chef_r.jpg,audio/serupipohoreto.mp3,,,,,,,,,,,,,,,,,,,,,,,,,,,,,,,,,,,,,,,,,,,,,,,,0,8,8,1,1,セル　ピポ　ホレト,,,,,,,,,,,,,,,,,,,,,
,,,,,,,,,R_2aXOg2DGybiNRWz,2022-10-10_01h58.33.569,jpn_C03,2022.1.2,MacIntel,60.0024001,,,,,,,,,,,,,,,,,,,,,,,,,,,,,,,,,,,,,,,,,,,,,,,,,,,,,,パツ　ホレト　ムク,right,12.9787,0,0,0,0,1,,,,,,,,,,,,,,,,,,,,,,,,,,,
,,,,,,,,,R_2aXOg2DGybiNRWz,2022-10-10_01h58.33.569,jpn_C03,2022.1.2,MacIntel,60.0024001,,,,,,,,,,,,,CartoonStims/chef_shoot_cowboy_r.jpg,audio/patsuhoretomuku.mp3,,,,,,,,,,,,,,,,,,,,,,,,,,,,,,,,,,,,,,,,,,,,,,,,0,9,9,7,1,パツ　ホレト　ムク,,,,,,,,,,,,,,,,,,,,,
,,,,,,,,,R_2aXOg2DGybiNRWz,2022-10-10_01h58.33.569,jpn_C03,2022.1.2,MacIntel,60.0024001,,,,,,,,,,,,,,,,,,,,,,,,,,,,,,,,,,,,,,,,,,,,,,,,,,,,,,セル　ムク　ルピン,right,11.1099,0,0,0,0,1,,,,,,,,,,,,,,,,,,,,,,,,,,,
,,,,,,,,,R_2aXOg2DGybiNRWz,2022-10-10_01h58.33.569,jpn_C03,2022.1.2,MacIntel,60.0024001,,,,,,,,,,,,,CartoonStims/cowboy_kick_burglar_r.jpg,audio/serumukulupin.mp3,,,,,,,,,,,,,,,,,,,,,,,,,,,,,,,,,,,,,,,,,,,,,,,,0,10,10,0,1,セル　ムク　ルピン,,,,,,,,,,,,,,,,,,,,,
,,,,,,,,,R_2aXOg2DGybiNRWz,2022-10-10_01h58.33.569,jpn_C03,2022.1.2,MacIntel,60.0024001,,,,,,,,,,,,,,,,,,,,,,,,,,,,,,,,,,,,,,,,,,,,,,,,,,,,,,トマ　ルピン　シド,right,15.0227,0,0,0,0,1,,,,,,,,,,,,,,,,,,,,,,,,,,,
,,,,,,,,,R_2aXOg2DGybiNRWz,2022-10-10_01h58.33.569,jpn_C03,2022.1.2,MacIntel,60.0024001,,,,,,,,,,,,,CartoonStims/burglar_point_artist_r.jpg,audio/tomalupinsido.mp3,,,,,,,,,,,,,,,,,,,,,,,,,,,,,,,,,,,,,,,,,,,,,,,,0,11,11,4,1,トマ　ルピン　シド,,,,,,,,,,,,,,,,,,,,,
,,,,,,,,,R_2aXOg2DGybiNRWz,2022-10-10_01h58.33.569,jpn_C03,2022.1.2,MacIntel,60.0024001,,,,,,,,,,,,,,,,,,,,,,,,,,,,,,,,,,,,,,,,,,,,,,,,,,,,,,,,,,,,,,,,,,,,,space,1.1905,0,1,1,1,1,AffExposure.xlsx,"第二のトライアルの学習では、この言語で書かれた文を見ていただきます。引き続き注意して、 聞こえた音を復唱してください。


スペースキーを押してください。",1,AffFCT.xlsx,ここからクイズが始まります。 スクリーンに表示されるテキストに合う画像を選んでください。,AffTest.xlsx,1,次にここまで学んだことをアウトプットしていただきます。 表示される画像を描写していると思う単語を、テキストボックスにタイプしてください。 答えを提出したあとに正しい正解が少しの間画面に写ります。,1,"これで第二のトライアルが終了しました。 ここで休憩をとっていただいても構いません。

休憩が終わりましたら、 スペースキーを押して続きの学習を行いましょう。",,,
,,,,,,,,,R_2aXOg2DGybiNRWz,2022-10-10_01h58.33.569,jpn_C03,2022.1.2,MacIntel,60.0024001,space,10.168,space,10.6221,0,0,0,26,1,パツ　ピク　ルピン　ピポ,,,CartoonStims/burglar_shoot_doctor_r_no.jpg,audio/patsupikulupinpipo.mp3,,,,,,,,,,,,,,,,,,,,,,,,,,,,,,,,,,,,,,,,,,,,,,,,,,,,,,,,,,,,,,,,,,,,,,,,,,
,,,,,,,,,R_2aXOg2DGybiNRWz,2022-10-10_01h58.33.569,jpn_C03,2022.1.2,MacIntel,60.0024001,,,space,4.2682,0,1,1,36,1,プミ　ピク　シド　ピポ,,,CartoonStims/artist_punch_doctor_r_no.jpg,audio/pumipikusidopipo.mp3,,,,,,,,,,,,,,,,,,,,,,,,,,,,,,,,,,,,,,,,,,,,,,,,,,,,,,,,,,,,,,,,,,,,,,,,,,
,,,,,,,,,R_2aXOg2DGybiNRWz,2022-10-10_01h58.33.569,jpn_C03,2022.1.2,MacIntel,60.0024001,,,space,1.9745,0,2,2,39,1,プミ　ピク　ルピン　シド,,,CartoonStims/burglar_punch_artist_r_no.jpg,audio/pumipikulupinsido.mp3,,,,,,,,,,,,,,,,,,,,,,,,,,,,,,,,,,,,,,,,,,,,,,,,,,,,,,,,,,,,,,,,,,,,,,,,,,
,,,,,,,,,R_2aXOg2DGybiNRWz,2022-10-10_01h58.33.569,jpn_C03,2022.1.2,MacIntel,60.0024001,,,space,2.1029,0,3,3,43,1,プミ　ピク　ムク　ホレト,,,CartoonStims/cowboy_punch_chef_r_no.jpg,audio/pumipikumukuhoreto.mp3,,,,,,,,,,,,,,,,,,,,,,,,,,,,,,,,,,,,,,,,,,,,,,,,,,,,,,,,,,,,,,,,,,,,,,,,,,
,,,,,,,,,R_2aXOg2DGybiNRWz,2022-10-10_01h58.33.569,jpn_C03,2022.1.2,MacIntel,60.0024001,,,space,2.0612,0,4,4,30,1,パツ　ピク　ムク　シド,,,CartoonStims/cowboy_shoot_artist_r_no.jpg,audio/patsupikumukusido.mp3,,,,,,,,,,,,,,,,,,,,,,,,,,,,,,,,,,,,,,,,,,,,,,,,,,,,,,,,,,,,,,,,,,,,,,,,,,
,,,,,,,,,R_2aXOg2DGybiNRWz,2022-10-10_01h58.33.569,jpn_C03,2022.1.2,MacIntel,60.0024001,,,space,3.215,0,5,5,12,1,トマ　ピク　シド　ホレト,,,CartoonStims/artist_point_chef_r_no.jpg,audio/tomapikusidohoreto.mp3,,,,,,,,,,,,,,,,,,,,,,,,,,,,,,,,,,,,,,,,,,,,,,,,,,,,,,,,,,,,,,,,,,,,,,,,,,
,,,,,,,,,R_2aXOg2DGybiNRWz,2022-10-10_01h58.33.569,jpn_C03,2022.1.2,MacIntel,60.0024001,,,space,9.8911,0,6,6,19,1,ピク　トマ　ムク　シド,,,CartoonStims/cowboy_point_artist_r_no.jpg,audio/pikutomamukusido.mp3,,,,,,,,,,,,,,,,,,,,,,,,,,,,,,,,,,,,,,,,,,,,,,,,,,,,,,,,,,,,,,,,,,,,,,,,,,
,,,,,,,,,R_2aXOg2DGybiNRWz,2022-10-10_01h58.33.569,jpn_C03,2022.1.2,MacIntel,60.0024001,,,space,5.5476,0,7,7,17,1,トマ　ピク　ホレト　ドキ,,,CartoonStims/chef_point_boxer_r_no.jpg,audio/tomapikuhoretodoki.mp3,,,,,,,,,,,,,,,,,,,,,,,,,,,,,,,,,,,,,,,,,,,,,,,,,,,,,,,,,,,,,,,,,,,,,,,,,,
,,,,,,,,,R_2aXOg2DGybiNRWz,2022-10-10_01h58.33.569,jpn_C03,2022.1.2,MacIntel,60.0024001,,,space,5.57,0,8,8,20,1,トマ　ピク　ピポ　シド,,,CartoonStims/doctor_point_artist_r_no.jpg,audio/tomapikupiposido.mp3,,,,,,,,,,,,,,,,,,,,,,,,,,,,,,,,,,,,,,,,,,,,,,,,,,,,,,,,,,,,,,,,,,,,,,,,,,
,,,,,,,,,R_2aXOg2DGybiNRWz,2022-10-10_01h58.33.569,jpn_C03,2022.1.2,MacIntel,60.0024001,,,space,12.1748,0,9,9,27,1,ピク　パツ　ルピン　ドキ,,,CartoonStims/burglar_shoot_boxer_r_no.jpg,audio/pikupatsulupindoki.mp3,,,,,,,,,,,,,,,,,,,,,,,,,,,,,,,,,,,,,,,,,,,,,,,,,,,,,,,,,,,,,,,,,,,,,,,,,,
,,,,,,,,,R_2aXOg2DGybiNRWz,2022-10-10_01h58.33.569,jpn_C03,2022.1.2,MacIntel,60.0024001,,,space,11.1485,0,10,10,32,1,パツ　ピク　ピポ　ルピン,,,CartoonStims/doctor_shoot_burglar_r_no.jpg,audio/patsupikupipolupin.mp3,,,,,,,,,,,,,,,,,,,,,,,,,,,,,,,,,,,,,,,,,,,,,,,,,,,,,,,,,,,,,,,,,,,,,,,,,,
,,,,,,,,,R_2aXOg2DGybiNRWz,2022-10-10_01h58.33.569,jpn_C03,2022.1.2,MacIntel,60.0024001,,,space,7.6562,0,11,11,8,1,ピク　セル　ピポ　ドキ,,,CartoonStims/doctor_kick_boxer_r_no.jpg,audio/pikuserupipodoki.mp3,,,,,,,,,,,,,,,,,,,,,,,,,,,,,,,,,,,,,,,,,,,,,,,,,,,,,,,,,,,,,,,,,,,,,,,,,,
,,,,,,,,,R_2aXOg2DGybiNRWz,2022-10-10_01h58.33.569,jpn_C03,2022.1.2,MacIntel,60.0024001,,,space,4.4832,0,12,12,23,1,ピク　トマ　ドキ　ホレト,,,CartoonStims/boxer_point_chef_r_no.jpg,audio/pikutomadokihoreto.mp3,,,,,,,,,,,,,,,,,,,,,,,,,,,,,,,,,,,,,,,,,,,,,,,,,,,,,,,,,,,,,,,,,,,,,,,,,,
,,,,,,,,,R_2aXOg2DGybiNRWz,2022-10-10_01h58.33.569,jpn_C03,2022.1.2,MacIntel,60.0024001,,,space,7.6607,0,13,13,45,1,プミ　ピク　ピポ　ムク,,,CartoonStims/doctor_punch_cowboy_r_no.jpg,audio/pumipikupipomuku.mp3,,,,,,,,,,,,,,,,,,,,,,,,,,,,,,,,,,,,,,,,,,,,,,,,,,,,,,,,,,,,,,,,,,,,,,,,,,
,,,,,,,,,R_2aXOg2DGybiNRWz,2022-10-10_01h58.33.569,jpn_C03,2022.1.2,MacIntel,60.0024001,,,space,5.3509,0,14,14,2,1,セル　ピク　ルピン　ホレト,,,CartoonStims/burglar_kick_chef_r_no.jpg,audio/serupikulupinhoreto.mp3,,,,,,,,,,,,,,,,,,,,,,,,,,,,,,,,,,,,,,,,,,,,,,,,,,,,,,,,,,,,,,,,,,,,,,,,,,
,,,,,,,,,R_2aXOg2DGybiNRWz,2022-10-10_01h58.33.569,jpn_C03,2022.1.2,MacIntel,60.0024001,,,space,3.0762,0,15,15,11,1,セル　ピク　ドキ　ルピン,,,CartoonStims/boxer_kick_burglar_r_no.jpg,audio/serupikudokilupin.mp3,,,,,,,,,,,,,,,,,,,,,,,,,,,,,,,,,,,,,,,,,,,,,,,,,,,,,,,,,,,,,,,,,,,,,,,,,,
,,,,,,,,,R_2aXOg2DGybiNRWz,2022-10-10_01h58.33.569,jpn_C03,2022.1.2,MacIntel,60.0024001,,,space,2.5358,0,16,16,31,1,パツ　ピク　ムク　ルピン,,,CartoonStims/cowboy_shoot_burglar_r_no.jpg,audio/patsupikumukulupin.mp3,,,,,,,,,,,,,,,,,,,,,,,,,,,,,,,,,,,,,,,,,,,,,,,,,,,,,,,,,,,,,,,,,,,,,,,,,,
,,,,,,,,,R_2aXOg2DGybiNRWz,2022-10-10_01h58.33.569,jpn_C03,2022.1.2,MacIntel,60.0024001,,,space,1.7711,0,17,17,24,1,パツ　ピク　シド　ムク,,,CartoonStims/artist_shoot_cowboy_r_no.jpg,audio/patsupikusidomuku.mp3,,,,,,,,,,,,,,,,,,,,,,,,,,,,,,,,,,,,,,,,,,,,,,,,,,,,,,,,,,,,,,,,,,,,,,,,,,
,,,,,,,,,R_2aXOg2DGybiNRWz,2022-10-10_01h58.33.569,jpn_C03,2022.1.2,MacIntel,60.0024001,,,space,4.1893,0,18,18,21,1,トマ　ピク　ピポ　ルピン,,,CartoonStims/doctor_point_burglar_r_no.jpg,audio/tomapikupipolupin.mp3,,,,,,,,,,,,,,,,,,,,,,,,,,,,,,,,,,,,,,,,,,,,,,,,,,,,,,,,,,,,,,,,,,,,,,,,,,
,,,,,,,,,R_2aXOg2DGybiNRWz,2022-10-10_01h58.33.569,jpn_C03,2022.1.2,MacIntel,60.0024001,,,space,3.0412,0,19,19,1,1,セル　ピク　シド　ホレト,,,CartoonStims/artist_kick_chef_r_no.jpg,audio/serupikusidohoreto.mp3,,,,,,,,,,,,,,,,,,,,,,,,,,,,,,,,,,,,,,,,,,,,,,,,,,,,,,,,,,,,,,,,,,,,,,,,,,
,,,,,,,,,R_2aXOg2DGybiNRWz,2022-10-10_01h58.33.569,jpn_C03,2022.1.2,MacIntel,60.0024001,,,space,15.9863,0,20,20,44,1,ピク　プミ　ピポ　ホレト,,,CartoonStims/doctor_punch_chef_r_no.jpg,audio/pikupumipipohoreto.mp3,,,,,,,,,,,,,,,,,,,,,,,,,,,,,,,,,,,,,,,,,,,,,,,,,,,,,,,,,,,,,,,,,,,,,,,,,,
,,,,,,,,,R_2aXOg2DGybiNRWz,2022-10-10_01h58.33.569,jpn_C03,2022.1.2,MacIntel,60.0024001,,,space,1.7242,0,21,21,9,1,セル　ピク　ピポ　シド,,,CartoonStims/doctor_kick_artist_r_no.jpg,audio/serupikupiposido.mp3,,,,,,,,,,,,,,,,,,,,,,,,,,,,,,,,,,,,,,,,,,,,,,,,,,,,,,,,,,,,,,,,,,,,,,,,,,
,,,,,,,,,R_2aXOg2DGybiNRWz,2022-10-10_01h58.33.569,jpn_C03,2022.1.2,MacIntel,60.0024001,,,space,1.3268,0,22,22,13,1,トマ　ピク　シド　ムク,,,CartoonStims/artist_point_cowboy_r_no.jpg,audio/tomapikusidomuku.mp3,,,,,,,,,,,,,,,,,,,,,,,,,,,,,,,,,,,,,,,,,,,,,,,,,,,,,,,,,,,,,,,,,,,,,,,,,,
,,,,,,,,,R_2aXOg2DGybiNRWz,2022-10-10_01h58.33.569,jpn_C03,2022.1.2,MacIntel,60.0024001,,,space,2.2195,0,23,23,14,1,トマ　ピク　ルピン　ムク,,,CartoonStims/burglar_point_cowboy_r_no.jpg,audio/tomapikulupinmuku.mp3,,,,,,,,,,,,,,,,,,,,,,,,,,,,,,,,,,,,,,,,,,,,,,,,,,,,,,,,,,,,,,,,,,,,,,,,,,
,,,,,,,,,R_2aXOg2DGybiNRWz,2022-10-10_01h58.33.569,jpn_C03,2022.1.2,MacIntel,60.0024001,,,space,2.753,0,24,24,18,1,トマ　ピク　ムク　ドキ,,,CartoonStims/cowboy_point_boxer_r_no.jpg,audio/tomapikumukudoki.mp3,,,,,,,,,,,,,,,,,,,,,,,,,,,,,,,,,,,,,,,,,,,,,,,,,,,,,,,,,,,,,,,,,,,,,,,,,,
,,,,,,,,,R_2aXOg2DGybiNRWz,2022-10-10_01h58.33.569,jpn_C03,2022.1.2,MacIntel,60.0024001,,,space,3.3687,0,25,25,29,1,ピク　パツ　ホレト　シド,,,CartoonStims/chef_shoot_artist_r_no.jpg,audio/pikupatsuhoretosido.mp3,,,,,,,,,,,,,,,,,,,,,,,,,,,,,,,,,,,,,,,,,,,,,,,,,,,,,,,,,,,,,,,,,,,,,,,,,,
,,,,,,,,,R_2aXOg2DGybiNRWz,2022-10-10_01h58.33.569,jpn_C03,2022.1.2,MacIntel,60.0024001,,,space,4.2864,0,26,26,15,1,ピク　トマ　ルピン　ピポ,,,CartoonStims/burglar_point_doctor_r_no.jpg,audio/pikutomalupinpipo.mp3,,,,,,,,,,,,,,,,,,,,,,,,,,,,,,,,,,,,,,,,,,,,,,,,,,,,,,,,,,,,,,,,,,,,,,,,,,
,,,,,,,,,R_2aXOg2DGybiNRWz,2022-10-10_01h58.33.569,jpn_C03,2022.1.2,MacIntel,60.0024001,,,space,7.2028,0,27,27,33,1,パツ　ピク　ピポ　ホレト,,,CartoonStims/doctor_shoot_chef_r_no.jpg,audio/patsupikupipohoreto.mp3,,,,,,,,,,,,,,,,,,,,,,,,,,,,,,,,,,,,,,,,,,,,,,,,,,,,,,,,,,,,,,,,,,,,,,,,,,
,,,,,,,,,R_2aXOg2DGybiNRWz,2022-10-10_01h58.33.569,jpn_C03,2022.1.2,MacIntel,60.0024001,,,space,1.905,0,28,28,10,1,セル　ピク　ドキ　シド,,,CartoonStims/boxer_kick_artist_r_no.jpg,audio/serupikudokisido.mp3,,,,,,,,,,,,,,,,,,,,,,,,,,,,,,,,,,,,,,,,,,,,,,,,,,,,,,,,,,,,,,,,,,,,,,,,,,
,,,,,,,,,R_2aXOg2DGybiNRWz,2022-10-10_01h58.33.569,jpn_C03,2022.1.2,MacIntel,60.0024001,,,space,10.8675,0,29,29,0,1,ピク　セル　シド　ルピン,,,CartoonStims/artist_kick_burglar_r_no.jpg,audio/pikuserusidolupin.mp3,,,,,,,,,,,,,,,,,,,,,,,,,,,,,,,,,,,,,,,,,,,,,,,,,,,,,,,,,,,,,,,,,,,,,,,,,,
,,,,,,,,,R_2aXOg2DGybiNRWz,2022-10-10_01h58.33.569,jpn_C03,2022.1.2,MacIntel,60.0024001,,,space,3.3717,0,30,30,7,1,セル　ピク　ムク　ドキ,,,CartoonStims/cowboy_kick_boxer_r_no.jpg,audio/serupikumukudoki.mp3,,,,,,,,,,,,,,,,,,,,,,,,,,,,,,,,,,,,,,,,,,,,,,,,,,,,,,,,,,,,,,,,,,,,,,,,,,
,,,,,,,,,R_2aXOg2DGybiNRWz,2022-10-10_01h58.33.569,jpn_C03,2022.1.2,MacIntel,60.0024001,,,space,3.9676,0,31,31,40,1,プミ　ピク　ホレト　シド,,,CartoonStims/chef_punch_artist_r_no.jpg,audio/pumipikuhoretosido.mp3,,,,,,,,,,,,,,,,,,,,,,,,,,,,,,,,,,,,,,,,,,,,,,,,,,,,,,,,,,,,,,,,,,,,,,,,,,
,,,,,,,,,R_2aXOg2DGybiNRWz,2022-10-10_01h58.33.569,jpn_C03,2022.1.2,MacIntel,60.0024001,,,space,7.34,0,32,32,3,1,セル　ピク　ルピン　ムク,,,CartoonStims/burglar_kick_cowboy_r_no.jpg,audio/serupikulupinmuku.mp3,,,,,,,,,,,,,,,,,,,,,,,,,,,,,,,,,,,,,,,,,,,,,,,,,,,,,,,,,,,,,,,,,,,,,,,,,,
,,,,,,,,,R_2aXOg2DGybiNRWz,2022-10-10_01h58.33.569,jpn_C03,2022.1.2,MacIntel,60.0024001,,,space,2.8695,0,33,33,37,1,プミ　ピク　シド　ドキ,,,CartoonStims/artist_punch_boxer_r_no.jpg,audio/pumipikusidodoki.mp3,,,,,,,,,,,,,,,,,,,,,,,,,,,,,,,,,,,,,,,,,,,,,,,,,,,,,,,,,,,,,,,,,,,,,,,,,,
,,,,,,,,,R_2aXOg2DGybiNRWz,2022-10-10_01h58.33.569,jpn_C03,2022.1.2,MacIntel,60.0024001,,,space,2.6225,0,34,34,38,1,プミ　ピク　ルピン　ドキ,,,CartoonStims/burglar_punch_boxer_r_no.jpg,audio/pumipikulupindoki.mp3,,,,,,,,,,,,,,,,,,,,,,,,,,,,,,,,,,,,,,,,,,,,,,,,,,,,,,,,,,,,,,,,,,,,,,,,,,
,,,,,,,,,R_2aXOg2DGybiNRWz,2022-10-10_01h58.33.569,jpn_C03,2022.1.2,MacIntel,60.0024001,,,space,2.9257,0,35,35,35,1,パツ　ピク　ドキ　ムク,,,CartoonStims/boxer_shoot_cowboy_r_no.jpg,audio/patsupikudokimuku.mp3,,,,,,,,,,,,,,,,,,,,,,,,,,,,,,,,,,,,,,,,,,,,,,,,,,,,,,,,,,,,,,,,,,,,,,,,,,
,,,,,,,,,R_2aXOg2DGybiNRWz,2022-10-10_01h58.33.569,jpn_C03,2022.1.2,MacIntel,60.0024001,,,space,9.2876,0,36,36,46,1,ピク　プミ　ドキ　ムク,,,CartoonStims/boxer_punch_cowboy_r_no.jpg,audio/pikupumidokimuku.mp3,,,,,,,,,,,,,,,,,,,,,,,,,,,,,,,,,,,,,,,,,,,,,,,,,,,,,,,,,,,,,,,,,,,,,,,,,,
,,,,,,,,,R_2aXOg2DGybiNRWz,2022-10-10_01h58.33.569,jpn_C03,2022.1.2,MacIntel,60.0024001,,,space,3.3886,0,37,37,41,1,プミ　ピク　ホレト　ルピン,,,CartoonStims/chef_punch_burglar_r_no.jpg,audio/pumipikuhoretolupin.mp3,,,,,,,,,,,,,,,,,,,,,,,,,,,,,,,,,,,,,,,,,,,,,,,,,,,,,,,,,,,,,,,,,,,,,,,,,,
,,,,,,,,,R_2aXOg2DGybiNRWz,2022-10-10_01h58.33.569,jpn_C03,2022.1.2,MacIntel,60.0024001,,,space,2.5387,0,38,38,22,1,トマ　ピク　ドキ　ルピン,,,CartoonStims/boxer_point_burglar_r_no.jpg,audio/tomapikudokilupin.mp3,,,,,,,,,,,,,,,,,,,,,,,,,,,,,,,,,,,,,,,,,,,,,,,,,,,,,,,,,,,,,,,,,,,,,,,,,,
,,,,,,,,,R_2aXOg2DGybiNRWz,2022-10-10_01h58.33.569,jpn_C03,2022.1.2,MacIntel,60.0024001,,,space,2.1719,0,39,39,42,1,ピク　プミ　ムク　ルピン,,,CartoonStims/cowboy_punch_burglar_r_no.jpg,audio/pikupumimukulupin.mp3,,,,,,,,,,,,,,,,,,,,,,,,,,,,,,,,,,,,,,,,,,,,,,,,,,,,,,,,,,,,,,,,,,,,,,,,,,
,,,,,,,,,R_2aXOg2DGybiNRWz,2022-10-10_01h58.33.569,jpn_C03,2022.1.2,MacIntel,60.0024001,,,space,3.2097,0,40,40,28,1,パツ　ピク　ホレト　ドキ,,,CartoonStims/chef_shoot_boxer_r_no.jpg,audio/patsupikuhoretodoki.mp3,,,,,,,,,,,,,,,,,,,,,,,,,,,,,,,,,,,,,,,,,,,,,,,,,,,,,,,,,,,,,,,,,,,,,,,,,,
,,,,,,,,,R_2aXOg2DGybiNRWz,2022-10-10_01h58.33.569,jpn_C03,2022.1.2,MacIntel,60.0024001,,,space,4.6282,0,41,41,34,1,パツ　ピク　ドキ　ホレト,,,CartoonStims/boxer_shoot_chef_r_no.jpg,audio/patsupikudokihoreto.mp3,,,,,,,,,,,,,,,,,,,,,,,,,,,,,,,,,,,,,,,,,,,,,,,,,,,,,,,,,,,,,,,,,,,,,,,,,,
,,,,,,,,,R_2aXOg2DGybiNRWz,2022-10-10_01h58.33.569,jpn_C03,2022.1.2,MacIntel,60.0024001,,,space,5.8864,0,42,42,47,1,プミ　ピク　ドキ　ピポ,,,CartoonStims/boxer_punch_doctor_r_no.jpg,audio/pumipikudokipipo.mp3,,,,,,,,,,,,,,,,,,,,,,,,,,,,,,,,,,,,,,,,,,,,,,,,,,,,,,,,,,,,,,,,,,,,,,,,,,
,,,,,,,,,R_2aXOg2DGybiNRWz,2022-10-10_01h58.33.569,jpn_C03,2022.1.2,MacIntel,60.0024001,,,space,2.6967,0,43,43,6,1,セル　ピク　ムク　ピポ,,,CartoonStims/cowboy_kick_doctor_r_no.jpg,audio/serupikumukupipo.mp3,,,,,,,,,,,,,,,,,,,,,,,,,,,,,,,,,,,,,,,,,,,,,,,,,,,,,,,,,,,,,,,,,,,,,,,,,,
,,,,,,,,,R_2aXOg2DGybiNRWz,2022-10-10_01h58.33.569,jpn_C03,2022.1.2,MacIntel,60.0024001,,,space,4.9853,0,44,44,4,1,ピク　セル　ホレト　ムク,,,CartoonStims/chef_kick_cowboy_r_no.jpg,audio/pikuseruhoretomuku.mp3,,,,,,,,,,,,,,,,,,,,,,,,,,,,,,,,,,,,,,,,,,,,,,,,,,,,,,,,,,,,,,,,,,,,,,,,,,
,,,,,,,,,R_2aXOg2DGybiNRWz,2022-10-10_01h58.33.569,jpn_C03,2022.1.2,MacIntel,60.0024001,,,space,6.6043,0,45,45,25,1,ピク　パツ　シド　ピポ,,,CartoonStims/artist_shoot_doctor_r_no.jpg,audio/pikupatsusidopipo.mp3,,,,,,,,,,,,,,,,,,,,,,,,,,,,,,,,,,,,,,,,,,,,,,,,,,,,,,,,,,,,,,,,,,,,,,,,,,
,,,,,,,,,R_2aXOg2DGybiNRWz,2022-10-10_01h58.33.569,jpn_C03,2022.1.2,MacIntel,60.0024001,,,space,5.4688,0,46,46,16,1,トマ　ピク　ホレト　ピポ,,,CartoonStims/chef_point_doctor_r_no.jpg,audio/tomapikuhoretopipo.mp3,,,,,,,,,,,,,,,,,,,,,,,,,,,,,,,,,,,,,,,,,,,,,,,,,,,,,,,,,,,,,,,,,,,,,,,,,,
,,,,,,,,,R_2aXOg2DGybiNRWz,2022-10-10_01h58.33.569,jpn_C03,2022.1.2,MacIntel,60.0024001,,,space,1.7241,0,47,47,5,1,セル　ピク　ホレト　ピポ,,,CartoonStims/chef_kick_doctor_r_no.jpg,audio/serupikuhoretopipo.mp3,,,,,,,,,,,,,,,,,,,,,,,,,,,,,,,,,,,,,,,,,,,,,,,,,,,,,,,,,,,,,,,,,,,,,,,,,,
,,,,,,,,,R_2aXOg2DGybiNRWz,2022-10-10_01h58.33.569,jpn_C03,2022.1.2,MacIntel,60.0024001,,,,,,,,,,,,,,,space,0.183,right,1,24.0814,,,,,,,,,,,,,,,,,,,,,,,0,0,0,0,1,,,,,,,,,,,,,,,,,,,,,,,,,,,,,,,,,,,,,,,,,,
,,,,,,,,,R_2aXOg2DGybiNRWz,2022-10-10_01h58.33.569,jpn_C03,2022.1.2,MacIntel,60.0024001,,,,,,,,,,,,,,,,,,,,,,,,,0,0,0,7,1,CartoonStims/cowboy_point_chef_r.jpg,ピク　トマ　ムク　ホレト,CartoonStims/cowboy_kick_chef_r.jpg,right,CartoonStims/cowboy_kick_chef_r.jpg,audio/pikutomamukuhoreto.mp3,"残念！ こちらが正しい画像です。

否定文は起きていないことを示しているのを思い出してください。",,,,,,,,,,,,,,,,,,,,,,,,,,,,,,,,,,,,,,,,,,,,,,,,,,,,
,,,,,,,,,R_2aXOg2DGybiNRWz,2022-10-10_01h58.33.569,jpn_C03,2022.1.2,MacIntel,60.0024001,,,,,,,,,,,,,,,,,left,1,10.072,0,0,0,0,1,,,,,,,,,,,,,,,,,,,,,,,,,,,,,,,,,,,,,,,,,,,,,,,,,,,,,,,,,,,,,,,,
,,,,,,,,,R_2aXOg2DGybiNRWz,2022-10-10_01h58.33.569,jpn_C03,2022.1.2,MacIntel,60.0024001,,,,,,,,,,,,,,,,,,,,,,,,,0,1,1,0,1,CartoonStims/artist_shoot_burglar_r.jpg,ピク　プミ　シド　ルピン,CartoonStims/artist_punch_burglar_r.jpg,left,CartoonStims/artist_shoot_burglar_r.jpg,audio/pikupumisidolupin.mp3,"残念！ こちらが正しい画像です。

否定文は起きていないことを示しているのを思い出してください。",,,,,,,,,,,,,,,,,,,,,,,,,,,,,,,,,,,,,,,,,,,,,,,,,,,,
,,,,,,,,,R_2aXOg2DGybiNRWz,2022-10-10_01h58.33.569,jpn_C03,2022.1.2,MacIntel,60.0024001,,,,,,,,,,,,,,,,,right,1,4.641,,,,,,,,,,,,,,,,,,,,,,,0,0,0,0,1,,,,,,,,,,,,,,,,,,,,,,,,,,,,,,,,,,,,,,,,,,
,,,,,,,,,R_2aXOg2DGybiNRWz,2022-10-10_01h58.33.569,jpn_C03,2022.1.2,MacIntel,60.0024001,,,,,,,,,,,,,,,,,,,,,,,,,0,2,2,11,1,CartoonStims/chef_shoot_burglar_r.jpg,パツ　ピク　ホレト　ルピン,CartoonStims/chef_kick_burglar_r.jpg,right,CartoonStims/chef_kick_burglar_r.jpg,audio/patsupikuhoretolupin.mp3,"残念！ こちらが正しい画像です。

否定文は起きていないことを示しているのを思い出してください。",,,,,,,,,,,,,,,,,,,,,,,,,,,,,,,,,,,,,,,,,,,,,,,,,,,,
,,,,,,,,,R_2aXOg2DGybiNRWz,2022-10-10_01h58.33.569,jpn_C03,2022.1.2,MacIntel,60.0024001,,,,,,,,,,,,,,,,,left,1,2.6088,0,0,0,0,1,,,,,,,,,,,,,,,,,,,,,,,,,,,,,,,,,,,,,,,,,,,,,,,,,,,,,,,,,,,,,,,,
,,,,,,,,,R_2aXOg2DGybiNRWz,2022-10-10_01h58.33.569,jpn_C03,2022.1.2,MacIntel,60.0024001,,,,,,,,,,,,,,,,,,,,,,,,,0,3,3,2,1,CartoonStims/doctor_point_boxer_r.jpg,プミ　ピク　ピポ　ドキ,CartoonStims/doctor_punch_boxer_r.jpg,left,CartoonStims/doctor_point_boxer_r.jpg,audio/pumipikupipodoki.mp3,"残念！ こちらが正しい画像です。

否定文は起きていないことを示しているのを思い出してください。",,,,,,,,,,,,,,,,,,,,,,,,,,,,,,,,,,,,,,,,,,,,,,,,,,,,
,,,,,,,,,R_2aXOg2DGybiNRWz,2022-10-10_01h58.33.569,jpn_C03,2022.1.2,MacIntel,60.0024001,,,,,,,,,,,,,,,,,left,1,3.7752,0,0,0,0,1,,,,,,,,,,,,,,,,,,,,,,,,,,,,,,,,,,,,,,,,,,,,,,,,,,,,,,,,,,,,,,,,
,,,,,,,,,R_2aXOg2DGybiNRWz,2022-10-10_01h58.33.569,jpn_C03,2022.1.2,MacIntel,60.0024001,,,,,,,,,,,,,,,,,,,,,,,,,0,4,4,6,1,CartoonStims/artist_shoot_boxer_r.jpg,トマ　ピク　シド　ドキ,CartoonStims/artist_point_boxer_r.jpg,left,CartoonStims/artist_shoot_boxer_r.jpg,audio/tomapikusidodoki.mp3,"残念！ こちらが正しい画像です。

否定文は起きていないことを示しているのを思い出してください。",,,,,,,,,,,,,,,,,,,,,,,,,,,,,,,,,,,,,,,,,,,,,,,,,,,,
,,,,,,,,,R_2aXOg2DGybiNRWz,2022-10-10_01h58.33.569,jpn_C03,2022.1.2,MacIntel,60.0024001,,,,,,,,,,,,,,,,,right,1,5.1558,,,,,,,,,,,,,,,,,,,,,,,0,0,0,0,1,,,,,,,,,,,,,,,,,,,,,,,,,,,,,,,,,,,,,,,,,,
,,,,,,,,,R_2aXOg2DGybiNRWz,2022-10-10_01h58.33.569,jpn_C03,2022.1.2,MacIntel,60.0024001,,,,,,,,,,,,,,,,,,,,,,,,,0,5,5,3,1,CartoonStims/chef_kick_artist_r.jpg,ピク　セル　ホレト　シド,CartoonStims/chef_point_artist_r.jpg,right,CartoonStims/chef_point_artist_r.jpg,audio/pikuseruhoretosido.mp3,"残念！ こちらが正しい画像です。

否定文は起きていないことを示しているのを思い出してください。",,,,,,,,,,,,,,,,,,,,,,,,,,,,,,,,,,,,,,,,,,,,,,,,,,,,
,,,,,,,,,R_2aXOg2DGybiNRWz,2022-10-10_01h58.33.569,jpn_C03,2022.1.2,MacIntel,60.0024001,,,,,,,,,,,,,,,,,left,1,4.8612,0,0,0,0,1,,,,,,,,,,,,,,,,,,,,,,,,,,,,,,,,,,,,,,,,,,,,,,,,,,,,,,,,,,,,,,,,
,,,,,,,,,R_2aXOg2DGybiNRWz,2022-10-10_01h58.33.569,jpn_C03,2022.1.2,MacIntel,60.0024001,,,,,,,,,,,,,,,,,,,,,,,,,0,6,6,8,1,CartoonStims/burglar_punch_artist_r.jpg,トマ　ピク　ルピン　シド,CartoonStims/burglar_point_artist_r.jpg,left,CartoonStims/burglar_punch_artist_r.jpg,audio/tomapikulupinsido.mp3,"残念！ こちらが正しい画像です。

否定文は起きていないことを示しているのを思い出してください。",,,,,,,,,,,,,,,,,,,,,,,,,,,,,,,,,,,,,,,,,,,,,,,,,,,,
,,,,,,,,,R_2aXOg2DGybiNRWz,2022-10-10_01h58.33.569,jpn_C03,2022.1.2,MacIntel,60.0024001,,,,,,,,,,,,,,,,,right,1,1.8218,,,,,,,,,,,,,,,,,,,,,,,0,0,0,0,1,,,,,,,,,,,,,,,,,,,,,,,,,,,,,,,,,,,,,,,,,,
,,,,,,,,,R_2aXOg2DGybiNRWz,2022-10-10_01h58.33.569,jpn_C03,2022.1.2,MacIntel,60.0024001,,,,,,,,,,,,,,,,,,,,,,,,,0,7,7,9,1,CartoonStims/boxer_shoot_doctor_r.jpg,パツ　ピク　ドキ　ピポ,CartoonStims/boxer_point_doctor_r.jpg,right,CartoonStims/boxer_point_doctor_r.jpg,audio/patsupikudokipipo.mp3,"残念！ こちらが正しい画像です。

否定文は起きていないことを示しているのを思い出してください。",,,,,,,,,,,,,,,,,,,,,,,,,,,,,,,,,,,,,,,,,,,,,,,,,,,,
,,,,,,,,,R_2aXOg2DGybiNRWz,2022-10-10_01h58.33.569,jpn_C03,2022.1.2,MacIntel,60.0024001,,,,,,,,,,,,,,,,,right,1,2.4446,,,,,,,,,,,,,,,,,,,,,,,0,0,0,0,1,,,,,,,,,,,,,,,,,,,,,,,,,,,,,,,,,,,,,,,,,,
,,,,,,,,,R_2aXOg2DGybiNRWz,2022-10-10_01h58.33.569,jpn_C03,2022.1.2,MacIntel,60.0024001,,,,,,,,,,,,,,,,,,,,,,,,,0,8,8,1,1,CartoonStims/chef_punch_cowboy_r.jpg,プミ　ピク　ホレト　ムク,CartoonStims/chef_kick_cowboy_r.jpg,right,CartoonStims/chef_kick_cowboy_r.jpg,audio/pumipikuhoretomuku.mp3,"残念！ こちらが正しい画像です。

否定文は起きていないことを示しているのを思い出してください。",,,,,,,,,,,,,,,,,,,,,,,,,,,,,,,,,,,,,,,,,,,,,,,,,,,,
,,,,,,,,,R_2aXOg2DGybiNRWz,2022-10-10_01h58.33.569,jpn_C03,2022.1.2,MacIntel,60.0024001,,,,,,,,,,,,,,,,,left,1,9.483,0,0,0,0,1,,,,,,,,,,,,,,,,,,,,,,,,,,,,,,,,,,,,,,,,,,,,,,,,,,,,,,,,,,,,,,,,
,,,,,,,,,R_2aXOg2DGybiNRWz,2022-10-10_01h58.33.569,jpn_C03,2022.1.2,MacIntel,60.0024001,,,,,,,,,,,,,,,,,,,,,,,,,0,9,9,10,1,CartoonStims/doctor_punch_cowboy_r.jpg,ピク　パツ　ピポ　ムク,CartoonStims/doctor_shoot_cowboy_r.jpg,left,CartoonStims/doctor_punch_cowboy_r.jpg,audio/pikupatsupipomuku.mp3,"残念！ こちらが正しい画像です。

否定文は起きていないことを示しているのを思い出してください。",,,,,,,,,,,,,,,,,,,,,,,,,,,,,,,,,,,,,,,,,,,,,,,,,,,,
,,,,,,,,,R_2aXOg2DGybiNRWz,2022-10-10_01h58.33.569,jpn_C03,2022.1.2,MacIntel,60.0024001,,,,,,,,,,,,,,,,,left,1,3.5722,0,0,0,0,1,,,,,,,,,,,,,,,,,,,,,,,,,,,,,,,,,,,,,,,,,,,,,,,,,,,,,,,,,,,,,,,,
,,,,,,,,,R_2aXOg2DGybiNRWz,2022-10-10_01h58.33.569,jpn_C03,2022.1.2,MacIntel,60.0024001,,,,,,,,,,,,,,,,,,,,,,,,,0,10,10,4,1,CartoonStims/burglar_shoot_doctor_r.jpg,セル　ピク　ルピン　ピポ,CartoonStims/burglar_kick_doctor_r.jpg,left,CartoonStims/burglar_shoot_doctor_r.jpg,audio/serupikulupinpipo.mp3,"残念！ こちらが正しい画像です。

否定文は起きていないことを示しているのを思い出してください。",,,,,,,,,,,,,,,,,,,,,,,,,,,,,,,,,,,,,,,,,,,,,,,,,,,,
,,,,,,,,,R_2aXOg2DGybiNRWz,2022-10-10_01h58.33.569,jpn_C03,2022.1.2,MacIntel,60.0024001,,,,,,,,,,,,,,,,,right,1,4.0626,,,,,,,,,,,,,,,,,,,,,,,0,0,0,0,1,,,,,,,,,,,,,,,,,,,,,,,,,,,,,,,,,,,,,,,,,,
,,,,,,,,,R_2aXOg2DGybiNRWz,2022-10-10_01h58.33.569,jpn_C03,2022.1.2,MacIntel,60.0024001,,,,,,,,,,,,,,,,,,,,,,,,,0,11,11,5,1,CartoonStims/boxer_kick_cowboy_r.jpg,セル　ピク　ドキ　ムク,CartoonStims/boxer_punch_cowboy_r.jpg,right,CartoonStims/boxer_punch_cowboy_r.jpg,audio/serupikudokimuku.mp3,"残念！ こちらが正しい画像です。

否定文は起きていないことを示しているのを思い出してください。",,,,,,,,,,,,,,,,,,,,,,,,,,,,,,,,,,,,,,,,,,,,,,,,,,,,
,,,,,,,,,R_2aXOg2DGybiNRWz,2022-10-10_01h58.33.569,jpn_C03,2022.1.2,MacIntel,60.0024001,,,,,,,,,,,,,CartoonStims/chef_shoot_doctor_r_no.jpg,,,,,,,,,,,,,,,,,,,,,,,,,,,,,,,,,,,,,,,space,6.9053,パツ　ピク　ホレト　シド,right,26.6368,,,,,,0,0,0,14,1,,,,,,,,,,,,,,,,,,,,ピク　パツ　ホレト　ピポ,パツ　ピク　ホレト　ピポ,1
,,,,,,,,,R_2aXOg2DGybiNRWz,2022-10-10_01h58.33.569,jpn_C03,2022.1.2,MacIntel,60.0024001,,,,,,,,,,,,,CartoonStims/cowboy_punch_artist_r_no.jpg,,,,,,,,,,,,,,,,,,,,,,,,,,,,,,,,,,,,,,,,,プミ　ピク　ムク　シド,right,43.8063,,,,,,0,1,1,21,1,,,,,,,,,,,,,,,,,,,,ピク　プミ　ムク　シド,プミ　ピク　ムク　シド,1
,,,,,,,,,R_2aXOg2DGybiNRWz,2022-10-10_01h58.33.569,jpn_C03,2022.1.2,MacIntel,60.0024001,,,,,,,,,,,,,CartoonStims/cowboy_kick_chef_r_no.jpg,,,,,,,,,,,,,,,,,,,,,,,,,,,,,,,,,,,,,,,,,セル　ピク　ムク　ホレト,right,20.1585,,,,,,0,2,2,3,1,,,,,,,,,,,,,,,,,,,,ピク　セル　ムク　ホレト,セル　ピク　ムク　ホレト,1
,,,,,,,,,R_2aXOg2DGybiNRWz,2022-10-10_01h58.33.569,jpn_C03,2022.1.2,MacIntel,60.0024001,,,,,,,,,,,,,CartoonStims/burglar_punch_doctor_r_no.jpg,,,,,,,,,,,,,,,,,,,,,,,,,,,,,,,,,,,,,,,,,プミ　ピク　ルピン　ピポ,right,27.7213,,,,,,0,3,3,19,1,,,,,,,,,,,,,,,,,,,,ピク　プミ　ルピン　ピポ,プミ　ピク　ルピン　ピポ,1
,,,,,,,,,R_2aXOg2DGybiNRWz,2022-10-10_01h58.33.569,jpn_C03,2022.1.2,MacIntel,60.0024001,,,,,,,,,,,,,CartoonStims/chef_punch_boxer_r_no.jpg,,,,,,,,,,,,,,,,,,,,,,,,,,,,,,,,,,,,,,,,,ピク　プミ　ホレト　ドキ,right,36.2875,,,,,,0,4,4,20,1,,,,,,,,,,,,,,,,,,,,ピク　プミ　ホレト　ドキ,プミ　ピク　ホレト　ドキ,1
,,,,,,,,,R_2aXOg2DGybiNRWz,2022-10-10_01h58.33.569,jpn_C03,2022.1.2,MacIntel,60.0024001,,,,,,,,,,,,,CartoonStims/doctor_punch_burglar_r_no.jpg,,,,,,,,,,,,,,,,,,,,,,,,,,,,,,,,,,,,,,,,,プミ　ピク　ピポ　ルピン,right,42.8501,,,,,,0,5,5,22,1,,,,,,,,,,,,,,,,,,,,ピク　プミ　ピポ　ルピン,プミ　ピク　ピポ　ルピン,1
,,,,,,,,,R_2aXOg2DGybiNRWz,2022-10-10_01h58.33.569,jpn_C03,2022.1.2,MacIntel,60.0024001,,,,,,,,,,,,,CartoonStims/burglar_point_artist_r.jpg,,,,,,,,,,,,,,,,,,,,,,,,,,,,,,,,,,,,,,,,,トマ　ピク　ルピン　シド,right,19.1564,,,,,,0,6,6,28,1,,,,,,,,,,,,,,,,,,,,トマ　ルピン　シド,トマ　ルピン　シド,0
,,,,,,,,,R_2aXOg2DGybiNRWz,2022-10-10_01h58.33.569,jpn_C03,2022.1.2,MacIntel,60.0024001,,,,,,,,,,,,,CartoonStims/cowboy_shoot_boxer_r_no.jpg,,,,,,,,,,,,,,,,,,,,,,,,,,,,,,,,,,,,,,,,,パツ　ピク　ムク　ドキ,right,20.1108,,,,,,0,7,7,15,1,,,,,,,,,,,,,,,,,,,,ピク　パツ　ムク　ドキ,パツ　ピク　ムク　ドキ,1
,,,,,,,,,R_2aXOg2DGybiNRWz,2022-10-10_01h58.33.569,jpn_C03,2022.1.2,MacIntel,60.0024001,,,,,,,,,,,,,CartoonStims/burglar_kick_artist_r_no.jpg,,,,,,,,,,,,,,,,,,,,,,,,,,,,,,,,,,,,,,,,,セル　ピク　ルピン　シド,right,19.4087,,,,,,0,8,8,1,1,,,,,,,,,,,,,,,,,,,,ピク　セル　ルピン　シド,セル　ピク　ルピン　シド,1
,,,,,,,,,R_2aXOg2DGybiNRWz,2022-10-10_01h58.33.569,jpn_C03,2022.1.2,MacIntel,60.0024001,,,,,,,,,,,,,CartoonStims/burglar_shoot_chef_r.jpg,,,,,,,,,,,,,,,,,,,,,,,,,,,,,,,,,,,,,,,,,パツ　ルピン　ホレト,right,14.5863,,,,,,0,9,9,30,1,,,,,,,,,,,,,,,,,,,,パツ　ルピン　ホレト,パツ　ルピン　ホレト,0
,,,,,,,,,R_2aXOg2DGybiNRWz,2022-10-10_01h58.33.569,jpn_C03,2022.1.2,MacIntel,60.0024001,,,,,,,,,,,,,CartoonStims/chef_kick_burglar_r_no.jpg,,,,,,,,,,,,,,,,,,,,,,,,,,,,,,,,,,,,,,,,,セル　ピク　ホレト　ルピン,right,14.4907,,,,,,0,10,10,2,1,,,,,,,,,,,,,,,,,,,,ピク　セル　ホレト　ルピン,セル　ピク　ホレト　ルピン,1
,,,,,,,,,R_2aXOg2DGybiNRWz,2022-10-10_01h58.33.569,jpn_C03,2022.1.2,MacIntel,60.0024001,,,,,,,,,,,,,CartoonStims/cowboy_shoot_doctor_r.jpg,,,,,,,,,,,,,,,,,,,,,,,,,,,,,,,,,,,,,,,,,パツ　ムク　ピポ,right,12.484,,,,,,0,11,11,32,1,,,,,,,,,,,,,,,,,,,,パツ　ムク　ピポ,パツ　ムク　ピポ,0
,,,,,,,,,R_2aXOg2DGybiNRWz,2022-10-10_01h58.33.569,jpn_C03,2022.1.2,MacIntel,60.0024001,,,,,,,,,,,,,CartoonStims/boxer_kick_doctor_r_no.jpg,,,,,,,,,,,,,,,,,,,,,,,,,,,,,,,,,,,,,,,,,ピク　セル　ドキ　ピポ,right,22.8027,,,,,,0,12,12,5,1,,,,,,,,,,,,,,,,,,,,ピク　セル　ドキ　ピポ,セル　ピク　ドキ　ピポ,1
,,,,,,,,,R_2aXOg2DGybiNRWz,2022-10-10_01h58.33.569,jpn_C03,2022.1.2,MacIntel,60.0024001,,,,,,,,,,,,,CartoonStims/cowboy_kick_burglar_r.jpg,,,,,,,,,,,,,,,,,,,,,,,,,,,,,,,,,,,,,,,,,セル　ムク　ルピン,right,10.7647,,,,,,0,13,13,24,1,,,,,,,,,,,,,,,,,,,,セル　ムク　ルピン,セル　ムク　ルピン,0
,,,,,,,,,R_2aXOg2DGybiNRWz,2022-10-10_01h58.33.569,jpn_C03,2022.1.2,MacIntel,60.0024001,,,,,,,,,,,,,CartoonStims/doctor_punch_boxer_r.jpg,,,,,,,,,,,,,,,,,,,,,,,,,,,,,,,,,,,,,,,,,パツ　ピポ　ドキ,right,11.0971,,,,,,0,14,14,34,1,,,,,,,,,,,,,,,,,,,,プミ　ピポ　ドキ,プミ　ピポ　ドキ,0
,,,,,,,,,R_2aXOg2DGybiNRWz,2022-10-10_01h58.33.569,jpn_C03,2022.1.2,MacIntel,60.0024001,,,,,,,,,,,,,CartoonStims/artist_point_burglar_r_no.jpg,,,,,,,,,,,,,,,,,,,,,,,,,,,,,,,,,,,,,,,,,トマ　ピク　シド　ルピン,right,39.4802,,,,,,0,15,15,6,1,,,,,,,,,,,,,,,,,,,,ピク　トマ　シド　ルピン,トマ　ピク　シド　ルピン,1
,,,,,,,,,R_2aXOg2DGybiNRWz,2022-10-10_01h58.33.569,jpn_C03,2022.1.2,MacIntel,60.0024001,,,,,,,,,,,,,CartoonStims/doctor_shoot_artist_r_no.jpg,,,,,,,,,,,,,,,,,,,,,,,,,,,,,,,,,,,,,,,,,パツ　ピク　ピポ　シド,right,23.1495,,,,,,0,16,16,16,1,,,,,,,,,,,,,,,,,,,,ピク　パツ　ピポ　シド,パツ　ピク　ピポ　シド,1
,,,,,,,,,R_2aXOg2DGybiNRWz,2022-10-10_01h58.33.569,jpn_C03,2022.1.2,MacIntel,60.0024001,,,,,,,,,,,,,CartoonStims/boxer_punch_chef_r_no.jpg,,,,,,,,,,,,,,,,,,,,,,,,,,,,,,,,,,,,,,,,,プミ　ピク　ドキ　ホレト,right,25.1365,,,,,,0,17,17,23,1,,,,,,,,,,,,,,,,,,,,ピク　プミ　ドキ　ホレト,プミ　ピク　ドキ　ホレト,1
,,,,,,,,,R_2aXOg2DGybiNRWz,2022-10-10_01h58.33.569,jpn_C03,2022.1.2,MacIntel,60.0024001,,,,,,,,,,,,,CartoonStims/cowboy_point_doctor_r_no.jpg,,,,,,,,,,,,,,,,,,,,,,,,,,,,,,,,,,,,,,,,,トマ　ピク　ムク　ピポ,right,12.447,,,,,,0,18,18,9,1,,,,,,,,,,,,,,,,,,,,ピク　トマ　ムク　ピポ,トマ　ピク　ムク　ピポ,1
,,,,,,,,,R_2aXOg2DGybiNRWz,2022-10-10_01h58.33.569,jpn_C03,2022.1.2,MacIntel,60.0024001,,,,,,,,,,,,,CartoonStims/doctor_kick_chef_r.jpg,,,,,,,,,,,,,,,,,,,,,,,,,,,,,,,,,,,,,,,,,セル　ピポ　ホレト,right,9.2783,,,,,,0,19,19,25,1,,,,,,,,,,,,,,,,,,,,セル　ピポ　ホレト,セル　ピポ　ホレト,0
,,,,,,,,,R_2aXOg2DGybiNRWz,2022-10-10_01h58.33.569,jpn_C03,2022.1.2,MacIntel,60.0024001,,,,,,,,,,,,,CartoonStims/boxer_kick_cowboy_r.jpg,,,,,,,,,,,,,,,,,,,,,,,,,,,,,,,,,,,,,,,,,セル　ドキ　ムク,right,7.8441,,,,,,0,20,20,26,1,,,,,,,,,,,,,,,,,,,,セル　ドキ　ムク,セル　ドキ　ムク,0
,,,,,,,,,R_2aXOg2DGybiNRWz,2022-10-10_01h58.33.569,jpn_C03,2022.1.2,MacIntel,60.0024001,,,,,,,,,,,,,CartoonStims/boxer_shoot_burglar_r_no.jpg,,,,,,,,,,,,,,,,,,,,,,,,,,,,,,,,,,,,,,,,,パツピクドキルピン,right,11.8023,,,,,,0,21,21,17,1,,,,,,,,,,,,,,,,,,,,ピク　パツ　ドキ　ルピン,パツ　ピク　ドキ　ルピン,1
,,,,,,,,,R_2aXOg2DGybiNRWz,2022-10-10_01h58.33.569,jpn_C03,2022.1.2,MacIntel,60.0024001,,,,,,,,,,,,,CartoonStims/artist_shoot_chef_r_no.jpg,,,,,,,,,,,,,,,,,,,,,,,,,,,,,,,,,,,,,,,,,パツ　ピク　シド　ホレト,right,29.3452,,,,,,0,22,22,12,1,,,,,,,,,,,,,,,,,,,,ピク　パツ　シド　ホレト,パツ　ピク　シド　ホレト,1
,,,,,,,,,R_2aXOg2DGybiNRWz,2022-10-10_01h58.33.569,jpn_C03,2022.1.2,MacIntel,60.0024001,,,,,,,,,,,,,CartoonStims/artist_punch_burglar_r.jpg,,,,,,,,,,,,,,,,,,,,,,,,,,,,,,,,,,,,,,,,,プミ　シド　ルピン,right,28.997,,,,,,0,23,23,33,1,,,,,,,,,,,,,,,,,,,,プミ　シド　ルピン,プミ　シド　ルピン,0
,,,,,,,,,R_2aXOg2DGybiNRWz,2022-10-10_01h58.33.569,jpn_C03,2022.1.2,MacIntel,60.0024001,,,,,,,,,,,,,CartoonStims/chef_point_burglar_r.jpg,,,,,,,,,,,,,,,,,,,,,,,,,,,,,,,,,,,,,,,,,トマ　ホレト　ルピン,right,13.106,,,,,,0,24,24,29,1,,,,,,,,,,,,,,,,,,,,トマ　ホレト　ルピン,トマ　ホレト　ルピン,0
,,,,,,,,,R_2aXOg2DGybiNRWz,2022-10-10_01h58.33.569,jpn_C03,2022.1.2,MacIntel,60.0024001,,,,,,,,,,,,,CartoonStims/chef_shoot_cowboy_r.jpg,,,,,,,,,,,,,,,,,,,,,,,,,,,,,,,,,,,,,,,,,パツ　ホレト　ムク,right,17.9894,,,,,,0,25,25,31,1,,,,,,,,,,,,,,,,,,,,パツ　ホレト　ムク,パツ　ホレト　ムク,0
,,,,,,,,,R_2aXOg2DGybiNRWz,2022-10-10_01h58.33.569,jpn_C03,2022.1.2,MacIntel,60.0024001,,,,,,,,,,,,,CartoonStims/artist_kick_boxer_r_no.jpg,,,,,,,,,,,,,,,,,,,,,,,,,,,,,,,,,,,,,,,,,セル　ピク　シド　ドキ,right,16.7729,,,,,,0,26,26,0,1,,,,,,,,,,,,,,,,,,,,ピク　セル　シド　ドキ,セル　ピク　シド　ドキ,1
,,,,,,,,,R_2aXOg2DGybiNRWz,2022-10-10_01h58.33.569,jpn_C03,2022.1.2,MacIntel,60.0024001,,,,,,,,,,,,,CartoonStims/burglar_point_chef_r_no.jpg,,,,,,,,,,,,,,,,,,,,,,,,,,,,,,,,,,,,,,,,,トマ　ピク　ルピン　ホレト,right,12.9912,,,,,,0,27,27,7,1,,,,,,,,,,,,,,,,,,,,ピク　トマ　ルピン　ホレト,トマ　ピク　ルピン　ホレト,1
,,,,,,,,,R_2aXOg2DGybiNRWz,2022-10-10_01h58.33.569,jpn_C03,2022.1.2,MacIntel,60.0024001,,,,,,,,,,,,,CartoonStims/artist_point_boxer_r.jpg,,,,,,,,,,,,,,,,,,,,,,,,,,,,,,,,,,,,,,,,,トマ　シド　ドキ,right,25.1868,,,,,,0,28,28,27,1,,,,,,,,,,,,,,,,,,,,トマ　シド　ドキ,トマ　シド　ドキ,0
,,,,,,,,,R_2aXOg2DGybiNRWz,2022-10-10_01h58.33.569,jpn_C03,2022.1.2,MacIntel,60.0024001,,,,,,,,,,,,,CartoonStims/doctor_point_boxer_r_no.jpg,,,,,,,,,,,,,,,,,,,,,,,,,,,,,,,,,,,,,,,,,トマ　ピク　ピポ　ドキ,right,12.9571,,,,,,0,29,29,10,1,,,,,,,,,,,,,,,,,,,,ピク　トマ　ピポ　ドキ,トマ　ピク　ピポ　ドキ,1
,,,,,,,,,R_2aXOg2DGybiNRWz,2022-10-10_01h58.33.569,jpn_C03,2022.1.2,MacIntel,60.0024001,,,,,,,,,,,,,CartoonStims/chef_point_cowboy_r_no.jpg,,,,,,,,,,,,,,,,,,,,,,,,,,,,,,,,,,,,,,,,,トマ　ピク　ホレト　ムク,right,15.5959,,,,,,0,30,30,8,1,,,,,,,,,,,,,,,,,,,,ピク　トマ　ホレト　ムク,トマ　ピク　ホレト　ムク,1
,,,,,,,,,R_2aXOg2DGybiNRWz,2022-10-10_01h58.33.569,jpn_C03,2022.1.2,MacIntel,60.0024001,,,,,,,,,,,,,CartoonStims/doctor_kick_cowboy_r_no.jpg,,,,,,,,,,,,,,,,,,,,,,,,,,,,,,,,,,,,,,,,,セル　ピク　ピポ　ムク,right,16.8967,,,,,,0,31,31,4,1,,,,,,,,,,,,,,,,,,,,ピク　セル　ピポ　ムク,セル　ピク　ピポ　ムク,1
,,,,,,,,,R_2aXOg2DGybiNRWz,2022-10-10_01h58.33.569,jpn_C03,2022.1.2,MacIntel,60.0024001,,,,,,,,,,,,,CartoonStims/boxer_punch_artist_r.jpg,,,,,,,,,,,,,,,,,,,,,,,,,,,,,,,,,,,,,,,,,プミ　ドキ　シド,right,15.8974,,,,,,0,32,32,35,1,,,,,,,,,,,,,,,,,,,,プミ　ドキ　シド,プミ　ドキ　シド,0
,,,,,,,,,R_2aXOg2DGybiNRWz,2022-10-10_01h58.33.569,jpn_C03,2022.1.2,MacIntel,60.0024001,,,,,,,,,,,,,CartoonStims/boxer_point_artist_r_no.jpg,,,,,,,,,,,,,,,,,,,,,,,,,,,,,,,,,,,,,,,,,トマ　ピク　ドキ　シド,right,16.3205,,,,,,0,33,33,11,1,,,,,,,,,,,,,,,,,,,,ピク　トマ　ドキ　シド,トマ　ピク　ドキ　シド,1
,,,,,,,,,R_2aXOg2DGybiNRWz,2022-10-10_01h58.33.569,jpn_C03,2022.1.2,MacIntel,60.0024001,,,,,,,,,,,,,CartoonStims/burglar_shoot_cowboy_r_no.jpg,,,,,,,,,,,,,,,,,,,,,,,,,,,,,,,,,,,,,,,,,パツ　ピク　ルピン　ムク,right,22.2695,,,,,,0,34,34,13,1,,,,,,,,,,,,,,,,,,,,ピク　パツ　ルピン　ムク,パツ　ピク　ルピン　ムク,1
,,,,,,,,,R_2aXOg2DGybiNRWz,2022-10-10_01h58.33.569,jpn_C03,2022.1.2,MacIntel,60.0024001,,,,,,,,,,,,,CartoonStims/artist_punch_cowboy_r_no.jpg,,,,,,,,,,,,,,,,,,,,,,,,,,,,,,,,,,,,,,,,,プミ　ピク　シド　ムク,right,22.5273,,,,,,0,35,35,18,1,,,,,,,,,,,,,,,,,,,,ピク　プミ　シド　ムク,プミ　ピク　シド　ムク,1
,,,,,,,,,R_2aXOg2DGybiNRWz,2022-10-10_01h58.33.569,jpn_C03,2022.1.2,MacIntel,60.0024001,,,,,,,,,,,,,,,,,,,,,,,,,,,,,,,,,,,,,,,,,,,,,,,,,,,,,,,,,,,,,,,,,,,,,space,2.2323,0,2,2,2,1,VNegCondition.xlsx,"ここではこの言語における否定の文を学習していただきます。引き続き注意して、 聞こえた音を復唱してください。

スペースキーを押してください。",1,VNegFCT.xlsx,ここからクイズが始まります。 スクリーンに表示されるテキストに合うイメージを選んでください。,NegTest.xlsx,1,最後にここまで学んだことをアウトプットしていただきます。 テキストボックスにあるイメージを描写するテキストを入力してください。 このタスクでは、 答え合わせは行いません。,0,これですべての実験が終わりました。 お疲れさまです。 この後はアンケートに答えていただきます。,,,