key_resp_instr_a.keys,key_resp_instr_a.rt,key_resp_instr_b.keys,key_resp_instr_b.rt,dummy.thisRepN,dummy.thisTrialN,dummy.thisN,dummy.thisIndex,dummy.ran,participant,date,expName,psychopyVersion,OS,frameRate,key_resp_instr1.keys,key_resp_instr1.rt,key_resp.keys,key_resp.rt,exp_loop.thisRepN,exp_loop.thisTrialN,exp_loop.thisN,exp_loop.thisIndex,exp_loop.ran,Word,English,Flip,Path,Audio,key_resp_instr2.keys,key_resp_instr2.rt,key_resp_fct.keys,key_resp_fct.corr,key_resp_fct.rt,trials_2.thisRepN,trials_2.thisTrialN,trials_2.thisN,trials_2.thisIndex,trials_2.ran,fct_loop.thisRepN,fct_loop.thisTrialN,fct_loop.thisN,fct_loop.thisIndex,fct_loop.ran,left_img,word,right_img,correctans,correct_img,audio,incorrect_feedback,trials.thisRepN,trials.thisTrialN,trials.thisN,trials.thisIndex,trials.ran,key_resp_instr3.keys,key_resp_instr3.rt,textbox.text,key_resp_2.keys,key_resp_2.rt,fb_yn.thisRepN,fb_yn.thisTrialN,fb_yn.thisN,fb_yn.thisIndex,fb_yn.ran,gather_loop.thisRepN,gather_loop.thisTrialN,gather_loop.thisN,gather_loop.thisIndex,gather_loop.ran,Text,Wordbank,key_resp_instr4.keys,key_resp_instr4.rt,master_loop.thisRepN,master_loop.thisTrialN,master_loop.thisN,master_loop.thisIndex,master_loop.ran,exposure_file,instr_1,exp_reps,fct_file,instr_2,gather_file,gather_reps,instr_3,fReps,instr_4,trials_3.thisRepN,trials_3.thisTrialN,trials_3.thisN,trials_3.thisIndex,trials_3.ran,NegVSentence,VNegSentence,NegTF
space,3.994,space,9.4113,0,0,0,0,1,R_2qvEcle6gUufofI,2022-11-20_12h41.11.100,jpn_C01,2022.1.2,Linux x86_64,60.03121623,,,,,,,,,,,,,,,,,,,,,,,,,,,,,,,,,,,,,,,,,,,,,,,,,,,,,,,,,,,,,,,,,,,,,,,,,,,,,,,,,,,
,,,,,,,,,R_2qvEcle6gUufofI,2022-11-20_12h41.11.100,jpn_C01,2022.1.2,Linux x86_64,60.03121623,space,6.5134,space,5.5409,0,0,0,2,1,ホレト,chef,,CartoonStims/chef_r.jpg,audio/horeto.mp3,,,,,,,,,,,,,,,,,,,,,,,,,,,,,,,,,,,,,,,,,,,,,,,,,,,,,,,,,,,,,,,,,,,,,
,,,,,,,,,R_2qvEcle6gUufofI,2022-11-20_12h41.11.100,jpn_C01,2022.1.2,Linux x86_64,60.03121623,,,space,6.2326,0,1,1,3,1,ムク,cowboy,,CartoonStims/cowboy_r.jpg,audio/muku.mp3,,,,,,,,,,,,,,,,,,,,,,,,,,,,,,,,,,,,,,,,,,,,,,,,,,,,,,,,,,,,,,,,,,,,,
,,,,,,,,,R_2qvEcle6gUufofI,2022-11-20_12h41.11.100,jpn_C01,2022.1.2,Linux x86_64,60.03121623,,,space,4.2596,0,2,2,0,1,シド,artist,,CartoonStims/artist_r.jpg,audio/sido.mp3,,,,,,,,,,,,,,,,,,,,,,,,,,,,,,,,,,,,,,,,,,,,,,,,,,,,,,,,,,,,,,,,,,,,,
,,,,,,,,,R_2qvEcle6gUufofI,2022-11-20_12h41.11.100,jpn_C01,2022.1.2,Linux x86_64,60.03121623,,,space,5.12,0,3,3,4,1,ピポ,doctor,,CartoonStims/doctor_r.jpg,audio/pipo.mp3,,,,,,,,,,,,,,,,,,,,,,,,,,,,,,,,,,,,,,,,,,,,,,,,,,,,,,,,,,,,,,,,,,,,,
,,,,,,,,,R_2qvEcle6gUufofI,2022-11-20_12h41.11.100,jpn_C01,2022.1.2,Linux x86_64,60.03121623,,,space,5.1345,0,4,4,5,1,ドキ,boxer,,CartoonStims/boxer_r.jpg,audio/doki.mp3,,,,,,,,,,,,,,,,,,,,,,,,,,,,,,,,,,,,,,,,,,,,,,,,,,,,,,,,,,,,,,,,,,,,,
,,,,,,,,,R_2qvEcle6gUufofI,2022-11-20_12h41.11.100,jpn_C01,2022.1.2,Linux x86_64,60.03121623,,,space,4.1794,0,5,5,1,1,ルピン,burglar,,CartoonStims/burglar_r.jpg,audio/lupin.mp3,,,,,,,,,,,,,,,,,,,,,,,,,,,,,,,,,,,,,,,,,,,,,,,,,,,,,,,,,,,,,,,,,,,,,
,,,,,,,,,R_2qvEcle6gUufofI,2022-11-20_12h41.11.100,jpn_C01,2022.1.2,Linux x86_64,60.03121623,,,space,1.7341,1,0,6,4,1,ピポ,doctor,,CartoonStims/doctor_r.jpg,audio/pipo.mp3,,,,,,,,,,,,,,,,,,,,,,,,,,,,,,,,,,,,,,,,,,,,,,,,,,,,,,,,,,,,,,,,,,,,,
,,,,,,,,,R_2qvEcle6gUufofI,2022-11-20_12h41.11.100,jpn_C01,2022.1.2,Linux x86_64,60.03121623,,,space,1.4092,1,1,7,2,1,ホレト,chef,,CartoonStims/chef_r.jpg,audio/horeto.mp3,,,,,,,,,,,,,,,,,,,,,,,,,,,,,,,,,,,,,,,,,,,,,,,,,,,,,,,,,,,,,,,,,,,,,
,,,,,,,,,R_2qvEcle6gUufofI,2022-11-20_12h41.11.100,jpn_C01,2022.1.2,Linux x86_64,60.03121623,,,space,0.9846,1,2,8,1,1,ルピン,burglar,,CartoonStims/burglar_r.jpg,audio/lupin.mp3,,,,,,,,,,,,,,,,,,,,,,,,,,,,,,,,,,,,,,,,,,,,,,,,,,,,,,,,,,,,,,,,,,,,,
,,,,,,,,,R_2qvEcle6gUufofI,2022-11-20_12h41.11.100,jpn_C01,2022.1.2,Linux x86_64,60.03121623,,,space,0.8371,1,3,9,3,1,ムク,cowboy,,CartoonStims/cowboy_r.jpg,audio/muku.mp3,,,,,,,,,,,,,,,,,,,,,,,,,,,,,,,,,,,,,,,,,,,,,,,,,,,,,,,,,,,,,,,,,,,,,
,,,,,,,,,R_2qvEcle6gUufofI,2022-11-20_12h41.11.100,jpn_C01,2022.1.2,Linux x86_64,60.03121623,,,space,1.3898,1,4,10,0,1,シド,artist,,CartoonStims/artist_r.jpg,audio/sido.mp3,,,,,,,,,,,,,,,,,,,,,,,,,,,,,,,,,,,,,,,,,,,,,,,,,,,,,,,,,,,,,,,,,,,,,
,,,,,,,,,R_2qvEcle6gUufofI,2022-11-20_12h41.11.100,jpn_C01,2022.1.2,Linux x86_64,60.03121623,,,space,0.9166,1,5,11,5,1,ドキ,boxer,,CartoonStims/boxer_r.jpg,audio/doki.mp3,,,,,,,,,,,,,,,,,,,,,,,,,,,,,,,,,,,,,,,,,,,,,,,,,,,,,,,,,,,,,,,,,,,,,
,,,,,,,,,R_2qvEcle6gUufofI,2022-11-20_12h41.11.100,jpn_C01,2022.1.2,Linux x86_64,60.03121623,,,space,0.5894,2,0,12,0,1,シド,artist,,CartoonStims/artist_r.jpg,audio/sido.mp3,,,,,,,,,,,,,,,,,,,,,,,,,,,,,,,,,,,,,,,,,,,,,,,,,,,,,,,,,,,,,,,,,,,,,
,,,,,,,,,R_2qvEcle6gUufofI,2022-11-20_12h41.11.100,jpn_C01,2022.1.2,Linux x86_64,60.03121623,,,space,0.3668,2,1,13,4,1,ピポ,doctor,,CartoonStims/doctor_r.jpg,audio/pipo.mp3,,,,,,,,,,,,,,,,,,,,,,,,,,,,,,,,,,,,,,,,,,,,,,,,,,,,,,,,,,,,,,,,,,,,,
,,,,,,,,,R_2qvEcle6gUufofI,2022-11-20_12h41.11.100,jpn_C01,2022.1.2,Linux x86_64,60.03121623,,,space,0.7732,2,2,14,3,1,ムク,cowboy,,CartoonStims/cowboy_r.jpg,audio/muku.mp3,,,,,,,,,,,,,,,,,,,,,,,,,,,,,,,,,,,,,,,,,,,,,,,,,,,,,,,,,,,,,,,,,,,,,
,,,,,,,,,R_2qvEcle6gUufofI,2022-11-20_12h41.11.100,jpn_C01,2022.1.2,Linux x86_64,60.03121623,,,space,0.4391,2,3,15,1,1,ルピン,burglar,,CartoonStims/burglar_r.jpg,audio/lupin.mp3,,,,,,,,,,,,,,,,,,,,,,,,,,,,,,,,,,,,,,,,,,,,,,,,,,,,,,,,,,,,,,,,,,,,,
,,,,,,,,,R_2qvEcle6gUufofI,2022-11-20_12h41.11.100,jpn_C01,2022.1.2,Linux x86_64,60.03121623,,,space,0.9766,2,4,16,5,1,ドキ,boxer,,CartoonStims/boxer_r.jpg,audio/doki.mp3,,,,,,,,,,,,,,,,,,,,,,,,,,,,,,,,,,,,,,,,,,,,,,,,,,,,,,,,,,,,,,,,,,,,,
,,,,,,,,,R_2qvEcle6gUufofI,2022-11-20_12h41.11.100,jpn_C01,2022.1.2,Linux x86_64,60.03121623,,,space,0.4199,2,5,17,2,1,ホレト,chef,,CartoonStims/chef_r.jpg,audio/horeto.mp3,,,,,,,,,,,,,,,,,,,,,,,,,,,,,,,,,,,,,,,,,,,,,,,,,,,,,,,,,,,,,,,,,,,,,
,,,,,,,,,R_2qvEcle6gUufofI,2022-11-20_12h41.11.100,jpn_C01,2022.1.2,Linux x86_64,60.03121623,,,,,,,,,,,,,,,space,1.1533,right,1,1.5274,0,0,0,0,1,,,,,,,,,,,,,,,,,,,,,,,,,,,,,,,,,,,,,,,,,,,,,,,,,,,,,,,,,,,
,,,,,,,,,R_2qvEcle6gUufofI,2022-11-20_12h41.11.100,jpn_C01,2022.1.2,Linux x86_64,60.03121623,,,,,,,,,,,,,,,,,,,,,,,,,0,0,0,10,1,CartoonStims/artist_r.jpg,ピポ,CartoonStims/doctor_r.jpg,right,CartoonStims/doctor_r.jpg,audio/pipo.mp3,残念！ こちらが正しい画像です。,,,,,,,,,,,,,,,,,,,,,,,,,,,,,,,,,,,,,,,,,,,,,,,
,,,,,,,,,R_2qvEcle6gUufofI,2022-11-20_12h41.11.100,jpn_C01,2022.1.2,Linux x86_64,60.03121623,,,,,,,,,,,,,,,,,left,1,0.3892,,,,,,,,,,,,,,,,,,0,0,0,0,1,,,,,,,,,,,,,,,,,,,,,,,,,,,,,,,,,,,,,,,,,,
,,,,,,,,,R_2qvEcle6gUufofI,2022-11-20_12h41.11.100,jpn_C01,2022.1.2,Linux x86_64,60.03121623,,,,,,,,,,,,,,,,,,,,,,,,,0,1,1,5,1,CartoonStims/boxer_r.jpg,ドキ,CartoonStims/artist_r.jpg,left,CartoonStims/boxer_r.jpg,audio/doki.mp3,残念！ こちらが正しい画像です。,,,,,,,,,,,,,,,,,,,,,,,,,,,,,,,,,,,,,,,,,,,,,,,
,,,,,,,,,R_2qvEcle6gUufofI,2022-11-20_12h41.11.100,jpn_C01,2022.1.2,Linux x86_64,60.03121623,,,,,,,,,,,,,,,,,right,1,0.9038,0,0,0,0,1,,,,,,,,,,,,,,,,,,,,,,,,,,,,,,,,,,,,,,,,,,,,,,,,,,,,,,,,,,,
,,,,,,,,,R_2qvEcle6gUufofI,2022-11-20_12h41.11.100,jpn_C01,2022.1.2,Linux x86_64,60.03121623,,,,,,,,,,,,,,,,,,,,,,,,,0,2,2,6,1,CartoonStims/chef_r.jpg,シド,CartoonStims/artist_r.jpg,right,CartoonStims/artist_r.jpg,audio/sido.mp3,残念！ こちらが正しい画像です。,,,,,,,,,,,,,,,,,,,,,,,,,,,,,,,,,,,,,,,,,,,,,,,
,,,,,,,,,R_2qvEcle6gUufofI,2022-11-20_12h41.11.100,jpn_C01,2022.1.2,Linux x86_64,60.03121623,,,,,,,,,,,,,,,,,left,1,0.3339,,,,,,,,,,,,,,,,,,0,0,0,0,1,,,,,,,,,,,,,,,,,,,,,,,,,,,,,,,,,,,,,,,,,,
,,,,,,,,,R_2qvEcle6gUufofI,2022-11-20_12h41.11.100,jpn_C01,2022.1.2,Linux x86_64,60.03121623,,,,,,,,,,,,,,,,,,,,,,,,,0,3,3,1,1,CartoonStims/burglar_r.jpg,ルピン,CartoonStims/chef_r.jpg,left,CartoonStims/burglar_r.jpg,audio/lupin.mp3,残念！ こちらが正しい画像です。,,,,,,,,,,,,,,,,,,,,,,,,,,,,,,,,,,,,,,,,,,,,,,,
,,,,,,,,,R_2qvEcle6gUufofI,2022-11-20_12h41.11.100,jpn_C01,2022.1.2,Linux x86_64,60.03121623,,,,,,,,,,,,,,,,,left,1,0.9018,,,,,,,,,,,,,,,,,,0,0,0,0,1,,,,,,,,,,,,,,,,,,,,,,,,,,,,,,,,,,,,,,,,,,
,,,,,,,,,R_2qvEcle6gUufofI,2022-11-20_12h41.11.100,jpn_C01,2022.1.2,Linux x86_64,60.03121623,,,,,,,,,,,,,,,,,,,,,,,,,0,4,4,3,1,CartoonStims/cowboy_r.jpg,ムク,CartoonStims/doctor_r.jpg,left,CartoonStims/cowboy_r.jpg,audio/muku.mp3,残念！ こちらが正しい画像です。,,,,,,,,,,,,,,,,,,,,,,,,,,,,,,,,,,,,,,,,,,,,,,,
,,,,,,,,,R_2qvEcle6gUufofI,2022-11-20_12h41.11.100,jpn_C01,2022.1.2,Linux x86_64,60.03121623,,,,,,,,,,,,,,,,,left,1,0.89,,,,,,,,,,,,,,,,,,0,0,0,0,1,,,,,,,,,,,,,,,,,,,,,,,,,,,,,,,,,,,,,,,,,,
,,,,,,,,,R_2qvEcle6gUufofI,2022-11-20_12h41.11.100,jpn_C01,2022.1.2,Linux x86_64,60.03121623,,,,,,,,,,,,,,,,,,,,,,,,,0,5,5,0,1,CartoonStims/artist_r.jpg,シド,CartoonStims/burglar_r.jpg,left,CartoonStims/artist_r.jpg,audio/sido.mp3,残念！ こちらが正しい画像です。,,,,,,,,,,,,,,,,,,,,,,,,,,,,,,,,,,,,,,,,,,,,,,,
,,,,,,,,,R_2qvEcle6gUufofI,2022-11-20_12h41.11.100,jpn_C01,2022.1.2,Linux x86_64,60.03121623,,,,,,,,,,,,,,,,,right,1,0.7037,0,0,0,0,1,,,,,,,,,,,,,,,,,,,,,,,,,,,,,,,,,,,,,,,,,,,,,,,,,,,,,,,,,,,
,,,,,,,,,R_2qvEcle6gUufofI,2022-11-20_12h41.11.100,jpn_C01,2022.1.2,Linux x86_64,60.03121623,,,,,,,,,,,,,,,,,,,,,,,,,0,6,6,7,1,CartoonStims/cowboy_r.jpg,ルピン,CartoonStims/burglar_r.jpg,right,CartoonStims/burglar_r.jpg,audio/lupin.mp3,残念！ こちらが正しい画像です。,,,,,,,,,,,,,,,,,,,,,,,,,,,,,,,,,,,,,,,,,,,,,,,
,,,,,,,,,R_2qvEcle6gUufofI,2022-11-20_12h41.11.100,jpn_C01,2022.1.2,Linux x86_64,60.03121623,,,,,,,,,,,,,,,,,right,1,2.0169,0,0,0,0,1,,,,,,,,,,,,,,,,,,,,,,,,,,,,,,,,,,,,,,,,,,,,,,,,,,,,,,,,,,,
,,,,,,,,,R_2qvEcle6gUufofI,2022-11-20_12h41.11.100,jpn_C01,2022.1.2,Linux x86_64,60.03121623,,,,,,,,,,,,,,,,,,,,,,,,,0,7,7,9,1,CartoonStims/boxer_r.jpg,ムク,CartoonStims/cowboy_r.jpg,right,CartoonStims/cowboy_r.jpg,audio/muku.mp3,残念！ こちらが正しい画像です。,,,,,,,,,,,,,,,,,,,,,,,,,,,,,,,,,,,,,,,,,,,,,,,
,,,,,,,,,R_2qvEcle6gUufofI,2022-11-20_12h41.11.100,jpn_C01,2022.1.2,Linux x86_64,60.03121623,,,,,,,,,,,,,,,,,right,1,1.4036,0,0,0,0,1,,,,,,,,,,,,,,,,,,,,,,,,,,,,,,,,,,,,,,,,,,,,,,,,,,,,,,,,,,,
,,,,,,,,,R_2qvEcle6gUufofI,2022-11-20_12h41.11.100,jpn_C01,2022.1.2,Linux x86_64,60.03121623,,,,,,,,,,,,,,,,,,,,,,,,,0,8,8,11,1,CartoonStims/burglar_r.jpg,ドキ,CartoonStims/boxer_r.jpg,right,CartoonStims/boxer_r.jpg,audio/doki.mp3,残念！ こちらが正しい画像です。,,,,,,,,,,,,,,,,,,,,,,,,,,,,,,,,,,,,,,,,,,,,,,,
,,,,,,,,,R_2qvEcle6gUufofI,2022-11-20_12h41.11.100,jpn_C01,2022.1.2,Linux x86_64,60.03121623,,,,,,,,,,,,,,,,,left,1,0.4061,,,,,,,,,,,,,,,,,,0,0,0,0,1,,,,,,,,,,,,,,,,,,,,,,,,,,,,,,,,,,,,,,,,,,
,,,,,,,,,R_2qvEcle6gUufofI,2022-11-20_12h41.11.100,jpn_C01,2022.1.2,Linux x86_64,60.03121623,,,,,,,,,,,,,,,,,,,,,,,,,0,9,9,4,1,CartoonStims/doctor_r.jpg,ピポ,CartoonStims/boxer_r.jpg,left,CartoonStims/doctor_r.jpg,audio/pipo.mp3,残念！ こちらが正しい画像です。,,,,,,,,,,,,,,,,,,,,,,,,,,,,,,,,,,,,,,,,,,,,,,,
,,,,,,,,,R_2qvEcle6gUufofI,2022-11-20_12h41.11.100,jpn_C01,2022.1.2,Linux x86_64,60.03121623,,,,,,,,,,,,,,,,,right,1,0.5757,0,0,0,0,1,,,,,,,,,,,,,,,,,,,,,,,,,,,,,,,,,,,,,,,,,,,,,,,,,,,,,,,,,,,
,,,,,,,,,R_2qvEcle6gUufofI,2022-11-20_12h41.11.100,jpn_C01,2022.1.2,Linux x86_64,60.03121623,,,,,,,,,,,,,,,,,,,,,,,,,0,10,10,8,1,CartoonStims/doctor_r.jpg,ホレト,CartoonStims/chef_r.jpg,right,CartoonStims/chef_r.jpg,audio/horeto.mp3,残念！ こちらが正しい画像です。,,,,,,,,,,,,,,,,,,,,,,,,,,,,,,,,,,,,,,,,,,,,,,,
,,,,,,,,,R_2qvEcle6gUufofI,2022-11-20_12h41.11.100,jpn_C01,2022.1.2,Linux x86_64,60.03121623,,,,,,,,,,,,,,,,,left,1,1.0062,,,,,,,,,,,,,,,,,,0,0,0,0,1,,,,,,,,,,,,,,,,,,,,,,,,,,,,,,,,,,,,,,,,,,
,,,,,,,,,R_2qvEcle6gUufofI,2022-11-20_12h41.11.100,jpn_C01,2022.1.2,Linux x86_64,60.03121623,,,,,,,,,,,,,,,,,,,,,,,,,0,11,11,2,1,CartoonStims/chef_r.jpg,ホレト,CartoonStims/cowboy_r.jpg,left,CartoonStims/chef_r.jpg,audio/horeto.mp3,残念！ こちらが正しい画像です。,,,,,,,,,,,,,,,,,,,,,,,,,,,,,,,,,,,,,,,,,,,,,,,
,,,,,,,,,R_2qvEcle6gUufofI,2022-11-20_12h41.11.100,jpn_C01,2022.1.2,Linux x86_64,60.03121623,,,,,,,,,,,,,,,,,,,,,,,,,,,,,,,,,,,,,,,,,,space,4.6823,ホレト,right,7.207,0,0,0,0,1,,,,,,,,,,,,,,,,,,,,,,,,,,,,,,,,
,,,,,,,,,R_2qvEcle6gUufofI,2022-11-20_12h41.11.100,jpn_C01,2022.1.2,Linux x86_64,60.03121623,,,,,,,,,,,,,CartoonStims/chef_r.jpg,audio/horeto.mp3,,,,,,,,,,,,,,,,,,,,,,,,,,,,,,,,,,,,,,0,0,0,2,1,ホレト,,,,,,,,,,,,,,,,,,,,,,,,,,
,,,,,,,,,R_2qvEcle6gUufofI,2022-11-20_12h41.11.100,jpn_C01,2022.1.2,Linux x86_64,60.03121623,,,,,,,,,,,,,,,,,,,,,,,,,,,,,,,,,,,,,,,,,,,,ドキ,right,4.298,0,0,0,0,1,,,,,,,,,,,,,,,,,,,,,,,,,,,,,,,,
,,,,,,,,,R_2qvEcle6gUufofI,2022-11-20_12h41.11.100,jpn_C01,2022.1.2,Linux x86_64,60.03121623,,,,,,,,,,,,,CartoonStims/boxer_r.jpg,audio/doki.mp3,,,,,,,,,,,,,,,,,,,,,,,,,,,,,,,,,,,,,,0,1,1,5,1,ドキ,,,,,,,,,,,,,,,,,,,,,,,,,,
,,,,,,,,,R_2qvEcle6gUufofI,2022-11-20_12h41.11.100,jpn_C01,2022.1.2,Linux x86_64,60.03121623,,,,,,,,,,,,,,,,,,,,,,,,,,,,,,,,,,,,,,,,,,,,ムク,right,4.2673,0,0,0,0,1,,,,,,,,,,,,,,,,,,,,,,,,,,,,,,,,
,,,,,,,,,R_2qvEcle6gUufofI,2022-11-20_12h41.11.100,jpn_C01,2022.1.2,Linux x86_64,60.03121623,,,,,,,,,,,,,CartoonStims/cowboy_r.jpg,audio/muku.mp3,,,,,,,,,,,,,,,,,,,,,,,,,,,,,,,,,,,,,,0,2,2,3,1,ムク,,,,,,,,,,,,,,,,,,,,,,,,,,
,,,,,,,,,R_2qvEcle6gUufofI,2022-11-20_12h41.11.100,jpn_C01,2022.1.2,Linux x86_64,60.03121623,,,,,,,,,,,,,,,,,,,,,,,,,,,,,,,,,,,,,,,,,,,,ルピン,right,4.202,0,0,0,0,1,,,,,,,,,,,,,,,,,,,,,,,,,,,,,,,,
,,,,,,,,,R_2qvEcle6gUufofI,2022-11-20_12h41.11.100,jpn_C01,2022.1.2,Linux x86_64,60.03121623,,,,,,,,,,,,,CartoonStims/burglar_r.jpg,audio/lupin.mp3,,,,,,,,,,,,,,,,,,,,,,,,,,,,,,,,,,,,,,0,3,3,1,1,ルピン,,,,,,,,,,,,,,,,,,,,,,,,,,
,,,,,,,,,R_2qvEcle6gUufofI,2022-11-20_12h41.11.100,jpn_C01,2022.1.2,Linux x86_64,60.03121623,,,,,,,,,,,,,,,,,,,,,,,,,,,,,,,,,,,,,,,,,,,,ピポ,right,3.8507,0,0,0,0,1,,,,,,,,,,,,,,,,,,,,,,,,,,,,,,,,
,,,,,,,,,R_2qvEcle6gUufofI,2022-11-20_12h41.11.100,jpn_C01,2022.1.2,Linux x86_64,60.03121623,,,,,,,,,,,,,CartoonStims/doctor_r.jpg,audio/pipo.mp3,,,,,,,,,,,,,,,,,,,,,,,,,,,,,,,,,,,,,,0,4,4,4,1,ピポ,,,,,,,,,,,,,,,,,,,,,,,,,,
,,,,,,,,,R_2qvEcle6gUufofI,2022-11-20_12h41.11.100,jpn_C01,2022.1.2,Linux x86_64,60.03121623,,,,,,,,,,,,,,,,,,,,,,,,,,,,,,,,,,,,,,,,,,,,シド,right,2.1849,0,0,0,0,1,,,,,,,,,,,,,,,,,,,,,,,,,,,,,,,,
,,,,,,,,,R_2qvEcle6gUufofI,2022-11-20_12h41.11.100,jpn_C01,2022.1.2,Linux x86_64,60.03121623,,,,,,,,,,,,,CartoonStims/artist_r.jpg,audio/sido.mp3,,,,,,,,,,,,,,,,,,,,,,,,,,,,,,,,,,,,,,0,5,5,0,1,シド,,,,,,,,,,,,,,,,,,,,,,,,,,
,,,,,,,,,R_2qvEcle6gUufofI,2022-11-20_12h41.11.100,jpn_C01,2022.1.2,Linux x86_64,60.03121623,,,,,,,,,,,,,,,,,,,,,,,,,,,,,,,,,,,,,,,,,,,,ルピン,right,2.7694,0,0,0,0,1,,,,,,,,,,,,,,,,,,,,,,,,,,,,,,,,
,,,,,,,,,R_2qvEcle6gUufofI,2022-11-20_12h41.11.100,jpn_C01,2022.1.2,Linux x86_64,60.03121623,,,,,,,,,,,,,CartoonStims/burglar_r.jpg,audio/lupin.mp3,,,,,,,,,,,,,,,,,,,,,,,,,,,,,,,,,,,,,,1,0,6,1,1,ルピン,,,,,,,,,,,,,,,,,,,,,,,,,,
,,,,,,,,,R_2qvEcle6gUufofI,2022-11-20_12h41.11.100,jpn_C01,2022.1.2,Linux x86_64,60.03121623,,,,,,,,,,,,,,,,,,,,,,,,,,,,,,,,,,,,,,,,,,,,ムク,right,2.7858,0,0,0,0,1,,,,,,,,,,,,,,,,,,,,,,,,,,,,,,,,
,,,,,,,,,R_2qvEcle6gUufofI,2022-11-20_12h41.11.100,jpn_C01,2022.1.2,Linux x86_64,60.03121623,,,,,,,,,,,,,CartoonStims/cowboy_r.jpg,audio/muku.mp3,,,,,,,,,,,,,,,,,,,,,,,,,,,,,,,,,,,,,,1,1,7,3,1,ムク,,,,,,,,,,,,,,,,,,,,,,,,,,
,,,,,,,,,R_2qvEcle6gUufofI,2022-11-20_12h41.11.100,jpn_C01,2022.1.2,Linux x86_64,60.03121623,,,,,,,,,,,,,,,,,,,,,,,,,,,,,,,,,,,,,,,,,,,,ドキ,right,4.3075,0,0,0,0,1,,,,,,,,,,,,,,,,,,,,,,,,,,,,,,,,
,,,,,,,,,R_2qvEcle6gUufofI,2022-11-20_12h41.11.100,jpn_C01,2022.1.2,Linux x86_64,60.03121623,,,,,,,,,,,,,CartoonStims/boxer_r.jpg,audio/doki.mp3,,,,,,,,,,,,,,,,,,,,,,,,,,,,,,,,,,,,,,1,2,8,5,1,ドキ,,,,,,,,,,,,,,,,,,,,,,,,,,
,,,,,,,,,R_2qvEcle6gUufofI,2022-11-20_12h41.11.100,jpn_C01,2022.1.2,Linux x86_64,60.03121623,,,,,,,,,,,,,,,,,,,,,,,,,,,,,,,,,,,,,,,,,,,,ホレト,right,2.0539,0,0,0,0,1,,,,,,,,,,,,,,,,,,,,,,,,,,,,,,,,
,,,,,,,,,R_2qvEcle6gUufofI,2022-11-20_12h41.11.100,jpn_C01,2022.1.2,Linux x86_64,60.03121623,,,,,,,,,,,,,CartoonStims/chef_r.jpg,audio/horeto.mp3,,,,,,,,,,,,,,,,,,,,,,,,,,,,,,,,,,,,,,1,3,9,2,1,ホレト,,,,,,,,,,,,,,,,,,,,,,,,,,
,,,,,,,,,R_2qvEcle6gUufofI,2022-11-20_12h41.11.100,jpn_C01,2022.1.2,Linux x86_64,60.03121623,,,,,,,,,,,,,,,,,,,,,,,,,,,,,,,,,,,,,,,,,,,,シド,right,2.1737,0,0,0,0,1,,,,,,,,,,,,,,,,,,,,,,,,,,,,,,,,
,,,,,,,,,R_2qvEcle6gUufofI,2022-11-20_12h41.11.100,jpn_C01,2022.1.2,Linux x86_64,60.03121623,,,,,,,,,,,,,CartoonStims/artist_r.jpg,audio/sido.mp3,,,,,,,,,,,,,,,,,,,,,,,,,,,,,,,,,,,,,,1,4,10,0,1,シド,,,,,,,,,,,,,,,,,,,,,,,,,,
,,,,,,,,,R_2qvEcle6gUufofI,2022-11-20_12h41.11.100,jpn_C01,2022.1.2,Linux x86_64,60.03121623,,,,,,,,,,,,,,,,,,,,,,,,,,,,,,,,,,,,,,,,,,,,ピポ,right,2.7163,0,0,0,0,1,,,,,,,,,,,,,,,,,,,,,,,,,,,,,,,,
,,,,,,,,,R_2qvEcle6gUufofI,2022-11-20_12h41.11.100,jpn_C01,2022.1.2,Linux x86_64,60.03121623,,,,,,,,,,,,,CartoonStims/doctor_r.jpg,audio/pipo.mp3,,,,,,,,,,,,,,,,,,,,,,,,,,,,,,,,,,,,,,1,5,11,4,1,ピポ,,,,,,,,,,,,,,,,,,,,,,,,,,
,,,,,,,,,R_2qvEcle6gUufofI,2022-11-20_12h41.11.100,jpn_C01,2022.1.2,Linux x86_64,60.03121623,,,,,,,,,,,,,,,,,,,,,,,,,,,,,,,,,,,,,,,,,,,,,,,,,,,,,,,,,,,space,3.1376,0,0,0,0,1,NounExposure.xlsx,"最初のトライアルでは、 画像が表示され、 その画像の下に単語が出てきます。 またこの単語の音も聞くことができます。 この音を大きな声で復唱してください。 そしてこの画像がどのような単語を示しているのか, 考えてみてください。 その後、 続きのボタンを押すと次の単語の学習が始まります。

スペースキーを押して、学習を始めましょう。",3,NounFCT.xlsx,ここから語彙のクイズが始まります。スクリーンに表示される単語に合う画像をキーボードの右と左の矢印キーを使って選択してください。,NounTest.xlsx,2,次に、これまで学習してきたことをアウトプットしていただきます。 表示される画像を描写していると思う単語を、テキストボックスにタイプしてください。,1,"ここまでが最初のトライアルです。ここで休憩をとっても構いません。

休憩が済みましたら、スペースキーを押して続きを始めましょう。",,,,,,,,
,,,,,,,,,R_2qvEcle6gUufofI,2022-11-20_12h41.11.100,jpn_C01,2022.1.2,Linux x86_64,60.03121623,space,5.0173,space,12.6958,0,0,0,35,1,パツ　ドキ　ムク,,,CartoonStims/boxer_shoot_cowboy_r.jpg,audio/patsudokimuku.mp3,,,,,,,,,,,,,,,,,,,,,,,,,,,,,,,,,,,,,,,,,,,,,,,,,,,,,,,,,,,,,,,,,,,,,
,,,,,,,,,R_2qvEcle6gUufofI,2022-11-20_12h41.11.100,jpn_C01,2022.1.2,Linux x86_64,60.03121623,,,space,6.4987,0,1,1,34,1,パツ　ドキ　ホレト,,,CartoonStims/boxer_shoot_chef_r.jpg,audio/patsudokihoreto.mp3,,,,,,,,,,,,,,,,,,,,,,,,,,,,,,,,,,,,,,,,,,,,,,,,,,,,,,,,,,,,,,,,,,,,,
,,,,,,,,,R_2qvEcle6gUufofI,2022-11-20_12h41.11.100,jpn_C01,2022.1.2,Linux x86_64,60.03121623,,,space,5.9144,0,2,2,47,1,プミ　ドキ　ピポ,,,CartoonStims/boxer_punch_doctor_r.jpg,audio/pumidokipipo.mp3,,,,,,,,,,,,,,,,,,,,,,,,,,,,,,,,,,,,,,,,,,,,,,,,,,,,,,,,,,,,,,,,,,,,,
,,,,,,,,,R_2qvEcle6gUufofI,2022-11-20_12h41.11.100,jpn_C01,2022.1.2,Linux x86_64,60.03121623,,,space,9.0795,0,3,3,8,1,セル　ピポ　ドキ,,,CartoonStims/doctor_kick_boxer_r.jpg,audio/serupipodoki.mp3,,,,,,,,,,,,,,,,,,,,,,,,,,,,,,,,,,,,,,,,,,,,,,,,,,,,,,,,,,,,,,,,,,,,,
,,,,,,,,,R_2qvEcle6gUufofI,2022-11-20_12h41.11.100,jpn_C01,2022.1.2,Linux x86_64,60.03121623,,,space,5.3383,0,4,4,11,1,セル　ドキ　ルピン,,,CartoonStims/boxer_kick_burglar_r.jpg,audio/serudokilupin.mp3,,,,,,,,,,,,,,,,,,,,,,,,,,,,,,,,,,,,,,,,,,,,,,,,,,,,,,,,,,,,,,,,,,,,,
,,,,,,,,,R_2qvEcle6gUufofI,2022-11-20_12h41.11.100,jpn_C01,2022.1.2,Linux x86_64,60.03121623,,,space,4.4649,0,5,5,29,1,パツ　ホレト　シド,,,CartoonStims/chef_shoot_artist_r.jpg,audio/patsuhoretosido.mp3,,,,,,,,,,,,,,,,,,,,,,,,,,,,,,,,,,,,,,,,,,,,,,,,,,,,,,,,,,,,,,,,,,,,,
,,,,,,,,,R_2qvEcle6gUufofI,2022-11-20_12h41.11.100,jpn_C01,2022.1.2,Linux x86_64,60.03121623,,,space,4.1167,0,6,6,15,1,トマ　ルピン　ピポ,,,CartoonStims/burglar_point_doctor_r.jpg,audio/tomalupinpipo.mp3,,,,,,,,,,,,,,,,,,,,,,,,,,,,,,,,,,,,,,,,,,,,,,,,,,,,,,,,,,,,,,,,,,,,,
,,,,,,,,,R_2qvEcle6gUufofI,2022-11-20_12h41.11.100,jpn_C01,2022.1.2,Linux x86_64,60.03121623,,,space,3.2244,0,7,7,42,1,プミ　ムク　ルピン,,,CartoonStims/cowboy_punch_burglar_r.jpg,audio/pumimukulupin.mp3,,,,,,,,,,,,,,,,,,,,,,,,,,,,,,,,,,,,,,,,,,,,,,,,,,,,,,,,,,,,,,,,,,,,,
,,,,,,,,,R_2qvEcle6gUufofI,2022-11-20_12h41.11.100,jpn_C01,2022.1.2,Linux x86_64,60.03121623,,,space,1.9668,0,8,8,37,1,プミ　シド　ドキ,,,CartoonStims/artist_punch_boxer_r.jpg,audio/pumisidodoki.mp3,,,,,,,,,,,,,,,,,,,,,,,,,,,,,,,,,,,,,,,,,,,,,,,,,,,,,,,,,,,,,,,,,,,,,
,,,,,,,,,R_2qvEcle6gUufofI,2022-11-20_12h41.11.100,jpn_C01,2022.1.2,Linux x86_64,60.03121623,,,space,2.5249,0,9,9,16,1,トマ　ホレト　ピポ,,,CartoonStims/chef_point_doctor_r.jpg,audio/tomahoretopipo.mp3,,,,,,,,,,,,,,,,,,,,,,,,,,,,,,,,,,,,,,,,,,,,,,,,,,,,,,,,,,,,,,,,,,,,,
,,,,,,,,,R_2qvEcle6gUufofI,2022-11-20_12h41.11.100,jpn_C01,2022.1.2,Linux x86_64,60.03121623,,,space,2.4343,0,10,10,46,1,プミ　ドキ　ムク,,,CartoonStims/boxer_punch_cowboy_r.jpg,audio/pumidokimuku.mp3,,,,,,,,,,,,,,,,,,,,,,,,,,,,,,,,,,,,,,,,,,,,,,,,,,,,,,,,,,,,,,,,,,,,,
,,,,,,,,,R_2qvEcle6gUufofI,2022-11-20_12h41.11.100,jpn_C01,2022.1.2,Linux x86_64,60.03121623,,,space,2.3635,0,11,11,1,1,セル 　シド 　ホレト,,,CartoonStims/artist_kick_chef_r.jpg,audio/serusidohoreto.mp3,,,,,,,,,,,,,,,,,,,,,,,,,,,,,,,,,,,,,,,,,,,,,,,,,,,,,,,,,,,,,,,,,,,,,
,,,,,,,,,R_2qvEcle6gUufofI,2022-11-20_12h41.11.100,jpn_C01,2022.1.2,Linux x86_64,60.03121623,,,space,2.7272,0,12,12,26,1,パツ　ルピン　ピポ,,,CartoonStims/burglar_shoot_doctor_r.jpg,audio/patsulupinpipo.mp3,,,,,,,,,,,,,,,,,,,,,,,,,,,,,,,,,,,,,,,,,,,,,,,,,,,,,,,,,,,,,,,,,,,,,
,,,,,,,,,R_2qvEcle6gUufofI,2022-11-20_12h41.11.100,jpn_C01,2022.1.2,Linux x86_64,60.03121623,,,space,1.7839,0,13,13,30,1,パツ　ムク　シド,,,CartoonStims/cowboy_shoot_artist_r.jpg,audio/patsumukusido.mp3,,,,,,,,,,,,,,,,,,,,,,,,,,,,,,,,,,,,,,,,,,,,,,,,,,,,,,,,,,,,,,,,,,,,,
,,,,,,,,,R_2qvEcle6gUufofI,2022-11-20_12h41.11.100,jpn_C01,2022.1.2,Linux x86_64,60.03121623,,,space,1.948,0,14,14,4,1,セル　ホレト　ムク,,,CartoonStims/chef_kick_cowboy_r.jpg,audio/seruhoretomuku.mp3,,,,,,,,,,,,,,,,,,,,,,,,,,,,,,,,,,,,,,,,,,,,,,,,,,,,,,,,,,,,,,,,,,,,,
,,,,,,,,,R_2qvEcle6gUufofI,2022-11-20_12h41.11.100,jpn_C01,2022.1.2,Linux x86_64,60.03121623,,,space,2.0069,0,15,15,9,1,セル　ピポ　シド,,,CartoonStims/doctor_kick_artist_r.jpg,audio/serupiposido.mp3,,,,,,,,,,,,,,,,,,,,,,,,,,,,,,,,,,,,,,,,,,,,,,,,,,,,,,,,,,,,,,,,,,,,,
,,,,,,,,,R_2qvEcle6gUufofI,2022-11-20_12h41.11.100,jpn_C01,2022.1.2,Linux x86_64,60.03121623,,,space,1.0586,0,16,16,10,1,セル　ドキ　シド,,,CartoonStims/boxer_kick_artist_r.jpg,audio/serudokisido.mp3,,,,,,,,,,,,,,,,,,,,,,,,,,,,,,,,,,,,,,,,,,,,,,,,,,,,,,,,,,,,,,,,,,,,,
,,,,,,,,,R_2qvEcle6gUufofI,2022-11-20_12h41.11.100,jpn_C01,2022.1.2,Linux x86_64,60.03121623,,,space,2.8332,0,17,17,28,1,パツ　ホレト　ドキ,,,CartoonStims/chef_shoot_boxer_r.jpg,audio/patsuhoretodoki.mp3,,,,,,,,,,,,,,,,,,,,,,,,,,,,,,,,,,,,,,,,,,,,,,,,,,,,,,,,,,,,,,,,,,,,,
,,,,,,,,,R_2qvEcle6gUufofI,2022-11-20_12h41.11.100,jpn_C01,2022.1.2,Linux x86_64,60.03121623,,,space,2.0827,0,18,18,39,1,プミ　ルピン　シド,,,CartoonStims/burglar_punch_artist_r.jpg,audio/pumilupinsido.mp3,,,,,,,,,,,,,,,,,,,,,,,,,,,,,,,,,,,,,,,,,,,,,,,,,,,,,,,,,,,,,,,,,,,,,
,,,,,,,,,R_2qvEcle6gUufofI,2022-11-20_12h41.11.100,jpn_C01,2022.1.2,Linux x86_64,60.03121623,,,space,1.9529,0,19,19,22,1,トマ　ドキ　ルピン,,,CartoonStims/boxer_point_burglar_r.jpg,audio/tomadokilupin.mp3,,,,,,,,,,,,,,,,,,,,,,,,,,,,,,,,,,,,,,,,,,,,,,,,,,,,,,,,,,,,,,,,,,,,,
,,,,,,,,,R_2qvEcle6gUufofI,2022-11-20_12h41.11.100,jpn_C01,2022.1.2,Linux x86_64,60.03121623,,,space,1.6356,0,20,20,27,1,パツ　ルピン　ドキ,,,CartoonStims/burglar_shoot_boxer_r.jpg,audio/patsulupindoki.mp3,,,,,,,,,,,,,,,,,,,,,,,,,,,,,,,,,,,,,,,,,,,,,,,,,,,,,,,,,,,,,,,,,,,,,
,,,,,,,,,R_2qvEcle6gUufofI,2022-11-20_12h41.11.100,jpn_C01,2022.1.2,Linux x86_64,60.03121623,,,space,1.4999,0,21,21,18,1,トマ　ムク　ドキ,,,CartoonStims/cowboy_point_boxer_r.jpg,audio/tomamukudoki.mp3,,,,,,,,,,,,,,,,,,,,,,,,,,,,,,,,,,,,,,,,,,,,,,,,,,,,,,,,,,,,,,,,,,,,,
,,,,,,,,,R_2qvEcle6gUufofI,2022-11-20_12h41.11.100,jpn_C01,2022.1.2,Linux x86_64,60.03121623,,,space,2.068,0,22,22,33,1,パツ　ピポ　ホレト,,,CartoonStims/doctor_shoot_chef_r.jpg,audio/patsupipohoreto.mp3,,,,,,,,,,,,,,,,,,,,,,,,,,,,,,,,,,,,,,,,,,,,,,,,,,,,,,,,,,,,,,,,,,,,,
,,,,,,,,,R_2qvEcle6gUufofI,2022-11-20_12h41.11.100,jpn_C01,2022.1.2,Linux x86_64,60.03121623,,,space,1.8037,0,23,23,40,1,プミ　ホレト　シド,,,CartoonStims/chef_punch_artist_r.jpg,audio/pumihoretosido.mp3,,,,,,,,,,,,,,,,,,,,,,,,,,,,,,,,,,,,,,,,,,,,,,,,,,,,,,,,,,,,,,,,,,,,,
,,,,,,,,,R_2qvEcle6gUufofI,2022-11-20_12h41.11.100,jpn_C01,2022.1.2,Linux x86_64,60.03121623,,,space,2.1355,0,24,24,41,1,プミ　ホレト　ルピン,,,CartoonStims/chef_punch_burglar_r.jpg,audio/pumihoretolupin.mp3,,,,,,,,,,,,,,,,,,,,,,,,,,,,,,,,,,,,,,,,,,,,,,,,,,,,,,,,,,,,,,,,,,,,,
,,,,,,,,,R_2qvEcle6gUufofI,2022-11-20_12h41.11.100,jpn_C01,2022.1.2,Linux x86_64,60.03121623,,,space,2.1241,0,25,25,25,1,パツ　シド　ピポ,,,CartoonStims/artist_shoot_doctor_r.jpg,audio/patsusidopipo.mp3,,,,,,,,,,,,,,,,,,,,,,,,,,,,,,,,,,,,,,,,,,,,,,,,,,,,,,,,,,,,,,,,,,,,,
,,,,,,,,,R_2qvEcle6gUufofI,2022-11-20_12h41.11.100,jpn_C01,2022.1.2,Linux x86_64,60.03121623,,,space,1.3356,0,26,26,12,1,トマ　シド　ホレト,,,CartoonStims/artist_point_chef_r.jpg,audio/tomasidohoreto.mp3,,,,,,,,,,,,,,,,,,,,,,,,,,,,,,,,,,,,,,,,,,,,,,,,,,,,,,,,,,,,,,,,,,,,,
,,,,,,,,,R_2qvEcle6gUufofI,2022-11-20_12h41.11.100,jpn_C01,2022.1.2,Linux x86_64,60.03121623,,,space,1.0677,0,27,27,24,1,パツ　シド　ムク,,,CartoonStims/artist_shoot_cowboy_r.jpg,audio/patsusidomuku.mp3,,,,,,,,,,,,,,,,,,,,,,,,,,,,,,,,,,,,,,,,,,,,,,,,,,,,,,,,,,,,,,,,,,,,,
,,,,,,,,,R_2qvEcle6gUufofI,2022-11-20_12h41.11.100,jpn_C01,2022.1.2,Linux x86_64,60.03121623,,,space,1.2928,0,28,28,44,1,プミ　ピポ　ホレト,,,CartoonStims/doctor_punch_chef_r.jpg,audio/pumipipohoreto.mp3,,,,,,,,,,,,,,,,,,,,,,,,,,,,,,,,,,,,,,,,,,,,,,,,,,,,,,,,,,,,,,,,,,,,,
,,,,,,,,,R_2qvEcle6gUufofI,2022-11-20_12h41.11.100,jpn_C01,2022.1.2,Linux x86_64,60.03121623,,,space,0.8473,0,29,29,0,1,セル　シド　ルピン,,,CartoonStims/artist_kick_burglar_r.jpg,audio/serusidolupin.mp3,,,,,,,,,,,,,,,,,,,,,,,,,,,,,,,,,,,,,,,,,,,,,,,,,,,,,,,,,,,,,,,,,,,,,
,,,,,,,,,R_2qvEcle6gUufofI,2022-11-20_12h41.11.100,jpn_C01,2022.1.2,Linux x86_64,60.03121623,,,space,1.7677,0,30,30,23,1,トマ　ドキ　ホレト,,,CartoonStims/boxer_point_chef_r.jpg,audio/tomadokihoreto.mp3,,,,,,,,,,,,,,,,,,,,,,,,,,,,,,,,,,,,,,,,,,,,,,,,,,,,,,,,,,,,,,,,,,,,,
,,,,,,,,,R_2qvEcle6gUufofI,2022-11-20_12h41.11.100,jpn_C01,2022.1.2,Linux x86_64,60.03121623,,,space,1.0555,0,31,31,6,1,セル　ムク　ピポ,,,CartoonStims/cowboy_kick_doctor_r.jpg,audio/serumukupipo.mp3,,,,,,,,,,,,,,,,,,,,,,,,,,,,,,,,,,,,,,,,,,,,,,,,,,,,,,,,,,,,,,,,,,,,,
,,,,,,,,,R_2qvEcle6gUufofI,2022-11-20_12h41.11.100,jpn_C01,2022.1.2,Linux x86_64,60.03121623,,,space,1.4263,0,32,32,14,1,トマ　ルピン　ムク,,,CartoonStims/burglar_point_cowboy_r.jpg,audio/tomalupinmuku.mp3,,,,,,,,,,,,,,,,,,,,,,,,,,,,,,,,,,,,,,,,,,,,,,,,,,,,,,,,,,,,,,,,,,,,,
,,,,,,,,,R_2qvEcle6gUufofI,2022-11-20_12h41.11.100,jpn_C01,2022.1.2,Linux x86_64,60.03121623,,,space,1.4342,0,33,33,31,1,パツ　ムク　ルピン,,,CartoonStims/cowboy_shoot_burglar_r.jpg,audio/patsumukulupin.mp3,,,,,,,,,,,,,,,,,,,,,,,,,,,,,,,,,,,,,,,,,,,,,,,,,,,,,,,,,,,,,,,,,,,,,
,,,,,,,,,R_2qvEcle6gUufofI,2022-11-20_12h41.11.100,jpn_C01,2022.1.2,Linux x86_64,60.03121623,,,space,0.9013,0,34,34,7,1,セル　ムク　ドキ,,,CartoonStims/cowboy_kick_boxer_r.jpg,audio/serumukudoki.mp3,,,,,,,,,,,,,,,,,,,,,,,,,,,,,,,,,,,,,,,,,,,,,,,,,,,,,,,,,,,,,,,,,,,,,
,,,,,,,,,R_2qvEcle6gUufofI,2022-11-20_12h41.11.100,jpn_C01,2022.1.2,Linux x86_64,60.03121623,,,space,2.4674,0,35,35,5,1,セル　ホレト　ピポ,,,CartoonStims/chef_kick_doctor_r.jpg,audio/seruhoretopipo.mp3,,,,,,,,,,,,,,,,,,,,,,,,,,,,,,,,,,,,,,,,,,,,,,,,,,,,,,,,,,,,,,,,,,,,,
,,,,,,,,,R_2qvEcle6gUufofI,2022-11-20_12h41.11.100,jpn_C01,2022.1.2,Linux x86_64,60.03121623,,,space,2.6689,0,36,36,32,1,パツ　ピポ　ルピン,,,CartoonStims/doctor_shoot_burglar_r.jpg,audio/patsupipolupin.mp3,,,,,,,,,,,,,,,,,,,,,,,,,,,,,,,,,,,,,,,,,,,,,,,,,,,,,,,,,,,,,,,,,,,,,
,,,,,,,,,R_2qvEcle6gUufofI,2022-11-20_12h41.11.100,jpn_C01,2022.1.2,Linux x86_64,60.03121623,,,space,1.8662,0,37,37,21,1,トマ　ピポ　ルピン,,,CartoonStims/doctor_point_burglar_r.jpg,audio/tomapipolupin.mp3,,,,,,,,,,,,,,,,,,,,,,,,,,,,,,,,,,,,,,,,,,,,,,,,,,,,,,,,,,,,,,,,,,,,,
,,,,,,,,,R_2qvEcle6gUufofI,2022-11-20_12h41.11.100,jpn_C01,2022.1.2,Linux x86_64,60.03121623,,,space,2.3349,0,38,38,38,1,プミ　ルピン　ドキ,,,CartoonStims/burglar_punch_boxer_r.jpg,audio/pumilupindoki.mp3,,,,,,,,,,,,,,,,,,,,,,,,,,,,,,,,,,,,,,,,,,,,,,,,,,,,,,,,,,,,,,,,,,,,,
,,,,,,,,,R_2qvEcle6gUufofI,2022-11-20_12h41.11.100,jpn_C01,2022.1.2,Linux x86_64,60.03121623,,,space,2.4203,0,39,39,3,1,セル　ルピン　ムク,,,CartoonStims/burglar_kick_cowboy_r.jpg,audio/serulupinmuku.mp3,,,,,,,,,,,,,,,,,,,,,,,,,,,,,,,,,,,,,,,,,,,,,,,,,,,,,,,,,,,,,,,,,,,,,
,,,,,,,,,R_2qvEcle6gUufofI,2022-11-20_12h41.11.100,jpn_C01,2022.1.2,Linux x86_64,60.03121623,,,space,2.7026,0,40,40,17,1,トマ　ホレト　ドキ,,,CartoonStims/chef_point_boxer_r.jpg,audio/tomahoretodoki.mp3,,,,,,,,,,,,,,,,,,,,,,,,,,,,,,,,,,,,,,,,,,,,,,,,,,,,,,,,,,,,,,,,,,,,,
,,,,,,,,,R_2qvEcle6gUufofI,2022-11-20_12h41.11.100,jpn_C01,2022.1.2,Linux x86_64,60.03121623,,,space,1.4496,0,41,41,36,1,プミ　シド　ピポ,,,CartoonStims/artist_punch_doctor_r.jpg,audio/pumisidopipo.mp3,,,,,,,,,,,,,,,,,,,,,,,,,,,,,,,,,,,,,,,,,,,,,,,,,,,,,,,,,,,,,,,,,,,,,
,,,,,,,,,R_2qvEcle6gUufofI,2022-11-20_12h41.11.100,jpn_C01,2022.1.2,Linux x86_64,60.03121623,,,space,1.5053,0,42,42,13,1,トマ　シド　ムク,,,CartoonStims/artist_point_cowboy_r.jpg,audio/tomasidomuku.mp3,,,,,,,,,,,,,,,,,,,,,,,,,,,,,,,,,,,,,,,,,,,,,,,,,,,,,,,,,,,,,,,,,,,,,
,,,,,,,,,R_2qvEcle6gUufofI,2022-11-20_12h41.11.100,jpn_C01,2022.1.2,Linux x86_64,60.03121623,,,space,1.5024,0,43,43,2,1,セル 　ルピン 　ホレト,,,CartoonStims/burglar_kick_chef_r.jpg,audio/serulupinhoreto.mp3,,,,,,,,,,,,,,,,,,,,,,,,,,,,,,,,,,,,,,,,,,,,,,,,,,,,,,,,,,,,,,,,,,,,,
,,,,,,,,,R_2qvEcle6gUufofI,2022-11-20_12h41.11.100,jpn_C01,2022.1.2,Linux x86_64,60.03121623,,,space,1.039,0,44,44,43,1,プミ　ムク　ホレト,,,CartoonStims/cowboy_punch_chef_r.jpg,audio/pumimukuhoreto.mp3,,,,,,,,,,,,,,,,,,,,,,,,,,,,,,,,,,,,,,,,,,,,,,,,,,,,,,,,,,,,,,,,,,,,,
,,,,,,,,,R_2qvEcle6gUufofI,2022-11-20_12h41.11.100,jpn_C01,2022.1.2,Linux x86_64,60.03121623,,,space,1.1232,0,45,45,20,1,トマ　ピポ　シド,,,CartoonStims/doctor_point_artist_r.jpg,audio/tomapiposido.mp3,,,,,,,,,,,,,,,,,,,,,,,,,,,,,,,,,,,,,,,,,,,,,,,,,,,,,,,,,,,,,,,,,,,,,
,,,,,,,,,R_2qvEcle6gUufofI,2022-11-20_12h41.11.100,jpn_C01,2022.1.2,Linux x86_64,60.03121623,,,space,1.1555,0,46,46,19,1,トマ　ムク　シド,,,CartoonStims/cowboy_point_artist_r.jpg,audio/tomamukusido.mp3,,,,,,,,,,,,,,,,,,,,,,,,,,,,,,,,,,,,,,,,,,,,,,,,,,,,,,,,,,,,,,,,,,,,,
,,,,,,,,,R_2qvEcle6gUufofI,2022-11-20_12h41.11.100,jpn_C01,2022.1.2,Linux x86_64,60.03121623,,,space,1.3363,0,47,47,45,1,プミ　ピポ　ムク,,,CartoonStims/doctor_punch_cowboy_r.jpg,audio/pumipipomuku.mp3,,,,,,,,,,,,,,,,,,,,,,,,,,,,,,,,,,,,,,,,,,,,,,,,,,,,,,,,,,,,,,,,,,,,,
,,,,,,,,,R_2qvEcle6gUufofI,2022-11-20_12h41.11.100,jpn_C01,2022.1.2,Linux x86_64,60.03121623,,,,,,,,,,,,,,,space,0.3867,right,1,8.1343,0,0,0,0,1,,,,,,,,,,,,,,,,,,,,,,,,,,,,,,,,,,,,,,,,,,,,,,,,,,,,,,,,,,,
,,,,,,,,,R_2qvEcle6gUufofI,2022-11-20_12h41.11.100,jpn_C01,2022.1.2,Linux x86_64,60.03121623,,,,,,,,,,,,,,,,,,,,,,,,,0,0,0,1,1,CartoonStims/chef_point_burglar_r.jpg,トマ　ホレト　シド,CartoonStims/chef_point_artist_r.jpg,right,CartoonStims/chef_point_artist_r.jpg,audio/tomahoretosido.mp3,残念！ こちらが正しい画像です。,,,,,,,,,,,,,,,,,,,,,,,,,,,,,,,,,,,,,,,,,,,,,,,
,,,,,,,,,R_2qvEcle6gUufofI,2022-11-20_12h41.11.100,jpn_C01,2022.1.2,Linux x86_64,60.03121623,,,,,,,,,,,,,,,,,left,1,4.4954,,,,,,,,,,,,,,,,,,0,0,0,0,1,,,,,,,,,,,,,,,,,,,,,,,,,,,,,,,,,,,,,,,,,,
,,,,,,,,,R_2qvEcle6gUufofI,2022-11-20_12h41.11.100,jpn_C01,2022.1.2,Linux x86_64,60.03121623,,,,,,,,,,,,,,,,,,,,,,,,,0,1,1,10,1,CartoonStims/artist_shoot_burglar_r.jpg,パツ　シド　ルピン,CartoonStims/chef_shoot_burglar_r.jpg,left,CartoonStims/artist_shoot_burglar_r.jpg,audio/patsusidolupin.mp3,残念！ こちらが正しい画像です。,,,,,,,,,,,,,,,,,,,,,,,,,,,,,,,,,,,,,,,,,,,,,,,
,,,,,,,,,R_2qvEcle6gUufofI,2022-11-20_12h41.11.100,jpn_C01,2022.1.2,Linux x86_64,60.03121623,,,,,,,,,,,,,,,,,left,1,2.3013,,,,,,,,,,,,,,,,,,0,0,0,0,1,,,,,,,,,,,,,,,,,,,,,,,,,,,,,,,,,,,,,,,,,,
,,,,,,,,,R_2qvEcle6gUufofI,2022-11-20_12h41.11.100,jpn_C01,2022.1.2,Linux x86_64,60.03121623,,,,,,,,,,,,,,,,,,,,,,,,,0,2,2,2,1,CartoonStims/boxer_shoot_doctor_r.jpg,パツ　ドキ　ピポ,CartoonStims/boxer_shoot_artist_r.jpg,left,CartoonStims/boxer_shoot_doctor_r.jpg,audio/patsudokipipo.mp3,残念！ こちらが正しい画像です。,,,,,,,,,,,,,,,,,,,,,,,,,,,,,,,,,,,,,,,,,,,,,,,
,,,,,,,,,R_2qvEcle6gUufofI,2022-11-20_12h41.11.100,jpn_C01,2022.1.2,Linux x86_64,60.03121623,,,,,,,,,,,,,,,,,right,1,4.8987,0,0,0,0,1,,,,,,,,,,,,,,,,,,,,,,,,,,,,,,,,,,,,,,,,,,,,,,,,,,,,,,,,,,,
,,,,,,,,,R_2qvEcle6gUufofI,2022-11-20_12h41.11.100,jpn_C01,2022.1.2,Linux x86_64,60.03121623,,,,,,,,,,,,,,,,,,,,,,,,,0,3,3,3,1,CartoonStims/cowboy_punch_doctor_r.jpg,プミ　ムク　ドキ,CartoonStims/cowboy_punch_boxer_r.jpg,right,CartoonStims/cowboy_punch_boxer_r.jpg,audio/pumimukudoki.mp3,残念！ こちらが正しい画像です。,,,,,,,,,,,,,,,,,,,,,,,,,,,,,,,,,,,,,,,,,,,,,,,
,,,,,,,,,R_2qvEcle6gUufofI,2022-11-20_12h41.11.100,jpn_C01,2022.1.2,Linux x86_64,60.03121623,,,,,,,,,,,,,,,,,right,1,2.2545,0,0,0,0,1,,,,,,,,,,,,,,,,,,,,,,,,,,,,,,,,,,,,,,,,,,,,,,,,,,,,,,,,,,,
,,,,,,,,,R_2qvEcle6gUufofI,2022-11-20_12h41.11.100,jpn_C01,2022.1.2,Linux x86_64,60.03121623,,,,,,,,,,,,,,,,,,,,,,,,,0,4,4,5,1,CartoonStims/cowboy_point_chef_r.jpg,パツ　ムク　ホレト,CartoonStims/cowboy_shoot_chef_r.jpg,right,CartoonStims/cowboy_shoot_chef_r.jpg,audio/patsumukuhoreto.mp3,残念！ こちらが正しい画像です。,,,,,,,,,,,,,,,,,,,,,,,,,,,,,,,,,,,,,,,,,,,,,,,
,,,,,,,,,R_2qvEcle6gUufofI,2022-11-20_12h41.11.100,jpn_C01,2022.1.2,Linux x86_64,60.03121623,,,,,,,,,,,,,,,,,left,1,2.3176,,,,,,,,,,,,,,,,,,0,0,0,0,1,,,,,,,,,,,,,,,,,,,,,,,,,,,,,,,,,,,,,,,,,,
,,,,,,,,,R_2qvEcle6gUufofI,2022-11-20_12h41.11.100,jpn_C01,2022.1.2,Linux x86_64,60.03121623,,,,,,,,,,,,,,,,,,,,,,,,,0,5,5,0,1,CartoonStims/doctor_kick_burglar_r.jpg,セル　ピポ　ルピン,CartoonStims/doctor_kick_chef_r.jpg,left,CartoonStims/doctor_kick_burglar_r.jpg,audio/serupipolupin.mp3,残念！ こちらが正しい画像です。,,,,,,,,,,,,,,,,,,,,,,,,,,,,,,,,,,,,,,,,,,,,,,,
,,,,,,,,,R_2qvEcle6gUufofI,2022-11-20_12h41.11.100,jpn_C01,2022.1.2,Linux x86_64,60.03121623,,,,,,,,,,,,,,,,,left,1,1.7669,,,,,,,,,,,,,,,,,,0,0,0,0,1,,,,,,,,,,,,,,,,,,,,,,,,,,,,,,,,,,,,,,,,,,
,,,,,,,,,R_2qvEcle6gUufofI,2022-11-20_12h41.11.100,jpn_C01,2022.1.2,Linux x86_64,60.03121623,,,,,,,,,,,,,,,,,,,,,,,,,0,6,6,8,1,CartoonStims/doctor_point_cowboy_r.jpg,トマ　ピポ　ムク,CartoonStims/boxer_point_cowboy_r.jpg,left,CartoonStims/doctor_point_cowboy_r.jpg,audio/tomapipomuku.mp3,残念！ こちらが正しい画像です。,,,,,,,,,,,,,,,,,,,,,,,,,,,,,,,,,,,,,,,,,,,,,,,
,,,,,,,,,R_2qvEcle6gUufofI,2022-11-20_12h41.11.100,jpn_C01,2022.1.2,Linux x86_64,60.03121623,,,,,,,,,,,,,,,,,right,1,1.9185,0,0,0,0,1,,,,,,,,,,,,,,,,,,,,,,,,,,,,,,,,,,,,,,,,,,,,,,,,,,,,,,,,,,,
,,,,,,,,,R_2qvEcle6gUufofI,2022-11-20_12h41.11.100,jpn_C01,2022.1.2,Linux x86_64,60.03121623,,,,,,,,,,,,,,,,,,,,,,,,,0,7,7,7,1,CartoonStims/artist_punch_cowboy_r.jpg,セル　シド　ムク,CartoonStims/artist_kick_cowboy_r.jpg,right,CartoonStims/artist_kick_cowboy_r.jpg,audio/serusidomuku.mp3,残念！ こちらが正しい画像です。,,,,,,,,,,,,,,,,,,,,,,,,,,,,,,,,,,,,,,,,,,,,,,,
,,,,,,,,,R_2qvEcle6gUufofI,2022-11-20_12h41.11.100,jpn_C01,2022.1.2,Linux x86_64,60.03121623,,,,,,,,,,,,,,,,,right,1,2.255,0,0,0,0,1,,,,,,,,,,,,,,,,,,,,,,,,,,,,,,,,,,,,,,,,,,,,,,,,,,,,,,,,,,,
,,,,,,,,,R_2qvEcle6gUufofI,2022-11-20_12h41.11.100,jpn_C01,2022.1.2,Linux x86_64,60.03121623,,,,,,,,,,,,,,,,,,,,,,,,,0,8,8,9,1,CartoonStims/chef_kick_artist_r.jpg,セル　ムク　シド,CartoonStims/cowboy_kick_artist_r.jpg,right,CartoonStims/cowboy_kick_artist_r.jpg,audio/serumukusido.mp3,残念！ こちらが正しい画像です。,,,,,,,,,,,,,,,,,,,,,,,,,,,,,,,,,,,,,,,,,,,,,,,
,,,,,,,,,R_2qvEcle6gUufofI,2022-11-20_12h41.11.100,jpn_C01,2022.1.2,Linux x86_64,60.03121623,,,,,,,,,,,,,,,,,left,1,1.8326,,,,,,,,,,,,,,,,,,0,0,0,0,1,,,,,,,,,,,,,,,,,,,,,,,,,,,,,,,,,,,,,,,,,,
,,,,,,,,,R_2qvEcle6gUufofI,2022-11-20_12h41.11.100,jpn_C01,2022.1.2,Linux x86_64,60.03121623,,,,,,,,,,,,,,,,,,,,,,,,,0,9,9,4,1,CartoonStims/burglar_point_boxer_r.jpg,トマ　ルピン　ドキ,CartoonStims/burglar_kick_boxer_r.jpg,left,CartoonStims/burglar_point_boxer_r.jpg,audio/tomalupindoki.mp3,残念！ こちらが正しい画像です。,,,,,,,,,,,,,,,,,,,,,,,,,,,,,,,,,,,,,,,,,,,,,,,
,,,,,,,,,R_2qvEcle6gUufofI,2022-11-20_12h41.11.100,jpn_C01,2022.1.2,Linux x86_64,60.03121623,,,,,,,,,,,,,,,,,right,1,1.536,0,0,0,0,1,,,,,,,,,,,,,,,,,,,,,,,,,,,,,,,,,,,,,,,,,,,,,,,,,,,,,,,,,,,
,,,,,,,,,R_2qvEcle6gUufofI,2022-11-20_12h41.11.100,jpn_C01,2022.1.2,Linux x86_64,60.03121623,,,,,,,,,,,,,,,,,,,,,,,,,0,10,10,11,1,CartoonStims/burglar_punch_cowboy_r.jpg,プミ　ホレト　ムク,CartoonStims/chef_punch_cowboy_r.jpg,right,CartoonStims/chef_punch_cowboy_r.jpg,audio/pumihoretomuku.mp3,残念！ こちらが正しい画像です。,,,,,,,,,,,,,,,,,,,,,,,,,,,,,,,,,,,,,,,,,,,,,,,
,,,,,,,,,R_2qvEcle6gUufofI,2022-11-20_12h41.11.100,jpn_C01,2022.1.2,Linux x86_64,60.03121623,,,,,,,,,,,,,,,,,left,1,3.6158,,,,,,,,,,,,,,,,,,0,0,0,0,1,,,,,,,,,,,,,,,,,,,,,,,,,,,,,,,,,,,,,,,,,,
,,,,,,,,,R_2qvEcle6gUufofI,2022-11-20_12h41.11.100,jpn_C01,2022.1.2,Linux x86_64,60.03121623,,,,,,,,,,,,,,,,,,,,,,,,,0,11,11,6,1,CartoonStims/doctor_punch_boxer_r.jpg,プミ　ピポ　ドキ,CartoonStims/doctor_shoot_boxer_r.jpg,left,CartoonStims/doctor_punch_boxer_r.jpg,audio/pumipipodoki.mp3,残念！ こちらが正しい画像です。,,,,,,,,,,,,,,,,,,,,,,,,,,,,,,,,,,,,,,,,,,,,,,,
,,,,,,,,,R_2qvEcle6gUufofI,2022-11-20_12h41.11.100,jpn_C01,2022.1.2,Linux x86_64,60.03121623,,,,,,,,,,,,,,,,,,,,,,,,,,,,,,,,,,,,,,,,,,space,1.6173,パツ　ホレト　ムク,right,17.5807,0,0,0,0,1,,,,,,,,,,,,,,,,,,,,,,,,,,,,,,,,
,,,,,,,,,R_2qvEcle6gUufofI,2022-11-20_12h41.11.100,jpn_C01,2022.1.2,Linux x86_64,60.03121623,,,,,,,,,,,,,CartoonStims/chef_shoot_cowboy_r.jpg,audio/patsuhoretomuku.mp3,,,,,,,,,,,,,,,,,,,,,,,,,,,,,,,,,,,,,,0,0,0,7,1,パツ　ホレト　ムク,,,,,,,,,,,,,,,,,,,,,,,,,,
,,,,,,,,,R_2qvEcle6gUufofI,2022-11-20_12h41.11.100,jpn_C01,2022.1.2,Linux x86_64,60.03121623,,,,,,,,,,,,,,,,,,,,,,,,,,,,,,,,,,,,,,,,,,,,パツ　ムク　ピポ,right,7.7011,0,0,0,0,1,,,,,,,,,,,,,,,,,,,,,,,,,,,,,,,,
,,,,,,,,,R_2qvEcle6gUufofI,2022-11-20_12h41.11.100,jpn_C01,2022.1.2,Linux x86_64,60.03121623,,,,,,,,,,,,,CartoonStims/cowboy_shoot_doctor_r.jpg,audio/patsumukupipo.mp3,,,,,,,,,,,,,,,,,,,,,,,,,,,,,,,,,,,,,,0,1,1,8,1,パツ　ムク　ピポ,,,,,,,,,,,,,,,,,,,,,,,,,,
,,,,,,,,,R_2qvEcle6gUufofI,2022-11-20_12h41.11.100,jpn_C01,2022.1.2,Linux x86_64,60.03121623,,,,,,,,,,,,,,,,,,,,,,,,,,,,,,,,,,,,,,,,,,,,トマ　ルピン　シド,right,10.4376,0,0,0,0,1,,,,,,,,,,,,,,,,,,,,,,,,,,,,,,,,
,,,,,,,,,R_2qvEcle6gUufofI,2022-11-20_12h41.11.100,jpn_C01,2022.1.2,Linux x86_64,60.03121623,,,,,,,,,,,,,CartoonStims/burglar_point_artist_r.jpg,audio/tomalupinsido.mp3,,,,,,,,,,,,,,,,,,,,,,,,,,,,,,,,,,,,,,0,2,2,4,1,トマ　ルピン　シド,,,,,,,,,,,,,,,,,,,,,,,,,,
,,,,,,,,,R_2qvEcle6gUufofI,2022-11-20_12h41.11.100,jpn_C01,2022.1.2,Linux x86_64,60.03121623,,,,,,,,,,,,,,,,,,,,,,,,,,,,,,,,,,,,,,,,,,,,トマ　ホレト　ルピン,right,7.1293,0,0,0,0,1,,,,,,,,,,,,,,,,,,,,,,,,,,,,,,,,
,,,,,,,,,R_2qvEcle6gUufofI,2022-11-20_12h41.11.100,jpn_C01,2022.1.2,Linux x86_64,60.03121623,,,,,,,,,,,,,CartoonStims/chef_point_burglar_r.jpg,audio/tomahoretolupin.mp3,,,,,,,,,,,,,,,,,,,,,,,,,,,,,,,,,,,,,,0,3,3,5,1,トマ　ホレト　ルピン,,,,,,,,,,,,,,,,,,,,,,,,,,
,,,,,,,,,R_2qvEcle6gUufofI,2022-11-20_12h41.11.100,jpn_C01,2022.1.2,Linux x86_64,60.03121623,,,,,,,,,,,,,,,,,,,,,,,,,,,,,,,,,,,,,,,,,,,,トマ　シド　ドキ,right,10.7086,0,0,0,0,1,,,,,,,,,,,,,,,,,,,,,,,,,,,,,,,,
,,,,,,,,,R_2qvEcle6gUufofI,2022-11-20_12h41.11.100,jpn_C01,2022.1.2,Linux x86_64,60.03121623,,,,,,,,,,,,,CartoonStims/artist_point_boxer_r.jpg,audio/tomasidodoki.mp3,,,,,,,,,,,,,,,,,,,,,,,,,,,,,,,,,,,,,,0,4,4,3,1,トマ　シド　ドキ,,,,,,,,,,,,,,,,,,,,,,,,,,
,,,,,,,,,R_2qvEcle6gUufofI,2022-11-20_12h41.11.100,jpn_C01,2022.1.2,Linux x86_64,60.03121623,,,,,,,,,,,,,,,,,,,,,,,,,,,,,,,,,,,,,,,,,,,,セル　ドキ　ムク,right,9.9965,0,0,0,0,1,,,,,,,,,,,,,,,,,,,,,,,,,,,,,,,,
,,,,,,,,,R_2qvEcle6gUufofI,2022-11-20_12h41.11.100,jpn_C01,2022.1.2,Linux x86_64,60.03121623,,,,,,,,,,,,,CartoonStims/boxer_kick_cowboy_r.jpg,audio/serudokimuku.mp3,,,,,,,,,,,,,,,,,,,,,,,,,,,,,,,,,,,,,,0,5,5,2,1,セル　ドキ　ムク,,,,,,,,,,,,,,,,,,,,,,,,,,
,,,,,,,,,R_2qvEcle6gUufofI,2022-11-20_12h41.11.100,jpn_C01,2022.1.2,Linux x86_64,60.03121623,,,,,,,,,,,,,,,,,,,,,,,,,,,,,,,,,,,,,,,,,,,,パツ　ルピン　ホレト,right,8.6143,0,0,0,0,1,,,,,,,,,,,,,,,,,,,,,,,,,,,,,,,,
,,,,,,,,,R_2qvEcle6gUufofI,2022-11-20_12h41.11.100,jpn_C01,2022.1.2,Linux x86_64,60.03121623,,,,,,,,,,,,,CartoonStims/burglar_shoot_chef_r.jpg,audio/patsulupinhoreto.mp3,,,,,,,,,,,,,,,,,,,,,,,,,,,,,,,,,,,,,,0,6,6,6,1,パツ　ルピン　ホレト,,,,,,,,,,,,,,,,,,,,,,,,,,
,,,,,,,,,R_2qvEcle6gUufofI,2022-11-20_12h41.11.100,jpn_C01,2022.1.2,Linux x86_64,60.03121623,,,,,,,,,,,,,,,,,,,,,,,,,,,,,,,,,,,,,,,,,,,,セル　ピポ　ホレト,right,8.2229,0,0,0,0,1,,,,,,,,,,,,,,,,,,,,,,,,,,,,,,,,
,,,,,,,,,R_2qvEcle6gUufofI,2022-11-20_12h41.11.100,jpn_C01,2022.1.2,Linux x86_64,60.03121623,,,,,,,,,,,,,CartoonStims/doctor_kick_chef_r.jpg,audio/serupipohoreto.mp3,,,,,,,,,,,,,,,,,,,,,,,,,,,,,,,,,,,,,,0,7,7,1,1,セル　ピポ　ホレト,,,,,,,,,,,,,,,,,,,,,,,,,,
,,,,,,,,,R_2qvEcle6gUufofI,2022-11-20_12h41.11.100,jpn_C01,2022.1.2,Linux x86_64,60.03121623,,,,,,,,,,,,,,,,,,,,,,,,,,,,,,,,,,,,,,,,,,,,ピポ　ドキ,right,92.7162,0,0,0,0,1,,,,,,,,,,,,,,,,,,,,,,,,,,,,,,,,
,,,,,,,,,R_2qvEcle6gUufofI,2022-11-20_12h41.11.100,jpn_C01,2022.1.2,Linux x86_64,60.03121623,,,,,,,,,,,,,CartoonStims/doctor_punch_boxer_r.jpg,audio/pumipipodoki.mp3,,,,,,,,,,,,,,,,,,,,,,,,,,,,,,,,,,,,,,0,8,8,10,1,プミ　ピポ　ドキ,,,,,,,,,,,,,,,,,,,,,,,,,,
,,,,,,,,,R_2qvEcle6gUufofI,2022-11-20_12h41.11.100,jpn_C01,2022.1.2,Linux x86_64,60.03121623,,,,,,,,,,,,,,,,,,,,,,,,,,,,,,,,,,,,,,,,,,,,プミ　ドキ　シド,right,7.5628,0,0,0,0,1,,,,,,,,,,,,,,,,,,,,,,,,,,,,,,,,
,,,,,,,,,R_2qvEcle6gUufofI,2022-11-20_12h41.11.100,jpn_C01,2022.1.2,Linux x86_64,60.03121623,,,,,,,,,,,,,CartoonStims/boxer_punch_artist_r.jpg,audio/pumidokisido.mp3,,,,,,,,,,,,,,,,,,,,,,,,,,,,,,,,,,,,,,0,9,9,11,1,プミ　ドキ　シド,,,,,,,,,,,,,,,,,,,,,,,,,,
,,,,,,,,,R_2qvEcle6gUufofI,2022-11-20_12h41.11.100,jpn_C01,2022.1.2,Linux x86_64,60.03121623,,,,,,,,,,,,,,,,,,,,,,,,,,,,,,,,,,,,,,,,,,,,セル　ムク　ルピン,right,7.5767,0,0,0,0,1,,,,,,,,,,,,,,,,,,,,,,,,,,,,,,,,
,,,,,,,,,R_2qvEcle6gUufofI,2022-11-20_12h41.11.100,jpn_C01,2022.1.2,Linux x86_64,60.03121623,,,,,,,,,,,,,CartoonStims/cowboy_kick_burglar_r.jpg,audio/serumukulupin.mp3,,,,,,,,,,,,,,,,,,,,,,,,,,,,,,,,,,,,,,0,10,10,0,1,セル　ムク　ルピン,,,,,,,,,,,,,,,,,,,,,,,,,,
,,,,,,,,,R_2qvEcle6gUufofI,2022-11-20_12h41.11.100,jpn_C01,2022.1.2,Linux x86_64,60.03121623,,,,,,,,,,,,,,,,,,,,,,,,,,,,,,,,,,,,,,,,,,,,プミ　シド　ルピン,right,12.2528,0,0,0,0,1,,,,,,,,,,,,,,,,,,,,,,,,,,,,,,,,
,,,,,,,,,R_2qvEcle6gUufofI,2022-11-20_12h41.11.100,jpn_C01,2022.1.2,Linux x86_64,60.03121623,,,,,,,,,,,,,CartoonStims/artist_punch_burglar_r.jpg,audio/pumisidolupin.mp3,,,,,,,,,,,,,,,,,,,,,,,,,,,,,,,,,,,,,,0,11,11,9,1,プミ　シド　ルピン,,,,,,,,,,,,,,,,,,,,,,,,,,
,,,,,,,,,R_2qvEcle6gUufofI,2022-11-20_12h41.11.100,jpn_C01,2022.1.2,Linux x86_64,60.03121623,,,,,,,,,,,,,,,,,,,,,,,,,,,,,,,,,,,,,,,,,,,,,,,,,,,,,,,,,,,space,0.6342,0,1,1,1,1,AffExposure.xlsx,"第二のトライアルの学習では、この言語で書かれた文を見ていただきます。引き続き注意して、 聞こえた音を復唱してください。


スペースキーを押してください。",1,AffFCT.xlsx,ここからクイズが始まります。 スクリーンに表示されるテキストに合う画像を選んでください。,AffTest.xlsx,1,次にここまで学んだことをアウトプットしていただきます。 表示される画像を描写していると思う単語を、テキストボックスにタイプしてください。 答えを提出したあとに正しい正解が少しの間画面に写ります。,1,"これで第二のトライアルが終了しました。 ここで休憩をとっていただいても構いません。

休憩が終わりましたら、 スペースキーを押して続きの学習を行いましょう。",,,,,,,,
,,,,,,,,,R_2qvEcle6gUufofI,2022-11-20_12h41.11.100,jpn_C01,2022.1.2,Linux x86_64,60.03121623,space,2.3191,space,4.1403,0,0,0,8,1,ピク　セル　ピポ　ドキ,,,CartoonStims/doctor_kick_boxer_r_no.jpg,audio/pikuserupipodoki.mp3,,,,,,,,,,,,,,,,,,,,,,,,,,,,,,,,,,,,,,,,,,,,,,,,,,,,,,,,,,,,,,,,,,,,,
,,,,,,,,,R_2qvEcle6gUufofI,2022-11-20_12h41.11.100,jpn_C01,2022.1.2,Linux x86_64,60.03121623,,,space,5.7531,0,1,1,28,1,パツ　ピク　ホレト　ドキ,,,CartoonStims/chef_shoot_boxer_r_no.jpg,audio/patsupikuhoretodoki.mp3,,,,,,,,,,,,,,,,,,,,,,,,,,,,,,,,,,,,,,,,,,,,,,,,,,,,,,,,,,,,,,,,,,,,,
,,,,,,,,,R_2qvEcle6gUufofI,2022-11-20_12h41.11.100,jpn_C01,2022.1.2,Linux x86_64,60.03121623,,,space,10.074,0,2,2,46,1,ピク　プミ　ドキ　ムク,,,CartoonStims/boxer_punch_cowboy_r_no.jpg,audio/pikupumidokimuku.mp3,,,,,,,,,,,,,,,,,,,,,,,,,,,,,,,,,,,,,,,,,,,,,,,,,,,,,,,,,,,,,,,,,,,,,
,,,,,,,,,R_2qvEcle6gUufofI,2022-11-20_12h41.11.100,jpn_C01,2022.1.2,Linux x86_64,60.03121623,,,space,3.8919,0,3,3,14,1,トマ　ピク　ルピン　ムク,,,CartoonStims/burglar_point_cowboy_r_no.jpg,audio/tomapikulupinmuku.mp3,,,,,,,,,,,,,,,,,,,,,,,,,,,,,,,,,,,,,,,,,,,,,,,,,,,,,,,,,,,,,,,,,,,,,
,,,,,,,,,R_2qvEcle6gUufofI,2022-11-20_12h41.11.100,jpn_C01,2022.1.2,Linux x86_64,60.03121623,,,space,2.2423,0,4,4,6,1,ピク　セル　ムク　ピポ,,,CartoonStims/cowboy_kick_doctor_r_no.jpg,audio/pikuserumukupipo.mp3,,,,,,,,,,,,,,,,,,,,,,,,,,,,,,,,,,,,,,,,,,,,,,,,,,,,,,,,,,,,,,,,,,,,,
,,,,,,,,,R_2qvEcle6gUufofI,2022-11-20_12h41.11.100,jpn_C01,2022.1.2,Linux x86_64,60.03121623,,,space,2.4228,0,5,5,0,1,ピク　セル　シド　ルピン,,,CartoonStims/artist_kick_burglar_r_no.jpg,audio/pikuserusidolupin.mp3,,,,,,,,,,,,,,,,,,,,,,,,,,,,,,,,,,,,,,,,,,,,,,,,,,,,,,,,,,,,,,,,,,,,,
,,,,,,,,,R_2qvEcle6gUufofI,2022-11-20_12h41.11.100,jpn_C01,2022.1.2,Linux x86_64,60.03121623,,,space,1.2825,0,6,6,18,1,トマ　ピク　ムク　ドキ,,,CartoonStims/cowboy_point_boxer_r_no.jpg,audio/tomapikumukudoki.mp3,,,,,,,,,,,,,,,,,,,,,,,,,,,,,,,,,,,,,,,,,,,,,,,,,,,,,,,,,,,,,,,,,,,,,
,,,,,,,,,R_2qvEcle6gUufofI,2022-11-20_12h41.11.100,jpn_C01,2022.1.2,Linux x86_64,60.03121623,,,space,2.5508,0,7,7,2,1,ピク　セル　ルピン　ホレト,,,CartoonStims/burglar_kick_chef_r_no.jpg,audio/pikuserulupinhoreto.mp3,,,,,,,,,,,,,,,,,,,,,,,,,,,,,,,,,,,,,,,,,,,,,,,,,,,,,,,,,,,,,,,,,,,,,
,,,,,,,,,R_2qvEcle6gUufofI,2022-11-20_12h41.11.100,jpn_C01,2022.1.2,Linux x86_64,60.03121623,,,space,7.5689,0,8,8,23,1,ピク　トマ　ドキ　ホレト,,,CartoonStims/boxer_point_chef_r_no.jpg,audio/pikutomadokihoreto.mp3,,,,,,,,,,,,,,,,,,,,,,,,,,,,,,,,,,,,,,,,,,,,,,,,,,,,,,,,,,,,,,,,,,,,,
,,,,,,,,,R_2qvEcle6gUufofI,2022-11-20_12h41.11.100,jpn_C01,2022.1.2,Linux x86_64,60.03121623,,,space,1.2773,0,9,9,19,1,ピク　トマ　ムク　シド,,,CartoonStims/cowboy_point_artist_r_no.jpg,audio/pikutomamukusido.mp3,,,,,,,,,,,,,,,,,,,,,,,,,,,,,,,,,,,,,,,,,,,,,,,,,,,,,,,,,,,,,,,,,,,,,
,,,,,,,,,R_2qvEcle6gUufofI,2022-11-20_12h41.11.100,jpn_C01,2022.1.2,Linux x86_64,60.03121623,,,space,2.1336,0,10,10,31,1,ピク　パツ　ムク　ルピン,,,CartoonStims/cowboy_shoot_burglar_r_no.jpg,audio/pikupatsumukulupin.mp3,,,,,,,,,,,,,,,,,,,,,,,,,,,,,,,,,,,,,,,,,,,,,,,,,,,,,,,,,,,,,,,,,,,,,
,,,,,,,,,R_2qvEcle6gUufofI,2022-11-20_12h41.11.100,jpn_C01,2022.1.2,Linux x86_64,60.03121623,,,space,3.2692,0,11,11,40,1,ピク　プミ　ホレト　シド,,,CartoonStims/chef_punch_artist_r_no.jpg,audio/pikupumihoretosido.mp3,,,,,,,,,,,,,,,,,,,,,,,,,,,,,,,,,,,,,,,,,,,,,,,,,,,,,,,,,,,,,,,,,,,,,
,,,,,,,,,R_2qvEcle6gUufofI,2022-11-20_12h41.11.100,jpn_C01,2022.1.2,Linux x86_64,60.03121623,,,space,2.468,0,12,12,42,1,ピク　プミ　ムク　ルピン,,,CartoonStims/cowboy_punch_burglar_r_no.jpg,audio/pikupumimukulupin.mp3,,,,,,,,,,,,,,,,,,,,,,,,,,,,,,,,,,,,,,,,,,,,,,,,,,,,,,,,,,,,,,,,,,,,,
,,,,,,,,,R_2qvEcle6gUufofI,2022-11-20_12h41.11.100,jpn_C01,2022.1.2,Linux x86_64,60.03121623,,,space,2.0601,0,13,13,5,1,セル　ピク　ホレト　ピポ,,,CartoonStims/chef_kick_doctor_r_no.jpg,audio/serupikuhoretopipo.mp3,,,,,,,,,,,,,,,,,,,,,,,,,,,,,,,,,,,,,,,,,,,,,,,,,,,,,,,,,,,,,,,,,,,,,
,,,,,,,,,R_2qvEcle6gUufofI,2022-11-20_12h41.11.100,jpn_C01,2022.1.2,Linux x86_64,60.03121623,,,space,0.6284,0,14,14,1,1,セル　ピク　シド　ホレト,,,CartoonStims/artist_kick_chef_r_no.jpg,audio/serupikusidohoreto.mp3,,,,,,,,,,,,,,,,,,,,,,,,,,,,,,,,,,,,,,,,,,,,,,,,,,,,,,,,,,,,,,,,,,,,,
,,,,,,,,,R_2qvEcle6gUufofI,2022-11-20_12h41.11.100,jpn_C01,2022.1.2,Linux x86_64,60.03121623,,,space,2.6626,0,15,15,9,1,セル　ピク　ピポ　シド,,,CartoonStims/doctor_kick_artist_r_no.jpg,audio/serupikupiposido.mp3,,,,,,,,,,,,,,,,,,,,,,,,,,,,,,,,,,,,,,,,,,,,,,,,,,,,,,,,,,,,,,,,,,,,,
,,,,,,,,,R_2qvEcle6gUufofI,2022-11-20_12h41.11.100,jpn_C01,2022.1.2,Linux x86_64,60.03121623,,,space,1.4305,0,16,16,15,1,ピク　トマ　ルピン　ピポ,,,CartoonStims/burglar_point_doctor_r_no.jpg,audio/pikutomalupinpipo.mp3,,,,,,,,,,,,,,,,,,,,,,,,,,,,,,,,,,,,,,,,,,,,,,,,,,,,,,,,,,,,,,,,,,,,,
,,,,,,,,,R_2qvEcle6gUufofI,2022-11-20_12h41.11.100,jpn_C01,2022.1.2,Linux x86_64,60.03121623,,,space,6.8241,0,17,17,26,1,パツ　ピク　ルピン　ピポ,,,CartoonStims/burglar_shoot_doctor_r_no.jpg,audio/patsupikulupinpipo.mp3,,,,,,,,,,,,,,,,,,,,,,,,,,,,,,,,,,,,,,,,,,,,,,,,,,,,,,,,,,,,,,,,,,,,,
,,,,,,,,,R_2qvEcle6gUufofI,2022-11-20_12h41.11.100,jpn_C01,2022.1.2,Linux x86_64,60.03121623,,,space,3.301,0,18,18,37,1,プミ　ピク　シド　ドキ,,,CartoonStims/artist_punch_boxer_r_no.jpg,audio/pumipikusidodoki.mp3,,,,,,,,,,,,,,,,,,,,,,,,,,,,,,,,,,,,,,,,,,,,,,,,,,,,,,,,,,,,,,,,,,,,,
,,,,,,,,,R_2qvEcle6gUufofI,2022-11-20_12h41.11.100,jpn_C01,2022.1.2,Linux x86_64,60.03121623,,,space,2.4518,0,19,19,10,1,ピク　セル　ドキ　シド,,,CartoonStims/boxer_kick_artist_r_no.jpg,audio/pikuserudokisido.mp3,,,,,,,,,,,,,,,,,,,,,,,,,,,,,,,,,,,,,,,,,,,,,,,,,,,,,,,,,,,,,,,,,,,,,
,,,,,,,,,R_2qvEcle6gUufofI,2022-11-20_12h41.11.100,jpn_C01,2022.1.2,Linux x86_64,60.03121623,,,space,2.8739,0,20,20,27,1,ピク　パツ　ルピン　ドキ,,,CartoonStims/burglar_shoot_boxer_r_no.jpg,audio/pikupatsulupindoki.mp3,,,,,,,,,,,,,,,,,,,,,,,,,,,,,,,,,,,,,,,,,,,,,,,,,,,,,,,,,,,,,,,,,,,,,
,,,,,,,,,R_2qvEcle6gUufofI,2022-11-20_12h41.11.100,jpn_C01,2022.1.2,Linux x86_64,60.03121623,,,space,14.5525,0,21,21,43,1,プミ　ピク　ムク　ホレト,,,CartoonStims/cowboy_punch_chef_r_no.jpg,audio/pumipikumukuhoreto.mp3,,,,,,,,,,,,,,,,,,,,,,,,,,,,,,,,,,,,,,,,,,,,,,,,,,,,,,,,,,,,,,,,,,,,,
,,,,,,,,,R_2qvEcle6gUufofI,2022-11-20_12h41.11.100,jpn_C01,2022.1.2,Linux x86_64,60.03121623,,,space,3.959,0,22,22,32,1,パツ　ピク　ピポ　ルピン,,,CartoonStims/doctor_shoot_burglar_r_no.jpg,audio/patsupikupipolupin.mp3,,,,,,,,,,,,,,,,,,,,,,,,,,,,,,,,,,,,,,,,,,,,,,,,,,,,,,,,,,,,,,,,,,,,,
,,,,,,,,,R_2qvEcle6gUufofI,2022-11-20_12h41.11.100,jpn_C01,2022.1.2,Linux x86_64,60.03121623,,,space,2.633,0,23,23,24,1,パツ　ピク　シド　ムク,,,CartoonStims/artist_shoot_cowboy_r_no.jpg,audio/patsupikusidomuku.mp3,,,,,,,,,,,,,,,,,,,,,,,,,,,,,,,,,,,,,,,,,,,,,,,,,,,,,,,,,,,,,,,,,,,,,
,,,,,,,,,R_2qvEcle6gUufofI,2022-11-20_12h41.11.100,jpn_C01,2022.1.2,Linux x86_64,60.03121623,,,space,3.293,0,24,24,22,1,トマ　ピク　ドキ　ルピン,,,CartoonStims/boxer_point_burglar_r_no.jpg,audio/tomapikudokilupin.mp3,,,,,,,,,,,,,,,,,,,,,,,,,,,,,,,,,,,,,,,,,,,,,,,,,,,,,,,,,,,,,,,,,,,,,
,,,,,,,,,R_2qvEcle6gUufofI,2022-11-20_12h41.11.100,jpn_C01,2022.1.2,Linux x86_64,60.03121623,,,space,3.8247,0,25,25,44,1,ピク　プミ　ピポ　ホレト,,,CartoonStims/doctor_punch_chef_r_no.jpg,audio/pikupumipipohoreto.mp3,,,,,,,,,,,,,,,,,,,,,,,,,,,,,,,,,,,,,,,,,,,,,,,,,,,,,,,,,,,,,,,,,,,,,
,,,,,,,,,R_2qvEcle6gUufofI,2022-11-20_12h41.11.100,jpn_C01,2022.1.2,Linux x86_64,60.03121623,,,space,3.092,0,26,26,30,1,パツ　ピク　ムク　シド,,,CartoonStims/cowboy_shoot_artist_r_no.jpg,audio/patsupikumukusido.mp3,,,,,,,,,,,,,,,,,,,,,,,,,,,,,,,,,,,,,,,,,,,,,,,,,,,,,,,,,,,,,,,,,,,,,
,,,,,,,,,R_2qvEcle6gUufofI,2022-11-20_12h41.11.100,jpn_C01,2022.1.2,Linux x86_64,60.03121623,,,space,3.1845,0,27,27,12,1,トマ　ピク　シド　ホレト,,,CartoonStims/artist_point_chef_r_no.jpg,audio/tomapikusidohoreto.mp3,,,,,,,,,,,,,,,,,,,,,,,,,,,,,,,,,,,,,,,,,,,,,,,,,,,,,,,,,,,,,,,,,,,,,
,,,,,,,,,R_2qvEcle6gUufofI,2022-11-20_12h41.11.100,jpn_C01,2022.1.2,Linux x86_64,60.03121623,,,space,1.2534,0,28,28,47,1,プミ　ピク　ドキ　ピポ,,,CartoonStims/boxer_punch_doctor_r_no.jpg,audio/pumipikudokipipo.mp3,,,,,,,,,,,,,,,,,,,,,,,,,,,,,,,,,,,,,,,,,,,,,,,,,,,,,,,,,,,,,,,,,,,,,
,,,,,,,,,R_2qvEcle6gUufofI,2022-11-20_12h41.11.100,jpn_C01,2022.1.2,Linux x86_64,60.03121623,,,space,1.4604,0,29,29,4,1,ピク　セル　ホレト　ムク,,,CartoonStims/chef_kick_cowboy_r_no.jpg,audio/pikuseruhoretomuku.mp3,,,,,,,,,,,,,,,,,,,,,,,,,,,,,,,,,,,,,,,,,,,,,,,,,,,,,,,,,,,,,,,,,,,,,
,,,,,,,,,R_2qvEcle6gUufofI,2022-11-20_12h41.11.100,jpn_C01,2022.1.2,Linux x86_64,60.03121623,,,space,1.469,0,30,30,25,1,ピク　パツ　シド　ピポ,,,CartoonStims/artist_shoot_doctor_r_no.jpg,audio/pikupatsusidopipo.mp3,,,,,,,,,,,,,,,,,,,,,,,,,,,,,,,,,,,,,,,,,,,,,,,,,,,,,,,,,,,,,,,,,,,,,
,,,,,,,,,R_2qvEcle6gUufofI,2022-11-20_12h41.11.100,jpn_C01,2022.1.2,Linux x86_64,60.03121623,,,space,4.4058,0,31,31,41,1,プミ　ピク　ホレト　ルピン,,,CartoonStims/chef_punch_burglar_r_no.jpg,audio/pumipikuhoretolupin.mp3,,,,,,,,,,,,,,,,,,,,,,,,,,,,,,,,,,,,,,,,,,,,,,,,,,,,,,,,,,,,,,,,,,,,,
,,,,,,,,,R_2qvEcle6gUufofI,2022-11-20_12h41.11.100,jpn_C01,2022.1.2,Linux x86_64,60.03121623,,,space,1.9178,0,32,32,33,1,ピク　パツ　ピポ　ホレト,,,CartoonStims/doctor_shoot_chef_r_no.jpg,audio/pikupatsupipohoreto.mp3,,,,,,,,,,,,,,,,,,,,,,,,,,,,,,,,,,,,,,,,,,,,,,,,,,,,,,,,,,,,,,,,,,,,,
,,,,,,,,,R_2qvEcle6gUufofI,2022-11-20_12h41.11.100,jpn_C01,2022.1.2,Linux x86_64,60.03121623,,,space,2.1177,0,33,33,13,1,ピク　トマ　シド　ムク,,,CartoonStims/artist_point_cowboy_r_no.jpg,audio/pikutomasidomuku.mp3,,,,,,,,,,,,,,,,,,,,,,,,,,,,,,,,,,,,,,,,,,,,,,,,,,,,,,,,,,,,,,,,,,,,,
,,,,,,,,,R_2qvEcle6gUufofI,2022-11-20_12h41.11.100,jpn_C01,2022.1.2,Linux x86_64,60.03121623,,,space,2.0707,0,34,34,35,1,ピク　パツ　ドキ　ムク,,,CartoonStims/boxer_shoot_cowboy_r_no.jpg,audio/pikupatsudokimuku.mp3,,,,,,,,,,,,,,,,,,,,,,,,,,,,,,,,,,,,,,,,,,,,,,,,,,,,,,,,,,,,,,,,,,,,,
,,,,,,,,,R_2qvEcle6gUufofI,2022-11-20_12h41.11.100,jpn_C01,2022.1.2,Linux x86_64,60.03121623,,,space,1.2514,0,35,35,36,1,ピク　プミ　シド　ピポ,,,CartoonStims/artist_punch_doctor_r_no.jpg,audio/pikupumisidopipo.mp3,,,,,,,,,,,,,,,,,,,,,,,,,,,,,,,,,,,,,,,,,,,,,,,,,,,,,,,,,,,,,,,,,,,,,
,,,,,,,,,R_2qvEcle6gUufofI,2022-11-20_12h41.11.100,jpn_C01,2022.1.2,Linux x86_64,60.03121623,,,space,2.64,0,36,36,16,1,トマ　ピク　ホレト　ピポ,,,CartoonStims/chef_point_doctor_r_no.jpg,audio/tomapikuhoretopipo.mp3,,,,,,,,,,,,,,,,,,,,,,,,,,,,,,,,,,,,,,,,,,,,,,,,,,,,,,,,,,,,,,,,,,,,,
,,,,,,,,,R_2qvEcle6gUufofI,2022-11-20_12h41.11.100,jpn_C01,2022.1.2,Linux x86_64,60.03121623,,,space,1.3509,0,37,37,20,1,トマ　ピク　ピポ　シド,,,CartoonStims/doctor_point_artist_r_no.jpg,audio/tomapikupiposido.mp3,,,,,,,,,,,,,,,,,,,,,,,,,,,,,,,,,,,,,,,,,,,,,,,,,,,,,,,,,,,,,,,,,,,,,
,,,,,,,,,R_2qvEcle6gUufofI,2022-11-20_12h41.11.100,jpn_C01,2022.1.2,Linux x86_64,60.03121623,,,space,9.5953,0,38,38,21,1,ピク　トマ　ピポ　ルピン,,,CartoonStims/doctor_point_burglar_r_no.jpg,audio/pikutomapipolupin.mp3,,,,,,,,,,,,,,,,,,,,,,,,,,,,,,,,,,,,,,,,,,,,,,,,,,,,,,,,,,,,,,,,,,,,,
,,,,,,,,,R_2qvEcle6gUufofI,2022-11-20_12h41.11.100,jpn_C01,2022.1.2,Linux x86_64,60.03121623,,,space,3.2,0,39,39,34,1,パツ　ピク　ドキ　ホレト,,,CartoonStims/boxer_shoot_chef_r_no.jpg,audio/patsupikudokihoreto.mp3,,,,,,,,,,,,,,,,,,,,,,,,,,,,,,,,,,,,,,,,,,,,,,,,,,,,,,,,,,,,,,,,,,,,,
,,,,,,,,,R_2qvEcle6gUufofI,2022-11-20_12h41.11.100,jpn_C01,2022.1.2,Linux x86_64,60.03121623,,,space,5.032,0,40,40,39,1,プミ　ピク　ルピン　シド,,,CartoonStims/burglar_punch_artist_r_no.jpg,audio/pumipikulupinsido.mp3,,,,,,,,,,,,,,,,,,,,,,,,,,,,,,,,,,,,,,,,,,,,,,,,,,,,,,,,,,,,,,,,,,,,,
,,,,,,,,,R_2qvEcle6gUufofI,2022-11-20_12h41.11.100,jpn_C01,2022.1.2,Linux x86_64,60.03121623,,,space,3.5513,0,41,41,11,1,セル　ピク　ドキ　ルピン,,,CartoonStims/boxer_kick_burglar_r_no.jpg,audio/serupikudokilupin.mp3,,,,,,,,,,,,,,,,,,,,,,,,,,,,,,,,,,,,,,,,,,,,,,,,,,,,,,,,,,,,,,,,,,,,,
,,,,,,,,,R_2qvEcle6gUufofI,2022-11-20_12h41.11.100,jpn_C01,2022.1.2,Linux x86_64,60.03121623,,,space,3.972,0,42,42,17,1,ピク　トマ　ホレト　ドキ,,,CartoonStims/chef_point_boxer_r_no.jpg,audio/pikutomahoretodoki.mp3,,,,,,,,,,,,,,,,,,,,,,,,,,,,,,,,,,,,,,,,,,,,,,,,,,,,,,,,,,,,,,,,,,,,,
,,,,,,,,,R_2qvEcle6gUufofI,2022-11-20_12h41.11.100,jpn_C01,2022.1.2,Linux x86_64,60.03121623,,,space,4.2092,0,43,43,45,1,プミ　ピク　ピポ　ムク,,,CartoonStims/doctor_punch_cowboy_r_no.jpg,audio/pumipikupipomuku.mp3,,,,,,,,,,,,,,,,,,,,,,,,,,,,,,,,,,,,,,,,,,,,,,,,,,,,,,,,,,,,,,,,,,,,,
,,,,,,,,,R_2qvEcle6gUufofI,2022-11-20_12h41.11.100,jpn_C01,2022.1.2,Linux x86_64,60.03121623,,,space,2.4048,0,44,44,7,1,セル　ピク　ムク　ドキ,,,CartoonStims/cowboy_kick_boxer_r_no.jpg,audio/serupikumukudoki.mp3,,,,,,,,,,,,,,,,,,,,,,,,,,,,,,,,,,,,,,,,,,,,,,,,,,,,,,,,,,,,,,,,,,,,,
,,,,,,,,,R_2qvEcle6gUufofI,2022-11-20_12h41.11.100,jpn_C01,2022.1.2,Linux x86_64,60.03121623,,,space,5.3173,0,45,45,3,1,セル　ピク　ルピン　ムク,,,CartoonStims/burglar_kick_cowboy_r_no.jpg,audio/serupikulupinmuku.mp3,,,,,,,,,,,,,,,,,,,,,,,,,,,,,,,,,,,,,,,,,,,,,,,,,,,,,,,,,,,,,,,,,,,,,
,,,,,,,,,R_2qvEcle6gUufofI,2022-11-20_12h41.11.100,jpn_C01,2022.1.2,Linux x86_64,60.03121623,,,space,3.8667,0,46,46,29,1,ピク　パツ　ホレト　シド,,,CartoonStims/chef_shoot_artist_r_no.jpg,audio/pikupatsuhoretosido.mp3,,,,,,,,,,,,,,,,,,,,,,,,,,,,,,,,,,,,,,,,,,,,,,,,,,,,,,,,,,,,,,,,,,,,,
,,,,,,,,,R_2qvEcle6gUufofI,2022-11-20_12h41.11.100,jpn_C01,2022.1.2,Linux x86_64,60.03121623,,,space,2.6743,0,47,47,38,1,ピク　プミ　ルピン　ドキ,,,CartoonStims/burglar_punch_boxer_r_no.jpg,audio/pikupumilupindoki.mp3,,,,,,,,,,,,,,,,,,,,,,,,,,,,,,,,,,,,,,,,,,,,,,,,,,,,,,,,,,,,,,,,,,,,,
,,,,,,,,,R_2qvEcle6gUufofI,2022-11-20_12h41.11.100,jpn_C01,2022.1.2,Linux x86_64,60.03121623,,,,,,,,,,,,,,,space,0.0661,right,0,13.5291,,,,,,,,,,,,,,,,,,,,,,,,,,,,,,,,,,,,,,,,,,,,,,,,,,,,,,,,,0,0,0,0,1,,,
,,,,,,,,,R_2qvEcle6gUufofI,2022-11-20_12h41.11.100,jpn_C01,2022.1.2,Linux x86_64,60.03121623,,,,,,,,,,,,,,,,,,,,,,,,,0,0,0,0,1,CartoonStims/artist_shoot_burglar_r.jpg,ピク　プミ　シド　ルピン,CartoonStims/artist_punch_burglar_r.jpg,left,CartoonStims/artist_shoot_burglar_r.jpg,audio/pikupumisidolupin.mp3,"残念！ こちらが正しい画像です。

否定文は起きていないことを示しているのを思い出してください。",,,,,,,,,,,,,,,,,,,,,,,,,,,,,,,,,,,,,,,,,,,,,,,
,,,,,,,,,R_2qvEcle6gUufofI,2022-11-20_12h41.11.100,jpn_C01,2022.1.2,Linux x86_64,60.03121623,,,,,,,,,,,,,,,,,right,1,8.9322,0,0,0,0,1,,,,,,,,,,,,,,,,,,,,,,,,,,,,,,,,,,,,,,,,,,,,,,,,,,,,,,,,,,,
,,,,,,,,,R_2qvEcle6gUufofI,2022-11-20_12h41.11.100,jpn_C01,2022.1.2,Linux x86_64,60.03121623,,,,,,,,,,,,,,,,,,,,,,,,,0,1,1,1,1,CartoonStims/chef_punch_cowboy_r.jpg,プミ　ピク　ホレト　ムク,CartoonStims/chef_kick_cowboy_r.jpg,right,CartoonStims/chef_kick_cowboy_r.jpg,audio/pumipikuhoretomuku.mp3,"残念！ こちらが正しい画像です。

否定文は起きていないことを示しているのを思い出してください。",,,,,,,,,,,,,,,,,,,,,,,,,,,,,,,,,,,,,,,,,,,,,,,
,,,,,,,,,R_2qvEcle6gUufofI,2022-11-20_12h41.11.100,jpn_C01,2022.1.2,Linux x86_64,60.03121623,,,,,,,,,,,,,,,,,left,1,3.2172,,,,,,,,,,,,,,,,,,0,0,0,0,1,,,,,,,,,,,,,,,,,,,,,,,,,,,,,,,,,,,,,,,,,,
,,,,,,,,,R_2qvEcle6gUufofI,2022-11-20_12h41.11.100,jpn_C01,2022.1.2,Linux x86_64,60.03121623,,,,,,,,,,,,,,,,,,,,,,,,,0,2,2,6,1,CartoonStims/artist_shoot_boxer_r.jpg,トマ　ピク　シド　ドキ,CartoonStims/artist_point_boxer_r.jpg,left,CartoonStims/artist_shoot_boxer_r.jpg,audio/tomapikusidodoki.mp3,"残念！ こちらが正しい画像です。

否定文は起きていないことを示しているのを思い出してください。",,,,,,,,,,,,,,,,,,,,,,,,,,,,,,,,,,,,,,,,,,,,,,,
,,,,,,,,,R_2qvEcle6gUufofI,2022-11-20_12h41.11.100,jpn_C01,2022.1.2,Linux x86_64,60.03121623,,,,,,,,,,,,,,,,,right,1,1.3617,0,0,0,0,1,,,,,,,,,,,,,,,,,,,,,,,,,,,,,,,,,,,,,,,,,,,,,,,,,,,,,,,,,,,
,,,,,,,,,R_2qvEcle6gUufofI,2022-11-20_12h41.11.100,jpn_C01,2022.1.2,Linux x86_64,60.03121623,,,,,,,,,,,,,,,,,,,,,,,,,0,3,3,11,1,CartoonStims/chef_shoot_burglar_r.jpg,パツ　ピク　ホレト　ルピン,CartoonStims/chef_kick_burglar_r.jpg,right,CartoonStims/chef_kick_burglar_r.jpg,audio/patsupikuhoretolupin.mp3,"残念！ こちらが正しい画像です。

否定文は起きていないことを示しているのを思い出してください。",,,,,,,,,,,,,,,,,,,,,,,,,,,,,,,,,,,,,,,,,,,,,,,
,,,,,,,,,R_2qvEcle6gUufofI,2022-11-20_12h41.11.100,jpn_C01,2022.1.2,Linux x86_64,60.03121623,,,,,,,,,,,,,,,,,right,1,1.0186,0,0,0,0,1,,,,,,,,,,,,,,,,,,,,,,,,,,,,,,,,,,,,,,,,,,,,,,,,,,,,,,,,,,,
,,,,,,,,,R_2qvEcle6gUufofI,2022-11-20_12h41.11.100,jpn_C01,2022.1.2,Linux x86_64,60.03121623,,,,,,,,,,,,,,,,,,,,,,,,,0,4,4,9,1,CartoonStims/boxer_shoot_doctor_r.jpg,パツ　ピク　ドキ　ピポ,CartoonStims/boxer_point_doctor_r.jpg,right,CartoonStims/boxer_point_doctor_r.jpg,audio/patsupikudokipipo.mp3,"残念！ こちらが正しい画像です。

否定文は起きていないことを示しているのを思い出してください。",,,,,,,,,,,,,,,,,,,,,,,,,,,,,,,,,,,,,,,,,,,,,,,
,,,,,,,,,R_2qvEcle6gUufofI,2022-11-20_12h41.11.100,jpn_C01,2022.1.2,Linux x86_64,60.03121623,,,,,,,,,,,,,,,,,left,1,0.8682,,,,,,,,,,,,,,,,,,0,0,0,0,1,,,,,,,,,,,,,,,,,,,,,,,,,,,,,,,,,,,,,,,,,,
,,,,,,,,,R_2qvEcle6gUufofI,2022-11-20_12h41.11.100,jpn_C01,2022.1.2,Linux x86_64,60.03121623,,,,,,,,,,,,,,,,,,,,,,,,,0,5,5,8,1,CartoonStims/burglar_punch_artist_r.jpg,トマ　ピク　ルピン　シド,CartoonStims/burglar_point_artist_r.jpg,left,CartoonStims/burglar_punch_artist_r.jpg,audio/tomapikulupinsido.mp3,"残念！ こちらが正しい画像です。

否定文は起きていないことを示しているのを思い出してください。",,,,,,,,,,,,,,,,,,,,,,,,,,,,,,,,,,,,,,,,,,,,,,,
,,,,,,,,,R_2qvEcle6gUufofI,2022-11-20_12h41.11.100,jpn_C01,2022.1.2,Linux x86_64,60.03121623,,,,,,,,,,,,,,,,,left,1,1.8328,,,,,,,,,,,,,,,,,,0,0,0,0,1,,,,,,,,,,,,,,,,,,,,,,,,,,,,,,,,,,,,,,,,,,
,,,,,,,,,R_2qvEcle6gUufofI,2022-11-20_12h41.11.100,jpn_C01,2022.1.2,Linux x86_64,60.03121623,,,,,,,,,,,,,,,,,,,,,,,,,0,6,6,2,1,CartoonStims/doctor_point_boxer_r.jpg,ピク　プミ　ピポ　ドキ,CartoonStims/doctor_punch_boxer_r.jpg,left,CartoonStims/doctor_point_boxer_r.jpg,audio/pikupumipipodoki.mp3,"残念！ こちらが正しい画像です。

否定文は起きていないことを示しているのを思い出してください。",,,,,,,,,,,,,,,,,,,,,,,,,,,,,,,,,,,,,,,,,,,,,,,
,,,,,,,,,R_2qvEcle6gUufofI,2022-11-20_12h41.11.100,jpn_C01,2022.1.2,Linux x86_64,60.03121623,,,,,,,,,,,,,,,,,left,1,1.9391,,,,,,,,,,,,,,,,,,0,0,0,0,1,,,,,,,,,,,,,,,,,,,,,,,,,,,,,,,,,,,,,,,,,,
,,,,,,,,,R_2qvEcle6gUufofI,2022-11-20_12h41.11.100,jpn_C01,2022.1.2,Linux x86_64,60.03121623,,,,,,,,,,,,,,,,,,,,,,,,,0,7,7,4,1,CartoonStims/burglar_shoot_doctor_r.jpg,セル　ピク　ルピン　ピポ,CartoonStims/burglar_kick_doctor_r.jpg,left,CartoonStims/burglar_shoot_doctor_r.jpg,audio/serupikulupinpipo.mp3,"残念！ こちらが正しい画像です。

否定文は起きていないことを示しているのを思い出してください。",,,,,,,,,,,,,,,,,,,,,,,,,,,,,,,,,,,,,,,,,,,,,,,
,,,,,,,,,R_2qvEcle6gUufofI,2022-11-20_12h41.11.100,jpn_C01,2022.1.2,Linux x86_64,60.03121623,,,,,,,,,,,,,,,,,right,1,2.0167,0,0,0,0,1,,,,,,,,,,,,,,,,,,,,,,,,,,,,,,,,,,,,,,,,,,,,,,,,,,,,,,,,,,,
,,,,,,,,,R_2qvEcle6gUufofI,2022-11-20_12h41.11.100,jpn_C01,2022.1.2,Linux x86_64,60.03121623,,,,,,,,,,,,,,,,,,,,,,,,,0,8,8,7,1,CartoonStims/cowboy_point_chef_r.jpg,ピク　トマ　ムク　ホレト,CartoonStims/cowboy_kick_chef_r.jpg,right,CartoonStims/cowboy_kick_chef_r.jpg,audio/pikutomamukuhoreto.mp3,"残念！ こちらが正しい画像です。

否定文は起きていないことを示しているのを思い出してください。",,,,,,,,,,,,,,,,,,,,,,,,,,,,,,,,,,,,,,,,,,,,,,,
,,,,,,,,,R_2qvEcle6gUufofI,2022-11-20_12h41.11.100,jpn_C01,2022.1.2,Linux x86_64,60.03121623,,,,,,,,,,,,,,,,,left,1,2.0677,,,,,,,,,,,,,,,,,,0,0,0,0,1,,,,,,,,,,,,,,,,,,,,,,,,,,,,,,,,,,,,,,,,,,
,,,,,,,,,R_2qvEcle6gUufofI,2022-11-20_12h41.11.100,jpn_C01,2022.1.2,Linux x86_64,60.03121623,,,,,,,,,,,,,,,,,,,,,,,,,0,9,9,10,1,CartoonStims/doctor_punch_cowboy_r.jpg,ピク　パツ　ピポ　ムク,CartoonStims/doctor_shoot_cowboy_r.jpg,left,CartoonStims/doctor_punch_cowboy_r.jpg,audio/pikupatsupipomuku.mp3,"残念！ こちらが正しい画像です。

否定文は起きていないことを示しているのを思い出してください。",,,,,,,,,,,,,,,,,,,,,,,,,,,,,,,,,,,,,,,,,,,,,,,
,,,,,,,,,R_2qvEcle6gUufofI,2022-11-20_12h41.11.100,jpn_C01,2022.1.2,Linux x86_64,60.03121623,,,,,,,,,,,,,,,,,right,1,3.2698,0,0,0,0,1,,,,,,,,,,,,,,,,,,,,,,,,,,,,,,,,,,,,,,,,,,,,,,,,,,,,,,,,,,,
,,,,,,,,,R_2qvEcle6gUufofI,2022-11-20_12h41.11.100,jpn_C01,2022.1.2,Linux x86_64,60.03121623,,,,,,,,,,,,,,,,,,,,,,,,,0,10,10,5,1,CartoonStims/boxer_kick_cowboy_r.jpg,ピク　セル　ドキ　ムク,CartoonStims/boxer_punch_cowboy_r.jpg,right,CartoonStims/boxer_punch_cowboy_r.jpg,audio/pikuserudokimuku.mp3,"残念！ こちらが正しい画像です。

否定文は起きていないことを示しているのを思い出してください。",,,,,,,,,,,,,,,,,,,,,,,,,,,,,,,,,,,,,,,,,,,,,,,
,,,,,,,,,R_2qvEcle6gUufofI,2022-11-20_12h41.11.100,jpn_C01,2022.1.2,Linux x86_64,60.03121623,,,,,,,,,,,,,,,,,right,1,1.1002,0,0,0,0,1,,,,,,,,,,,,,,,,,,,,,,,,,,,,,,,,,,,,,,,,,,,,,,,,,,,,,,,,,,,
,,,,,,,,,R_2qvEcle6gUufofI,2022-11-20_12h41.11.100,jpn_C01,2022.1.2,Linux x86_64,60.03121623,,,,,,,,,,,,,,,,,,,,,,,,,0,11,11,3,1,CartoonStims/chef_kick_artist_r.jpg,ピク　セル　ホレト　シド,CartoonStims/chef_point_artist_r.jpg,right,CartoonStims/chef_point_artist_r.jpg,audio/pikuseruhoretosido.mp3,"残念！ こちらが正しい画像です。

否定文は起きていないことを示しているのを思い出してください。",,,,,,,,,,,,,,,,,,,,,,,,,,,,,,,,,,,,,,,,,,,,,,,
,,,,,,,,,R_2qvEcle6gUufofI,2022-11-20_12h41.11.100,jpn_C01,2022.1.2,Linux x86_64,60.03121623,,,,,,,,,,,,,CartoonStims/artist_punch_burglar_r.jpg,,,,,,,,,,,,,,,,,,,,,,,,,,,,,space,0.3555,ピク　ルピ　シド　ルピン,right,49.9503,,,,,,0,0,0,33,1,,,,,,,,,,,,,,,,,,,,,,,,,プミ　シド　ルピン,プミ　シド　ルピン,0
,,,,,,,,,R_2qvEcle6gUufofI,2022-11-20_12h41.11.100,jpn_C01,2022.1.2,Linux x86_64,60.03121623,,,,,,,,,,,,,CartoonStims/chef_kick_burglar_r_no.jpg,,,,,,,,,,,,,,,,,,,,,,,,,,,,,,,,right,0.1242,,,,,,0,1,1,2,1,,,,,,,,,,,,,,,,,,,,,,,,,ピク　セル　ホレト　ルピン,セル　ピク　ホレト　ルピン,1
,,,,,,,,,R_2qvEcle6gUufofI,2022-11-20_12h41.11.100,jpn_C01,2022.1.2,Linux x86_64,60.03121623,,,,,,,,,,,,,CartoonStims/doctor_shoot_artist_r_no.jpg,,,,,,,,,,,,,,,,,,,,,,,,,,,,,,,ピク　パツ　ピポ　シド,right,17.6159,,,,,,0,2,2,16,1,,,,,,,,,,,,,,,,,,,,,,,,,ピク　パツ　ピポ　シド,パツ　ピク　ピポ　シド,1
,,,,,,,,,R_2qvEcle6gUufofI,2022-11-20_12h41.11.100,jpn_C01,2022.1.2,Linux x86_64,60.03121623,,,,,,,,,,,,,CartoonStims/boxer_shoot_burglar_r_no.jpg,,,,,,,,,,,,,,,,,,,,,,,,,,,,,,,ピク　パツ　シド　ルピン,right,23.376,,,,,,0,3,3,17,1,,,,,,,,,,,,,,,,,,,,,,,,,ピク　パツ　ドキ　ルピン,パツ　ピク　ドキ　ルピン,1
,,,,,,,,,R_2qvEcle6gUufofI,2022-11-20_12h41.11.100,jpn_C01,2022.1.2,Linux x86_64,60.03121623,,,,,,,,,,,,,CartoonStims/burglar_point_artist_r.jpg,,,,,,,,,,,,,,,,,,,,,,,,,,,,,,,トマ　ルピン　シド,right,7.4179,,,,,,0,4,4,28,1,,,,,,,,,,,,,,,,,,,,,,,,,トマ　ルピン　シド,トマ　ルピン　シド,0
,,,,,,,,,R_2qvEcle6gUufofI,2022-11-20_12h41.11.100,jpn_C01,2022.1.2,Linux x86_64,60.03121623,,,,,,,,,,,,,CartoonStims/boxer_kick_cowboy_r.jpg,,,,,,,,,,,,,,,,,,,,,,,,,,,,,,,セル　ドキ　ムク,right,22.1247,,,,,,0,5,5,26,1,,,,,,,,,,,,,,,,,,,,,,,,,セル　ドキ　ムク,セル　ドキ　ムク,0
,,,,,,,,,R_2qvEcle6gUufofI,2022-11-20_12h41.11.100,jpn_C01,2022.1.2,Linux x86_64,60.03121623,,,,,,,,,,,,,CartoonStims/chef_shoot_cowboy_r.jpg,,,,,,,,,,,,,,,,,,,,,,,,,,,,,,,パツ　ホレト　シド,right,7.0018,,,,,,0,6,6,31,1,,,,,,,,,,,,,,,,,,,,,,,,,パツ　ホレト　ムク,パツ　ホレト　ムク,0
,,,,,,,,,R_2qvEcle6gUufofI,2022-11-20_12h41.11.100,jpn_C01,2022.1.2,Linux x86_64,60.03121623,,,,,,,,,,,,,CartoonStims/boxer_kick_doctor_r_no.jpg,,,,,,,,,,,,,,,,,,,,,,,,,,,,,,,ピク　セル　ドキ　ピポ,right,18.3126,,,,,,0,7,7,5,1,,,,,,,,,,,,,,,,,,,,,,,,,ピク　セル　ドキ　ピポ,セル　ピク　ドキ　ピポ,1
,,,,,,,,,R_2qvEcle6gUufofI,2022-11-20_12h41.11.100,jpn_C01,2022.1.2,Linux x86_64,60.03121623,,,,,,,,,,,,,CartoonStims/burglar_point_chef_r_no.jpg,,,,,,,,,,,,,,,,,,,,,,,,,,,,,,,トマ,right,6.4186,,,,,,0,8,8,7,1,,,,,,,,,,,,,,,,,,,,,,,,,ピク　トマ　ルピン　ホレト,トマ　ピク　ルピン　ホレト,1
,,,,,,,,,R_2qvEcle6gUufofI,2022-11-20_12h41.11.100,jpn_C01,2022.1.2,Linux x86_64,60.03121623,,,,,,,,,,,,,CartoonStims/chef_shoot_doctor_r_no.jpg,,,,,,,,,,,,,,,,,,,,,,,,,,,,,,,,right,0.1068,,,,,,0,9,9,14,1,,,,,,,,,,,,,,,,,,,,,,,,,ピク　パツ　ホレト　ピポ,パツ　ピク　ホレト　ピポ,1
,,,,,,,,,R_2qvEcle6gUufofI,2022-11-20_12h41.11.100,jpn_C01,2022.1.2,Linux x86_64,60.03121623,,,,,,,,,,,,,CartoonStims/doctor_punch_boxer_r.jpg,,,,,,,,,,,,,,,,,,,,,,,,,,,,,,,ピポ　ドキ,right,22.7172,,,,,,0,10,10,34,1,,,,,,,,,,,,,,,,,,,,,,,,,プミ　ピポ　ドキ,プミ　ピポ　ドキ,0
,,,,,,,,,R_2qvEcle6gUufofI,2022-11-20_12h41.11.100,jpn_C01,2022.1.2,Linux x86_64,60.03121623,,,,,,,,,,,,,CartoonStims/artist_shoot_chef_r_no.jpg,,,,,,,,,,,,,,,,,,,,,,,,,,,,,,,ピク　パツ　シド　ホレト,right,19.5839,,,,,,0,11,11,12,1,,,,,,,,,,,,,,,,,,,,,,,,,ピク　パツ　シド　ホレト,パツ　ピク　シド　ホレト,1
,,,,,,,,,R_2qvEcle6gUufofI,2022-11-20_12h41.11.100,jpn_C01,2022.1.2,Linux x86_64,60.03121623,,,,,,,,,,,,,CartoonStims/cowboy_shoot_boxer_r_no.jpg,,,,,,,,,,,,,,,,,,,,,,,,,,,,,,,ピク　パツ　ムク　ドキ,right,7.2436,,,,,,0,12,12,15,1,,,,,,,,,,,,,,,,,,,,,,,,,ピク　パツ　ムク　ドキ,パツ　ピク　ムク　ドキ,1
,,,,,,,,,R_2qvEcle6gUufofI,2022-11-20_12h41.11.100,jpn_C01,2022.1.2,Linux x86_64,60.03121623,,,,,,,,,,,,,CartoonStims/cowboy_point_doctor_r_no.jpg,,,,,,,,,,,,,,,,,,,,,,,,,,,,,,,トマ　ピク　ムク　ピポ,right,9.8083,,,,,,0,13,13,9,1,,,,,,,,,,,,,,,,,,,,,,,,,ピク　トマ　ムク　ピポ,トマ　ピク　ムク　ピポ,1
,,,,,,,,,R_2qvEcle6gUufofI,2022-11-20_12h41.11.100,jpn_C01,2022.1.2,Linux x86_64,60.03121623,,,,,,,,,,,,,CartoonStims/burglar_kick_artist_r_no.jpg,,,,,,,,,,,,,,,,,,,,,,,,,,,,,,,ピク　セル　ルピン　シド,right,12.3388,,,,,,0,14,14,1,1,,,,,,,,,,,,,,,,,,,,,,,,,ピク　セル　ルピン　シド,セル　ピク　ルピン　シド,1
,,,,,,,,,R_2qvEcle6gUufofI,2022-11-20_12h41.11.100,jpn_C01,2022.1.2,Linux x86_64,60.03121623,,,,,,,,,,,,,CartoonStims/burglar_shoot_cowboy_r_no.jpg,,,,,,,,,,,,,,,,,,,,,,,,,,,,,,,ピク　パツ　ルピン　ムク,right,16.622,,,,,,0,15,15,13,1,,,,,,,,,,,,,,,,,,,,,,,,,ピク　パツ　ルピン　ムク,パツ　ピク　ルピン　ムク,1
,,,,,,,,,R_2qvEcle6gUufofI,2022-11-20_12h41.11.100,jpn_C01,2022.1.2,Linux x86_64,60.03121623,,,,,,,,,,,,,CartoonStims/doctor_punch_burglar_r_no.jpg,,,,,,,,,,,,,,,,,,,,,,,,,,,,,,,ピク　ピポ　ルピン,right,18.2143,,,,,,0,16,16,22,1,,,,,,,,,,,,,,,,,,,,,,,,,ピク　プミ　ピポ　ルピン,プミ　ピク　ピポ　ルピン,1
,,,,,,,,,R_2qvEcle6gUufofI,2022-11-20_12h41.11.100,jpn_C01,2022.1.2,Linux x86_64,60.03121623,,,,,,,,,,,,,CartoonStims/cowboy_kick_chef_r_no.jpg,,,,,,,,,,,,,,,,,,,,,,,,,,,,,,,ピク　セル　ホレト,right,88.1763,,,,,,0,17,17,3,1,,,,,,,,,,,,,,,,,,,,,,,,,ピク　セル　ムク　ホレト,セル　ピク　ムク　ホレト,1
,,,,,,,,,R_2qvEcle6gUufofI,2022-11-20_12h41.11.100,jpn_C01,2022.1.2,Linux x86_64,60.03121623,,,,,,,,,,,,,CartoonStims/chef_point_burglar_r.jpg,,,,,,,,,,,,,,,,,,,,,,,,,,,,,,,トマ　ホレト　ルピン,right,7.8351,,,,,,0,18,18,29,1,,,,,,,,,,,,,,,,,,,,,,,,,トマ　ホレト　ルピン,トマ　ホレト　ルピン,0
,,,,,,,,,R_2qvEcle6gUufofI,2022-11-20_12h41.11.100,jpn_C01,2022.1.2,Linux x86_64,60.03121623,,,,,,,,,,,,,CartoonStims/boxer_punch_chef_r_no.jpg,,,,,,,,,,,,,,,,,,,,,,,,,,,,,,,ピク　ドキ　ホレト,right,14.9598,,,,,,0,19,19,23,1,,,,,,,,,,,,,,,,,,,,,,,,,ピク　プミ　ドキ　ホレト,プミ　ピク　ドキ　ホレト,1
,,,,,,,,,R_2qvEcle6gUufofI,2022-11-20_12h41.11.100,jpn_C01,2022.1.2,Linux x86_64,60.03121623,,,,,,,,,,,,,CartoonStims/cowboy_punch_artist_r_no.jpg,,,,,,,,,,,,,,,,,,,,,,,,,,,,,,,ピク　ムク　シド,right,13.8884,,,,,,0,20,20,21,1,,,,,,,,,,,,,,,,,,,,,,,,,ピク　プミ　ムク　シド,プミ　ピク　ムク　シド,1
,,,,,,,,,R_2qvEcle6gUufofI,2022-11-20_12h41.11.100,jpn_C01,2022.1.2,Linux x86_64,60.03121623,,,,,,,,,,,,,CartoonStims/cowboy_shoot_doctor_r.jpg,,,,,,,,,,,,,,,,,,,,,,,,,,,,,,,パツ　ムク　ピポ,right,5.5064,,,,,,0,21,21,32,1,,,,,,,,,,,,,,,,,,,,,,,,,パツ　ムク　ピポ,パツ　ムク　ピポ,0
,,,,,,,,,R_2qvEcle6gUufofI,2022-11-20_12h41.11.100,jpn_C01,2022.1.2,Linux x86_64,60.03121623,,,,,,,,,,,,,CartoonStims/doctor_kick_cowboy_r_no.jpg,,,,,,,,,,,,,,,,,,,,,,,,,,,,,,,ピク　セル　ピポ　ムク,right,10.224,,,,,,0,22,22,4,1,,,,,,,,,,,,,,,,,,,,,,,,,ピク　セル　ピポ　ムク,セル　ピク　ピポ　ムク,1
,,,,,,,,,R_2qvEcle6gUufofI,2022-11-20_12h41.11.100,jpn_C01,2022.1.2,Linux x86_64,60.03121623,,,,,,,,,,,,,CartoonStims/chef_punch_boxer_r_no.jpg,,,,,,,,,,,,,,,,,,,,,,,,,,,,,,,ピク　ホレト　ドキ,right,22.9659,,,,,,0,23,23,20,1,,,,,,,,,,,,,,,,,,,,,,,,,ピク　プミ　ホレト　ドキ,プミ　ピク　ホレト　ドキ,1
,,,,,,,,,R_2qvEcle6gUufofI,2022-11-20_12h41.11.100,jpn_C01,2022.1.2,Linux x86_64,60.03121623,,,,,,,,,,,,,CartoonStims/burglar_punch_doctor_r_no.jpg,,,,,,,,,,,,,,,,,,,,,,,,,,,,,,,ピク　ルピン　ピポ,right,8.7455,,,,,,0,24,24,19,1,,,,,,,,,,,,,,,,,,,,,,,,,ピク　プミ　ルピン　ピポ,プミ　ピク　ルピン　ピポ,1
,,,,,,,,,R_2qvEcle6gUufofI,2022-11-20_12h41.11.100,jpn_C01,2022.1.2,Linux x86_64,60.03121623,,,,,,,,,,,,,CartoonStims/doctor_point_boxer_r_no.jpg,,,,,,,,,,,,,,,,,,,,,,,,,,,,,,,トマ　ピク　ピポ　ドキ,right,15.9642,,,,,,0,25,25,10,1,,,,,,,,,,,,,,,,,,,,,,,,,ピク　トマ　ピポ　ドキ,トマ　ピク　ピポ　ドキ,1
,,,,,,,,,R_2qvEcle6gUufofI,2022-11-20_12h41.11.100,jpn_C01,2022.1.2,Linux x86_64,60.03121623,,,,,,,,,,,,,CartoonStims/cowboy_kick_burglar_r.jpg,,,,,,,,,,,,,,,,,,,,,,,,,,,,,,,セル　ムク　ルピン,right,4.9908,,,,,,0,26,26,24,1,,,,,,,,,,,,,,,,,,,,,,,,,セル　ムク　ルピン,セル　ムク　ルピン,0
,,,,,,,,,R_2qvEcle6gUufofI,2022-11-20_12h41.11.100,jpn_C01,2022.1.2,Linux x86_64,60.03121623,,,,,,,,,,,,,CartoonStims/artist_punch_cowboy_r_no.jpg,,,,,,,,,,,,,,,,,,,,,,,,,,,,,,,ピク　シド　ムク,right,12.9894,,,,,,0,27,27,18,1,,,,,,,,,,,,,,,,,,,,,,,,,ピク　プミ　シド　ムク,プミ　ピク　シド　ムク,1
,,,,,,,,,R_2qvEcle6gUufofI,2022-11-20_12h41.11.100,jpn_C01,2022.1.2,Linux x86_64,60.03121623,,,,,,,,,,,,,CartoonStims/boxer_punch_artist_r.jpg,,,,,,,,,,,,,,,,,,,,,,,,,,,,,,,ドキ　シド,right,10.8959,,,,,,0,28,28,35,1,,,,,,,,,,,,,,,,,,,,,,,,,プミ　ドキ　シド,プミ　ドキ　シド,0
,,,,,,,,,R_2qvEcle6gUufofI,2022-11-20_12h41.11.100,jpn_C01,2022.1.2,Linux x86_64,60.03121623,,,,,,,,,,,,,CartoonStims/artist_point_boxer_r.jpg,,,,,,,,,,,,,,,,,,,,,,,,,,,,,,,トマ　シド　ドキ,right,4.7537,,,,,,0,29,29,27,1,,,,,,,,,,,,,,,,,,,,,,,,,トマ　シド　ドキ,トマ　シド　ドキ,0
,,,,,,,,,R_2qvEcle6gUufofI,2022-11-20_12h41.11.100,jpn_C01,2022.1.2,Linux x86_64,60.03121623,,,,,,,,,,,,,CartoonStims/boxer_point_artist_r_no.jpg,,,,,,,,,,,,,,,,,,,,,,,,,,,,,,,トマ　ピク　シド　ドキ,right,5.6303,,,,,,0,30,30,11,1,,,,,,,,,,,,,,,,,,,,,,,,,ピク　トマ　ドキ　シド,トマ　ピク　ドキ　シド,1
,,,,,,,,,R_2qvEcle6gUufofI,2022-11-20_12h41.11.100,jpn_C01,2022.1.2,Linux x86_64,60.03121623,,,,,,,,,,,,,CartoonStims/burglar_shoot_chef_r.jpg,,,,,,,,,,,,,,,,,,,,,,,,,,,,,,,パツ　ルピン　ホレト,right,5.0711,,,,,,0,31,31,30,1,,,,,,,,,,,,,,,,,,,,,,,,,パツ　ルピン　ホレト,パツ　ルピン　ホレト,0
,,,,,,,,,R_2qvEcle6gUufofI,2022-11-20_12h41.11.100,jpn_C01,2022.1.2,Linux x86_64,60.03121623,,,,,,,,,,,,,CartoonStims/artist_point_burglar_r_no.jpg,,,,,,,,,,,,,,,,,,,,,,,,,,,,,,,トマ　ピク　シド　ルピン,right,5.8605,,,,,,0,32,32,6,1,,,,,,,,,,,,,,,,,,,,,,,,,ピク　トマ　シド　ルピン,トマ　ピク　シド　ルピン,1
,,,,,,,,,R_2qvEcle6gUufofI,2022-11-20_12h41.11.100,jpn_C01,2022.1.2,Linux x86_64,60.03121623,,,,,,,,,,,,,CartoonStims/artist_kick_boxer_r_no.jpg,,,,,,,,,,,,,,,,,,,,,,,,,,,,,,,ピク　セル　シド　ドキ,right,17.6855,,,,,,0,33,33,0,1,,,,,,,,,,,,,,,,,,,,,,,,,ピク　セル　シド　ドキ,セル　ピク　シド　ドキ,1
,,,,,,,,,R_2qvEcle6gUufofI,2022-11-20_12h41.11.100,jpn_C01,2022.1.2,Linux x86_64,60.03121623,,,,,,,,,,,,,CartoonStims/chef_point_cowboy_r_no.jpg,,,,,,,,,,,,,,,,,,,,,,,,,,,,,,,トマ　ピク　ホレト　シド,right,11.4504,,,,,,0,34,34,8,1,,,,,,,,,,,,,,,,,,,,,,,,,ピク　トマ　ホレト　ムク,トマ　ピク　ホレト　ムク,1
,,,,,,,,,R_2qvEcle6gUufofI,2022-11-20_12h41.11.100,jpn_C01,2022.1.2,Linux x86_64,60.03121623,,,,,,,,,,,,,CartoonStims/doctor_kick_chef_r.jpg,,,,,,,,,,,,,,,,,,,,,,,,,,,,,,,セル　ピポ　ホレト,right,13.4574,,,,,,0,35,35,25,1,,,,,,,,,,,,,,,,,,,,,,,,,セル　ピポ　ホレト,セル　ピポ　ホレト,0
,,,,,,,,,R_2qvEcle6gUufofI,2022-11-20_12h41.11.100,jpn_C01,2022.1.2,Linux x86_64,60.03121623,,,,,,,,,,,,,,,,,,,,,,,,,,,,,,,,,,,,,,,,,,,,,,,,,,,,,,,,,,,space,1.367,0,2,2,2,1,EquiprobableCondition.xlsx,"ここではこの言語における否定の文を学習していただきます。引き続き注意して、 聞こえた音を復唱してください。

スペースキーを押してください。",1,EquiFCT.xlsx,ここからクイズが始まります。 スクリーンに表示されるテキストに合うイメージを選んでください。,NegTest.xlsx,1,最後にここまで学んだことをアウトプットしていただきます。 テキストボックスにあるイメージを描写するテキストを入力してください。 このタスクでは、 答え合わせは行いません。,0,これですべての実験が終わりました。 お疲れさまです。 この後はアンケートに答えていただきます。,,,,,,,,