key_resp_instr_a.keys,key_resp_instr_a.rt,key_resp_instr_b.keys,key_resp_instr_b.rt,dummy.thisRepN,dummy.thisTrialN,dummy.thisN,dummy.thisIndex,dummy.ran,participant,date,expName,psychopyVersion,OS,frameRate,key_resp_instr1.keys,key_resp_instr1.rt,key_resp.keys,key_resp.rt,exp_loop.thisRepN,exp_loop.thisTrialN,exp_loop.thisN,exp_loop.thisIndex,exp_loop.ran,Word,English,Flip,Path,Audio,key_resp_instr2.keys,key_resp_instr2.rt,key_resp_fct.keys,key_resp_fct.corr,key_resp_fct.rt,trials.thisRepN,trials.thisTrialN,trials.thisN,trials.thisIndex,trials.ran,fct_loop.thisRepN,fct_loop.thisTrialN,fct_loop.thisN,fct_loop.thisIndex,fct_loop.ran,left_img,word,right_img,correctans,correct_img,audio,incorrect_feedback,trials_2.thisRepN,trials_2.thisTrialN,trials_2.thisN,trials_2.thisIndex,trials_2.ran,key_resp_instr3.keys,key_resp_instr3.rt,textbox.text,key_resp_2.keys,key_resp_2.rt,fb_yn.thisRepN,fb_yn.thisTrialN,fb_yn.thisN,fb_yn.thisIndex,fb_yn.ran,gather_loop.thisRepN,gather_loop.thisTrialN,gather_loop.thisN,gather_loop.thisIndex,gather_loop.ran,Text,Wordbank,key_resp_instr4.keys,key_resp_instr4.rt,master_loop.thisRepN,master_loop.thisTrialN,master_loop.thisN,master_loop.thisIndex,master_loop.ran,exposure_file,instr_1,exp_reps,fct_file,instr_2,gather_file,gather_reps,instr_3,fReps,instr_4,trials_3.thisRepN,trials_3.thisTrialN,trials_3.thisN,trials_3.thisIndex,trials_3.ran,NegVSentence,VNegSentence,NegTF
space,1.6525,space,5.4168,0,0,0,0,1,R_22Mnws3PLImqqsz,2022-07-02_18h14.19.442,jpn_C01,2022.1.2,Win32,60.12144532,,,,,,,,,,,,,,,,,,,,,,,,,,,,,,,,,,,,,,,,,,,,,,,,,,,,,,,,,,,,,,,,,,,,,,,,,,,,,,,,,,,
,,,,,,,,,R_22Mnws3PLImqqsz,2022-07-02_18h14.19.442,jpn_C01,2022.1.2,Win32,60.12144532,space,7.494,space,6.5666,0,0,0,3,1,ムク,cowboy,,CartoonStims/cowboy_r.jpg,audio/muku.mp3,,,,,,,,,,,,,,,,,,,,,,,,,,,,,,,,,,,,,,,,,,,,,,,,,,,,,,,,,,,,,,,,,,,,,
,,,,,,,,,R_22Mnws3PLImqqsz,2022-07-02_18h14.19.442,jpn_C01,2022.1.2,Win32,60.12144532,,,space,3.3646,0,1,1,4,1,ピポ,doctor,,CartoonStims/doctor_r.jpg,audio/pipo.mp3,,,,,,,,,,,,,,,,,,,,,,,,,,,,,,,,,,,,,,,,,,,,,,,,,,,,,,,,,,,,,,,,,,,,,
,,,,,,,,,R_22Mnws3PLImqqsz,2022-07-02_18h14.19.442,jpn_C01,2022.1.2,Win32,60.12144532,,,space,6.2842,0,2,2,2,1,ホレト,chef,,CartoonStims/chef_r.jpg,audio/horeto.mp3,,,,,,,,,,,,,,,,,,,,,,,,,,,,,,,,,,,,,,,,,,,,,,,,,,,,,,,,,,,,,,,,,,,,,
,,,,,,,,,R_22Mnws3PLImqqsz,2022-07-02_18h14.19.442,jpn_C01,2022.1.2,Win32,60.12144532,,,space,3.786,0,3,3,0,1,シド,artist,,CartoonStims/artist_r.jpg,audio/sido.mp3,,,,,,,,,,,,,,,,,,,,,,,,,,,,,,,,,,,,,,,,,,,,,,,,,,,,,,,,,,,,,,,,,,,,,
,,,,,,,,,R_22Mnws3PLImqqsz,2022-07-02_18h14.19.442,jpn_C01,2022.1.2,Win32,60.12144532,,,space,4.0651,0,4,4,5,1,ドキ,boxer,,CartoonStims/boxer_r.jpg,audio/doki.mp3,,,,,,,,,,,,,,,,,,,,,,,,,,,,,,,,,,,,,,,,,,,,,,,,,,,,,,,,,,,,,,,,,,,,,
,,,,,,,,,R_22Mnws3PLImqqsz,2022-07-02_18h14.19.442,jpn_C01,2022.1.2,Win32,60.12144532,,,space,3.6648,0,5,5,1,1,ルピン,burglar,,CartoonStims/burglar_r.jpg,audio/lupin.mp3,,,,,,,,,,,,,,,,,,,,,,,,,,,,,,,,,,,,,,,,,,,,,,,,,,,,,,,,,,,,,,,,,,,,,
,,,,,,,,,R_22Mnws3PLImqqsz,2022-07-02_18h14.19.442,jpn_C01,2022.1.2,Win32,60.12144532,,,space,3.4682,1,0,6,0,1,シド,artist,,CartoonStims/artist_r.jpg,audio/sido.mp3,,,,,,,,,,,,,,,,,,,,,,,,,,,,,,,,,,,,,,,,,,,,,,,,,,,,,,,,,,,,,,,,,,,,,
,,,,,,,,,R_22Mnws3PLImqqsz,2022-07-02_18h14.19.442,jpn_C01,2022.1.2,Win32,60.12144532,,,space,4.1871,1,1,7,2,1,ホレト,chef,,CartoonStims/chef_r.jpg,audio/horeto.mp3,,,,,,,,,,,,,,,,,,,,,,,,,,,,,,,,,,,,,,,,,,,,,,,,,,,,,,,,,,,,,,,,,,,,,
,,,,,,,,,R_22Mnws3PLImqqsz,2022-07-02_18h14.19.442,jpn_C01,2022.1.2,Win32,60.12144532,,,space,3.6143,1,2,8,3,1,ムク,cowboy,,CartoonStims/cowboy_r.jpg,audio/muku.mp3,,,,,,,,,,,,,,,,,,,,,,,,,,,,,,,,,,,,,,,,,,,,,,,,,,,,,,,,,,,,,,,,,,,,,
,,,,,,,,,R_22Mnws3PLImqqsz,2022-07-02_18h14.19.442,jpn_C01,2022.1.2,Win32,60.12144532,,,space,4.6963,1,3,9,4,1,ピポ,doctor,,CartoonStims/doctor_r.jpg,audio/pipo.mp3,,,,,,,,,,,,,,,,,,,,,,,,,,,,,,,,,,,,,,,,,,,,,,,,,,,,,,,,,,,,,,,,,,,,,
,,,,,,,,,R_22Mnws3PLImqqsz,2022-07-02_18h14.19.442,jpn_C01,2022.1.2,Win32,60.12144532,,,space,4.0982,1,4,10,5,1,ドキ,boxer,,CartoonStims/boxer_r.jpg,audio/doki.mp3,,,,,,,,,,,,,,,,,,,,,,,,,,,,,,,,,,,,,,,,,,,,,,,,,,,,,,,,,,,,,,,,,,,,,
,,,,,,,,,R_22Mnws3PLImqqsz,2022-07-02_18h14.19.442,jpn_C01,2022.1.2,Win32,60.12144532,,,space,2.5358,1,5,11,1,1,ルピン,burglar,,CartoonStims/burglar_r.jpg,audio/lupin.mp3,,,,,,,,,,,,,,,,,,,,,,,,,,,,,,,,,,,,,,,,,,,,,,,,,,,,,,,,,,,,,,,,,,,,,
,,,,,,,,,R_22Mnws3PLImqqsz,2022-07-02_18h14.19.442,jpn_C01,2022.1.2,Win32,60.12144532,,,space,2.6358,2,0,12,5,1,ドキ,boxer,,CartoonStims/boxer_r.jpg,audio/doki.mp3,,,,,,,,,,,,,,,,,,,,,,,,,,,,,,,,,,,,,,,,,,,,,,,,,,,,,,,,,,,,,,,,,,,,,
,,,,,,,,,R_22Mnws3PLImqqsz,2022-07-02_18h14.19.442,jpn_C01,2022.1.2,Win32,60.12144532,,,space,4.2526,2,1,13,0,1,シド,artist,,CartoonStims/artist_r.jpg,audio/sido.mp3,,,,,,,,,,,,,,,,,,,,,,,,,,,,,,,,,,,,,,,,,,,,,,,,,,,,,,,,,,,,,,,,,,,,,
,,,,,,,,,R_22Mnws3PLImqqsz,2022-07-02_18h14.19.442,jpn_C01,2022.1.2,Win32,60.12144532,,,space,3.3482,2,2,14,3,1,ムク,cowboy,,CartoonStims/cowboy_r.jpg,audio/muku.mp3,,,,,,,,,,,,,,,,,,,,,,,,,,,,,,,,,,,,,,,,,,,,,,,,,,,,,,,,,,,,,,,,,,,,,
,,,,,,,,,R_22Mnws3PLImqqsz,2022-07-02_18h14.19.442,jpn_C01,2022.1.2,Win32,60.12144532,,,space,1.7711,2,3,15,1,1,ルピン,burglar,,CartoonStims/burglar_r.jpg,audio/lupin.mp3,,,,,,,,,,,,,,,,,,,,,,,,,,,,,,,,,,,,,,,,,,,,,,,,,,,,,,,,,,,,,,,,,,,,,
,,,,,,,,,R_22Mnws3PLImqqsz,2022-07-02_18h14.19.442,jpn_C01,2022.1.2,Win32,60.12144532,,,space,2.1496,2,4,16,4,1,ピポ,doctor,,CartoonStims/doctor_r.jpg,audio/pipo.mp3,,,,,,,,,,,,,,,,,,,,,,,,,,,,,,,,,,,,,,,,,,,,,,,,,,,,,,,,,,,,,,,,,,,,,
,,,,,,,,,R_22Mnws3PLImqqsz,2022-07-02_18h14.19.442,jpn_C01,2022.1.2,Win32,60.12144532,,,space,3.247,2,5,17,2,1,ホレト,chef,,CartoonStims/chef_r.jpg,audio/horeto.mp3,,,,,,,,,,,,,,,,,,,,,,,,,,,,,,,,,,,,,,,,,,,,,,,,,,,,,,,,,,,,,,,,,,,,,
,,,,,,,,,R_22Mnws3PLImqqsz,2022-07-02_18h14.19.442,jpn_C01,2022.1.2,Win32,60.12144532,,,,,,,,,,,,,,,space,3.7009,left,1,1.1365,0,0,0,0,1,,,,,,,,,,,,,,,,,,,,,,,,,,,,,,,,,,,,,,,,,,,,,,,,,,,,,,,,,,,
,,,,,,,,,R_22Mnws3PLImqqsz,2022-07-02_18h14.19.442,jpn_C01,2022.1.2,Win32,60.12144532,,,,,,,,,,,,,,,,,,,,,,,,,0,0,0,2,1,CartoonStims/chef_r.jpg,ホレト,CartoonStims/cowboy_r.jpg,left,CartoonStims/chef_r.jpg,audio/horeto.mp3,残念！ こちらが正しい画像です。,,,,,,,,,,,,,,,,,,,,,,,,,,,,,,,,,,,,,,,,,,,,,,,
,,,,,,,,,R_22Mnws3PLImqqsz,2022-07-02_18h14.19.442,jpn_C01,2022.1.2,Win32,60.12144532,,,,,,,,,,,,,,,,,right,1,0.7006,,,,,,,,,,,,,,,,,,0,0,0,0,1,,,,,,,,,,,,,,,,,,,,,,,,,,,,,,,,,,,,,,,,,,
,,,,,,,,,R_22Mnws3PLImqqsz,2022-07-02_18h14.19.442,jpn_C01,2022.1.2,Win32,60.12144532,,,,,,,,,,,,,,,,,,,,,,,,,0,1,1,7,1,CartoonStims/cowboy_r.jpg,ルピン,CartoonStims/burglar_r.jpg,right,CartoonStims/burglar_r.jpg,audio/lupin.mp3,残念！ こちらが正しい画像です。,,,,,,,,,,,,,,,,,,,,,,,,,,,,,,,,,,,,,,,,,,,,,,,
,,,,,,,,,R_22Mnws3PLImqqsz,2022-07-02_18h14.19.442,jpn_C01,2022.1.2,Win32,60.12144532,,,,,,,,,,,,,,,,,right,1,0.5994,,,,,,,,,,,,,,,,,,0,0,0,0,1,,,,,,,,,,,,,,,,,,,,,,,,,,,,,,,,,,,,,,,,,,
,,,,,,,,,R_22Mnws3PLImqqsz,2022-07-02_18h14.19.442,jpn_C01,2022.1.2,Win32,60.12144532,,,,,,,,,,,,,,,,,,,,,,,,,0,2,2,11,1,CartoonStims/burglar_r.jpg,ドキ,CartoonStims/boxer_r.jpg,right,CartoonStims/boxer_r.jpg,audio/doki.mp3,残念！ こちらが正しい画像です。,,,,,,,,,,,,,,,,,,,,,,,,,,,,,,,,,,,,,,,,,,,,,,,
,,,,,,,,,R_22Mnws3PLImqqsz,2022-07-02_18h14.19.442,jpn_C01,2022.1.2,Win32,60.12144532,,,,,,,,,,,,,,,,,left,1,0.6494,0,0,0,0,1,,,,,,,,,,,,,,,,,,,,,,,,,,,,,,,,,,,,,,,,,,,,,,,,,,,,,,,,,,,
,,,,,,,,,R_22Mnws3PLImqqsz,2022-07-02_18h14.19.442,jpn_C01,2022.1.2,Win32,60.12144532,,,,,,,,,,,,,,,,,,,,,,,,,0,3,3,5,1,CartoonStims/boxer_r.jpg,ドキ,CartoonStims/artist_r.jpg,left,CartoonStims/boxer_r.jpg,audio/doki.mp3,残念！ こちらが正しい画像です。,,,,,,,,,,,,,,,,,,,,,,,,,,,,,,,,,,,,,,,,,,,,,,,
,,,,,,,,,R_22Mnws3PLImqqsz,2022-07-02_18h14.19.442,jpn_C01,2022.1.2,Win32,60.12144532,,,,,,,,,,,,,,,,,right,1,0.8664,,,,,,,,,,,,,,,,,,0,0,0,0,1,,,,,,,,,,,,,,,,,,,,,,,,,,,,,,,,,,,,,,,,,,
,,,,,,,,,R_22Mnws3PLImqqsz,2022-07-02_18h14.19.442,jpn_C01,2022.1.2,Win32,60.12144532,,,,,,,,,,,,,,,,,,,,,,,,,0,4,4,9,1,CartoonStims/boxer_r.jpg,ムク,CartoonStims/cowboy_r.jpg,right,CartoonStims/cowboy_r.jpg,audio/muku.mp3,残念！ こちらが正しい画像です。,,,,,,,,,,,,,,,,,,,,,,,,,,,,,,,,,,,,,,,,,,,,,,,
,,,,,,,,,R_22Mnws3PLImqqsz,2022-07-02_18h14.19.442,jpn_C01,2022.1.2,Win32,60.12144532,,,,,,,,,,,,,,,,,left,1,0.6328,0,0,0,0,1,,,,,,,,,,,,,,,,,,,,,,,,,,,,,,,,,,,,,,,,,,,,,,,,,,,,,,,,,,,
,,,,,,,,,R_22Mnws3PLImqqsz,2022-07-02_18h14.19.442,jpn_C01,2022.1.2,Win32,60.12144532,,,,,,,,,,,,,,,,,,,,,,,,,0,5,5,3,1,CartoonStims/cowboy_r.jpg,ムク,CartoonStims/doctor_r.jpg,left,CartoonStims/cowboy_r.jpg,audio/muku.mp3,残念！ こちらが正しい画像です。,,,,,,,,,,,,,,,,,,,,,,,,,,,,,,,,,,,,,,,,,,,,,,,
,,,,,,,,,R_22Mnws3PLImqqsz,2022-07-02_18h14.19.442,jpn_C01,2022.1.2,Win32,60.12144532,,,,,,,,,,,,,,,,,right,1,1.0518,,,,,,,,,,,,,,,,,,0,0,0,0,1,,,,,,,,,,,,,,,,,,,,,,,,,,,,,,,,,,,,,,,,,,
,,,,,,,,,R_22Mnws3PLImqqsz,2022-07-02_18h14.19.442,jpn_C01,2022.1.2,Win32,60.12144532,,,,,,,,,,,,,,,,,,,,,,,,,0,6,6,8,1,CartoonStims/doctor_r.jpg,ホレト,CartoonStims/chef_r.jpg,right,CartoonStims/chef_r.jpg,audio/horeto.mp3,残念！ こちらが正しい画像です。,,,,,,,,,,,,,,,,,,,,,,,,,,,,,,,,,,,,,,,,,,,,,,,
,,,,,,,,,R_22Mnws3PLImqqsz,2022-07-02_18h14.19.442,jpn_C01,2022.1.2,Win32,60.12144532,,,,,,,,,,,,,,,,,left,1,0.6827,0,0,0,0,1,,,,,,,,,,,,,,,,,,,,,,,,,,,,,,,,,,,,,,,,,,,,,,,,,,,,,,,,,,,
,,,,,,,,,R_22Mnws3PLImqqsz,2022-07-02_18h14.19.442,jpn_C01,2022.1.2,Win32,60.12144532,,,,,,,,,,,,,,,,,,,,,,,,,0,7,7,4,1,CartoonStims/doctor_r.jpg,ピポ,CartoonStims/boxer_r.jpg,left,CartoonStims/doctor_r.jpg,audio/pipo.mp3,残念！ こちらが正しい画像です。,,,,,,,,,,,,,,,,,,,,,,,,,,,,,,,,,,,,,,,,,,,,,,,
,,,,,,,,,R_22Mnws3PLImqqsz,2022-07-02_18h14.19.442,jpn_C01,2022.1.2,Win32,60.12144532,,,,,,,,,,,,,,,,,left,1,0.6012,0,0,0,0,1,,,,,,,,,,,,,,,,,,,,,,,,,,,,,,,,,,,,,,,,,,,,,,,,,,,,,,,,,,,
,,,,,,,,,R_22Mnws3PLImqqsz,2022-07-02_18h14.19.442,jpn_C01,2022.1.2,Win32,60.12144532,,,,,,,,,,,,,,,,,,,,,,,,,0,8,8,1,1,CartoonStims/burglar_r.jpg,ルピン,CartoonStims/chef_r.jpg,left,CartoonStims/burglar_r.jpg,audio/lupin.mp3,残念！ こちらが正しい画像です。,,,,,,,,,,,,,,,,,,,,,,,,,,,,,,,,,,,,,,,,,,,,,,,
,,,,,,,,,R_22Mnws3PLImqqsz,2022-07-02_18h14.19.442,jpn_C01,2022.1.2,Win32,60.12144532,,,,,,,,,,,,,,,,,right,1,1.1001,,,,,,,,,,,,,,,,,,0,0,0,0,1,,,,,,,,,,,,,,,,,,,,,,,,,,,,,,,,,,,,,,,,,,
,,,,,,,,,R_22Mnws3PLImqqsz,2022-07-02_18h14.19.442,jpn_C01,2022.1.2,Win32,60.12144532,,,,,,,,,,,,,,,,,,,,,,,,,0,9,9,6,1,CartoonStims/chef_r.jpg,シド,CartoonStims/artist_r.jpg,right,CartoonStims/artist_r.jpg,audio/sido.mp3,残念！ こちらが正しい画像です。,,,,,,,,,,,,,,,,,,,,,,,,,,,,,,,,,,,,,,,,,,,,,,,
,,,,,,,,,R_22Mnws3PLImqqsz,2022-07-02_18h14.19.442,jpn_C01,2022.1.2,Win32,60.12144532,,,,,,,,,,,,,,,,,left,1,0.7339,0,0,0,0,1,,,,,,,,,,,,,,,,,,,,,,,,,,,,,,,,,,,,,,,,,,,,,,,,,,,,,,,,,,,
,,,,,,,,,R_22Mnws3PLImqqsz,2022-07-02_18h14.19.442,jpn_C01,2022.1.2,Win32,60.12144532,,,,,,,,,,,,,,,,,,,,,,,,,0,10,10,0,1,CartoonStims/artist_r.jpg,シド,CartoonStims/burglar_r.jpg,left,CartoonStims/artist_r.jpg,audio/sido.mp3,残念！ こちらが正しい画像です。,,,,,,,,,,,,,,,,,,,,,,,,,,,,,,,,,,,,,,,,,,,,,,,
,,,,,,,,,R_22Mnws3PLImqqsz,2022-07-02_18h14.19.442,jpn_C01,2022.1.2,Win32,60.12144532,,,,,,,,,,,,,,,,,right,1,0.75,,,,,,,,,,,,,,,,,,0,0,0,0,1,,,,,,,,,,,,,,,,,,,,,,,,,,,,,,,,,,,,,,,,,,
,,,,,,,,,R_22Mnws3PLImqqsz,2022-07-02_18h14.19.442,jpn_C01,2022.1.2,Win32,60.12144532,,,,,,,,,,,,,,,,,,,,,,,,,0,11,11,10,1,CartoonStims/artist_r.jpg,ピポ,CartoonStims/doctor_r.jpg,right,CartoonStims/doctor_r.jpg,audio/pipo.mp3,残念！ こちらが正しい画像です。,,,,,,,,,,,,,,,,,,,,,,,,,,,,,,,,,,,,,,,,,,,,,,,
,,,,,,,,,R_22Mnws3PLImqqsz,2022-07-02_18h14.19.442,jpn_C01,2022.1.2,Win32,60.12144532,,,,,,,,,,,,,,,,,,,,,,,,,,,,,,,,,,,,,,,,,,space,4.7309,ホレト,right,10.6816,0,0,0,0,1,,,,,,,,,,,,,,,,,,,,,,,,,,,,,,,,
,,,,,,,,,R_22Mnws3PLImqqsz,2022-07-02_18h14.19.442,jpn_C01,2022.1.2,Win32,60.12144532,,,,,,,,,,,,,CartoonStims/chef_r.jpg,audio/horeto.mp3,,,,,,,,,,,,,,,,,,,,,,,,,,,,,,,,,,,,,,0,0,0,2,1,ホレト,,,,,,,,,,,,,,,,,,,,,,,,,,
,,,,,,,,,R_22Mnws3PLImqqsz,2022-07-02_18h14.19.442,jpn_C01,2022.1.2,Win32,60.12144532,,,,,,,,,,,,,,,,,,,,,,,,,,,,,,,,,,,,,,,,,,,,ドキ,right,5.4586,0,0,0,0,1,,,,,,,,,,,,,,,,,,,,,,,,,,,,,,,,
,,,,,,,,,R_22Mnws3PLImqqsz,2022-07-02_18h14.19.442,jpn_C01,2022.1.2,Win32,60.12144532,,,,,,,,,,,,,CartoonStims/boxer_r.jpg,audio/doki.mp3,,,,,,,,,,,,,,,,,,,,,,,,,,,,,,,,,,,,,,0,1,1,5,1,ドキ,,,,,,,,,,,,,,,,,,,,,,,,,,
,,,,,,,,,R_22Mnws3PLImqqsz,2022-07-02_18h14.19.442,jpn_C01,2022.1.2,Win32,60.12144532,,,,,,,,,,,,,,,,,,,,,,,,,,,,,,,,,,,,,,,,,,,,シド,right,6.5774,0,0,0,0,1,,,,,,,,,,,,,,,,,,,,,,,,,,,,,,,,
,,,,,,,,,R_22Mnws3PLImqqsz,2022-07-02_18h14.19.442,jpn_C01,2022.1.2,Win32,60.12144532,,,,,,,,,,,,,CartoonStims/artist_r.jpg,audio/sido.mp3,,,,,,,,,,,,,,,,,,,,,,,,,,,,,,,,,,,,,,0,2,2,0,1,シド,,,,,,,,,,,,,,,,,,,,,,,,,,
,,,,,,,,,R_22Mnws3PLImqqsz,2022-07-02_18h14.19.442,jpn_C01,2022.1.2,Win32,60.12144532,,,,,,,,,,,,,,,,,,,,,,,,,,,,,,,,,,,,,,,,,,,,ルピン,right,4.7429,0,0,0,0,1,,,,,,,,,,,,,,,,,,,,,,,,,,,,,,,,
,,,,,,,,,R_22Mnws3PLImqqsz,2022-07-02_18h14.19.442,jpn_C01,2022.1.2,Win32,60.12144532,,,,,,,,,,,,,CartoonStims/burglar_r.jpg,audio/lupin.mp3,,,,,,,,,,,,,,,,,,,,,,,,,,,,,,,,,,,,,,0,3,3,1,1,ルピン,,,,,,,,,,,,,,,,,,,,,,,,,,
,,,,,,,,,R_22Mnws3PLImqqsz,2022-07-02_18h14.19.442,jpn_C01,2022.1.2,Win32,60.12144532,,,,,,,,,,,,,,,,,,,,,,,,,,,,,,,,,,,,,,,,,,,,ピポ,right,3.5457,0,0,0,0,1,,,,,,,,,,,,,,,,,,,,,,,,,,,,,,,,
,,,,,,,,,R_22Mnws3PLImqqsz,2022-07-02_18h14.19.442,jpn_C01,2022.1.2,Win32,60.12144532,,,,,,,,,,,,,CartoonStims/doctor_r.jpg,audio/pipo.mp3,,,,,,,,,,,,,,,,,,,,,,,,,,,,,,,,,,,,,,0,4,4,4,1,ピポ,,,,,,,,,,,,,,,,,,,,,,,,,,
,,,,,,,,,R_22Mnws3PLImqqsz,2022-07-02_18h14.19.442,jpn_C01,2022.1.2,Win32,60.12144532,,,,,,,,,,,,,,,,,,,,,,,,,,,,,,,,,,,,,,,,,,,,ムク,right,3.7092,0,0,0,0,1,,,,,,,,,,,,,,,,,,,,,,,,,,,,,,,,
,,,,,,,,,R_22Mnws3PLImqqsz,2022-07-02_18h14.19.442,jpn_C01,2022.1.2,Win32,60.12144532,,,,,,,,,,,,,CartoonStims/cowboy_r.jpg,audio/muku.mp3,,,,,,,,,,,,,,,,,,,,,,,,,,,,,,,,,,,,,,0,5,5,3,1,ムク,,,,,,,,,,,,,,,,,,,,,,,,,,
,,,,,,,,,R_22Mnws3PLImqqsz,2022-07-02_18h14.19.442,jpn_C01,2022.1.2,Win32,60.12144532,,,,,,,,,,,,,,,,,,,,,,,,,,,,,,,,,,,,,,,,,,,,シド,right,4.1649,0,0,0,0,1,,,,,,,,,,,,,,,,,,,,,,,,,,,,,,,,
,,,,,,,,,R_22Mnws3PLImqqsz,2022-07-02_18h14.19.442,jpn_C01,2022.1.2,Win32,60.12144532,,,,,,,,,,,,,CartoonStims/artist_r.jpg,audio/sido.mp3,,,,,,,,,,,,,,,,,,,,,,,,,,,,,,,,,,,,,,1,0,6,0,1,シド,,,,,,,,,,,,,,,,,,,,,,,,,,
,,,,,,,,,R_22Mnws3PLImqqsz,2022-07-02_18h14.19.442,jpn_C01,2022.1.2,Win32,60.12144532,,,,,,,,,,,,,,,,,,,,,,,,,,,,,,,,,,,,,,,,,,,,ルピン,right,5.1839,0,0,0,0,1,,,,,,,,,,,,,,,,,,,,,,,,,,,,,,,,
,,,,,,,,,R_22Mnws3PLImqqsz,2022-07-02_18h14.19.442,jpn_C01,2022.1.2,Win32,60.12144532,,,,,,,,,,,,,CartoonStims/burglar_r.jpg,audio/lupin.mp3,,,,,,,,,,,,,,,,,,,,,,,,,,,,,,,,,,,,,,1,1,7,1,1,ルピン,,,,,,,,,,,,,,,,,,,,,,,,,,
,,,,,,,,,R_22Mnws3PLImqqsz,2022-07-02_18h14.19.442,jpn_C01,2022.1.2,Win32,60.12144532,,,,,,,,,,,,,,,,,,,,,,,,,,,,,,,,,,,,,,,,,,,,ドキ,right,3.2807,0,0,0,0,1,,,,,,,,,,,,,,,,,,,,,,,,,,,,,,,,
,,,,,,,,,R_22Mnws3PLImqqsz,2022-07-02_18h14.19.442,jpn_C01,2022.1.2,Win32,60.12144532,,,,,,,,,,,,,CartoonStims/boxer_r.jpg,audio/doki.mp3,,,,,,,,,,,,,,,,,,,,,,,,,,,,,,,,,,,,,,1,2,8,5,1,ドキ,,,,,,,,,,,,,,,,,,,,,,,,,,
,,,,,,,,,R_22Mnws3PLImqqsz,2022-07-02_18h14.19.442,jpn_C01,2022.1.2,Win32,60.12144532,,,,,,,,,,,,,,,,,,,,,,,,,,,,,,,,,,,,,,,,,,,,ホレト,right,3.9098,0,0,0,0,1,,,,,,,,,,,,,,,,,,,,,,,,,,,,,,,,
,,,,,,,,,R_22Mnws3PLImqqsz,2022-07-02_18h14.19.442,jpn_C01,2022.1.2,Win32,60.12144532,,,,,,,,,,,,,CartoonStims/chef_r.jpg,audio/horeto.mp3,,,,,,,,,,,,,,,,,,,,,,,,,,,,,,,,,,,,,,1,3,9,2,1,ホレト,,,,,,,,,,,,,,,,,,,,,,,,,,
,,,,,,,,,R_22Mnws3PLImqqsz,2022-07-02_18h14.19.442,jpn_C01,2022.1.2,Win32,60.12144532,,,,,,,,,,,,,,,,,,,,,,,,,,,,,,,,,,,,,,,,,,,,ムク,right,5.3876,0,0,0,0,1,,,,,,,,,,,,,,,,,,,,,,,,,,,,,,,,
,,,,,,,,,R_22Mnws3PLImqqsz,2022-07-02_18h14.19.442,jpn_C01,2022.1.2,Win32,60.12144532,,,,,,,,,,,,,CartoonStims/cowboy_r.jpg,audio/muku.mp3,,,,,,,,,,,,,,,,,,,,,,,,,,,,,,,,,,,,,,1,4,10,3,1,ムク,,,,,,,,,,,,,,,,,,,,,,,,,,
,,,,,,,,,R_22Mnws3PLImqqsz,2022-07-02_18h14.19.442,jpn_C01,2022.1.2,Win32,60.12144532,,,,,,,,,,,,,,,,,,,,,,,,,,,,,,,,,,,,,,,,,,,,ピポ,right,3.7196,0,0,0,0,1,,,,,,,,,,,,,,,,,,,,,,,,,,,,,,,,
,,,,,,,,,R_22Mnws3PLImqqsz,2022-07-02_18h14.19.442,jpn_C01,2022.1.2,Win32,60.12144532,,,,,,,,,,,,,CartoonStims/doctor_r.jpg,audio/pipo.mp3,,,,,,,,,,,,,,,,,,,,,,,,,,,,,,,,,,,,,,1,5,11,4,1,ピポ,,,,,,,,,,,,,,,,,,,,,,,,,,
,,,,,,,,,R_22Mnws3PLImqqsz,2022-07-02_18h14.19.442,jpn_C01,2022.1.2,Win32,60.12144532,,,,,,,,,,,,,,,,,,,,,,,,,,,,,,,,,,,,,,,,,,,,,,,,,,,,,,,,,,,space,2.5149,0,0,0,0,1,NounExposure.xlsx,"最初のトライアルでは、 画像が表示され、 その画像の下に単語が出てきます。 またこの単語の音も聞くことができます。 この音を大きな声で復唱してください。 そしてこの画像がどのような単語を示しているのか, 考えてみてください。 その後、 続きのボタンを押すと次の単語の学習が始まります。

スペースキーを押して、学習を始めましょう。",3,NounFCT.xlsx,ここから語彙のクイズが始まります。スクリーンに表示される単語に合う画像をキーボードの右と左の矢印キーを使って選択してください。,NounTest.xlsx,2,次に、これまで学習してきたことをアウトプットしていただきます。 表示される画像を描写していると思う単語を、テキストボックスにタイプしてください。,1,"ここまでが最初のトライアルです。ここで休憩をとっても構いません。

休憩が済みましたら、スペースキーを押して続きを始めましょう。",,,,,,,,
,,,,,,,,,R_22Mnws3PLImqqsz,2022-07-02_18h14.19.442,jpn_C01,2022.1.2,Win32,60.12144532,space,6.615,space,14.854,0,0,0,30,1,パツ　ムク　シド,,,CartoonStims/cowboy_shoot_artist_r.jpg,audio/patsumukusido.mp3,,,,,,,,,,,,,,,,,,,,,,,,,,,,,,,,,,,,,,,,,,,,,,,,,,,,,,,,,,,,,,,,,,,,,
,,,,,,,,,R_22Mnws3PLImqqsz,2022-07-02_18h14.19.442,jpn_C01,2022.1.2,Win32,60.12144532,,,space,3.5642,0,1,1,18,1,トマ　ムク　ドキ,,,CartoonStims/cowboy_point_boxer_r.jpg,audio/tomamukudoki.mp3,,,,,,,,,,,,,,,,,,,,,,,,,,,,,,,,,,,,,,,,,,,,,,,,,,,,,,,,,,,,,,,,,,,,,
,,,,,,,,,R_22Mnws3PLImqqsz,2022-07-02_18h14.19.442,jpn_C01,2022.1.2,Win32,60.12144532,,,space,4.4298,0,2,2,42,1,プミ　ムク　ルピン,,,CartoonStims/cowboy_punch_burglar_r.jpg,audio/pumimukulupin.mp3,,,,,,,,,,,,,,,,,,,,,,,,,,,,,,,,,,,,,,,,,,,,,,,,,,,,,,,,,,,,,,,,,,,,,
,,,,,,,,,R_22Mnws3PLImqqsz,2022-07-02_18h14.19.442,jpn_C01,2022.1.2,Win32,60.12144532,,,space,3.5659,0,3,3,20,1,トマ　ピポ　シド,,,CartoonStims/doctor_point_artist_r.jpg,audio/tomapiposido.mp3,,,,,,,,,,,,,,,,,,,,,,,,,,,,,,,,,,,,,,,,,,,,,,,,,,,,,,,,,,,,,,,,,,,,,
,,,,,,,,,R_22Mnws3PLImqqsz,2022-07-02_18h14.19.442,jpn_C01,2022.1.2,Win32,60.12144532,,,space,3.5647,0,4,4,16,1,トマ　ホレト　ピポ,,,CartoonStims/chef_point_doctor_r.jpg,audio/tomahoretopipo.mp3,,,,,,,,,,,,,,,,,,,,,,,,,,,,,,,,,,,,,,,,,,,,,,,,,,,,,,,,,,,,,,,,,,,,,
,,,,,,,,,R_22Mnws3PLImqqsz,2022-07-02_18h14.19.442,jpn_C01,2022.1.2,Win32,60.12144532,,,space,3.8486,0,5,5,9,1,セル　ピポ　シド,,,CartoonStims/doctor_kick_artist_r.jpg,audio/serupiposido.mp3,,,,,,,,,,,,,,,,,,,,,,,,,,,,,,,,,,,,,,,,,,,,,,,,,,,,,,,,,,,,,,,,,,,,,
,,,,,,,,,R_22Mnws3PLImqqsz,2022-07-02_18h14.19.442,jpn_C01,2022.1.2,Win32,60.12144532,,,space,3.9166,0,6,6,24,1,パツ　シド　ムク,,,CartoonStims/artist_shoot_cowboy_r.jpg,audio/patsusidomuku.mp3,,,,,,,,,,,,,,,,,,,,,,,,,,,,,,,,,,,,,,,,,,,,,,,,,,,,,,,,,,,,,,,,,,,,,
,,,,,,,,,R_22Mnws3PLImqqsz,2022-07-02_18h14.19.442,jpn_C01,2022.1.2,Win32,60.12144532,,,space,5.1793,0,7,7,1,1,セル 　シド 　ホレト,,,CartoonStims/artist_kick_chef_r.jpg,audio/serusidohoreto.mp3,,,,,,,,,,,,,,,,,,,,,,,,,,,,,,,,,,,,,,,,,,,,,,,,,,,,,,,,,,,,,,,,,,,,,
,,,,,,,,,R_22Mnws3PLImqqsz,2022-07-02_18h14.19.442,jpn_C01,2022.1.2,Win32,60.12144532,,,space,3.4311,0,8,8,4,1,セル　ホレト　ムク,,,CartoonStims/chef_kick_cowboy_r.jpg,audio/seruhoretomuku.mp3,,,,,,,,,,,,,,,,,,,,,,,,,,,,,,,,,,,,,,,,,,,,,,,,,,,,,,,,,,,,,,,,,,,,,
,,,,,,,,,R_22Mnws3PLImqqsz,2022-07-02_18h14.19.442,jpn_C01,2022.1.2,Win32,60.12144532,,,space,3.198,0,9,9,12,1,トマ　シド　ホレト,,,CartoonStims/artist_point_chef_r.jpg,audio/tomasidohoreto.mp3,,,,,,,,,,,,,,,,,,,,,,,,,,,,,,,,,,,,,,,,,,,,,,,,,,,,,,,,,,,,,,,,,,,,,
,,,,,,,,,R_22Mnws3PLImqqsz,2022-07-02_18h14.19.442,jpn_C01,2022.1.2,Win32,60.12144532,,,space,3.2998,0,10,10,17,1,トマ　ホレト　ドキ,,,CartoonStims/chef_point_boxer_r.jpg,audio/tomahoretodoki.mp3,,,,,,,,,,,,,,,,,,,,,,,,,,,,,,,,,,,,,,,,,,,,,,,,,,,,,,,,,,,,,,,,,,,,,
,,,,,,,,,R_22Mnws3PLImqqsz,2022-07-02_18h14.19.442,jpn_C01,2022.1.2,Win32,60.12144532,,,space,4.2827,0,11,11,38,1,プミ　ルピン　ドキ,,,CartoonStims/burglar_punch_boxer_r.jpg,audio/pumilupindoki.mp3,,,,,,,,,,,,,,,,,,,,,,,,,,,,,,,,,,,,,,,,,,,,,,,,,,,,,,,,,,,,,,,,,,,,,
,,,,,,,,,R_22Mnws3PLImqqsz,2022-07-02_18h14.19.442,jpn_C01,2022.1.2,Win32,60.12144532,,,space,2.8146,0,12,12,6,1,セル　ムク　ピポ,,,CartoonStims/cowboy_kick_doctor_r.jpg,audio/serumukupipo.mp3,,,,,,,,,,,,,,,,,,,,,,,,,,,,,,,,,,,,,,,,,,,,,,,,,,,,,,,,,,,,,,,,,,,,,
,,,,,,,,,R_22Mnws3PLImqqsz,2022-07-02_18h14.19.442,jpn_C01,2022.1.2,Win32,60.12144532,,,space,3.0817,0,13,13,8,1,セル　ピポ　ドキ,,,CartoonStims/doctor_kick_boxer_r.jpg,audio/serupipodoki.mp3,,,,,,,,,,,,,,,,,,,,,,,,,,,,,,,,,,,,,,,,,,,,,,,,,,,,,,,,,,,,,,,,,,,,,
,,,,,,,,,R_22Mnws3PLImqqsz,2022-07-02_18h14.19.442,jpn_C01,2022.1.2,Win32,60.12144532,,,space,3.2819,0,14,14,0,1,セル　シド　ルピン,,,CartoonStims/artist_kick_burglar_r.jpg,audio/serusidolupin.mp3,,,,,,,,,,,,,,,,,,,,,,,,,,,,,,,,,,,,,,,,,,,,,,,,,,,,,,,,,,,,,,,,,,,,,
,,,,,,,,,R_22Mnws3PLImqqsz,2022-07-02_18h14.19.442,jpn_C01,2022.1.2,Win32,60.12144532,,,space,3.3644,0,15,15,32,1,パツ　ピポ　ルピン,,,CartoonStims/doctor_shoot_burglar_r.jpg,audio/patsupipolupin.mp3,,,,,,,,,,,,,,,,,,,,,,,,,,,,,,,,,,,,,,,,,,,,,,,,,,,,,,,,,,,,,,,,,,,,,
,,,,,,,,,R_22Mnws3PLImqqsz,2022-07-02_18h14.19.442,jpn_C01,2022.1.2,Win32,60.12144532,,,space,3.4346,0,16,16,15,1,トマ　ルピン　ピポ,,,CartoonStims/burglar_point_doctor_r.jpg,audio/tomalupinpipo.mp3,,,,,,,,,,,,,,,,,,,,,,,,,,,,,,,,,,,,,,,,,,,,,,,,,,,,,,,,,,,,,,,,,,,,,
,,,,,,,,,R_22Mnws3PLImqqsz,2022-07-02_18h14.19.442,jpn_C01,2022.1.2,Win32,60.12144532,,,space,4.1274,0,17,17,33,1,パツ　ピポ　ホレト,,,CartoonStims/doctor_shoot_chef_r.jpg,audio/patsupipohoreto.mp3,,,,,,,,,,,,,,,,,,,,,,,,,,,,,,,,,,,,,,,,,,,,,,,,,,,,,,,,,,,,,,,,,,,,,
,,,,,,,,,R_22Mnws3PLImqqsz,2022-07-02_18h14.19.442,jpn_C01,2022.1.2,Win32,60.12144532,,,space,3.1143,0,18,18,35,1,パツ　ドキ　ムク,,,CartoonStims/boxer_shoot_cowboy_r.jpg,audio/patsudokimuku.mp3,,,,,,,,,,,,,,,,,,,,,,,,,,,,,,,,,,,,,,,,,,,,,,,,,,,,,,,,,,,,,,,,,,,,,
,,,,,,,,,R_22Mnws3PLImqqsz,2022-07-02_18h14.19.442,jpn_C01,2022.1.2,Win32,60.12144532,,,space,3.2981,0,19,19,29,1,パツ　ホレト　シド,,,CartoonStims/chef_shoot_artist_r.jpg,audio/patsuhoretosido.mp3,,,,,,,,,,,,,,,,,,,,,,,,,,,,,,,,,,,,,,,,,,,,,,,,,,,,,,,,,,,,,,,,,,,,,
,,,,,,,,,R_22Mnws3PLImqqsz,2022-07-02_18h14.19.442,jpn_C01,2022.1.2,Win32,60.12144532,,,space,3.0648,0,20,20,14,1,トマ　ルピン　ムク,,,CartoonStims/burglar_point_cowboy_r.jpg,audio/tomalupinmuku.mp3,,,,,,,,,,,,,,,,,,,,,,,,,,,,,,,,,,,,,,,,,,,,,,,,,,,,,,,,,,,,,,,,,,,,,
,,,,,,,,,R_22Mnws3PLImqqsz,2022-07-02_18h14.19.442,jpn_C01,2022.1.2,Win32,60.12144532,,,space,3.1481,0,21,21,28,1,パツ　ホレト　ドキ,,,CartoonStims/chef_shoot_boxer_r.jpg,audio/patsuhoretodoki.mp3,,,,,,,,,,,,,,,,,,,,,,,,,,,,,,,,,,,,,,,,,,,,,,,,,,,,,,,,,,,,,,,,,,,,,
,,,,,,,,,R_22Mnws3PLImqqsz,2022-07-02_18h14.19.442,jpn_C01,2022.1.2,Win32,60.12144532,,,space,3.2319,0,22,22,3,1,セル　ルピン　ムク,,,CartoonStims/burglar_kick_cowboy_r.jpg,audio/serulupinmuku.mp3,,,,,,,,,,,,,,,,,,,,,,,,,,,,,,,,,,,,,,,,,,,,,,,,,,,,,,,,,,,,,,,,,,,,,
,,,,,,,,,R_22Mnws3PLImqqsz,2022-07-02_18h14.19.442,jpn_C01,2022.1.2,Win32,60.12144532,,,space,3.6024,0,23,23,37,1,プミ　シド　ドキ,,,CartoonStims/artist_punch_boxer_r.jpg,audio/pumisidodoki.mp3,,,,,,,,,,,,,,,,,,,,,,,,,,,,,,,,,,,,,,,,,,,,,,,,,,,,,,,,,,,,,,,,,,,,,
,,,,,,,,,R_22Mnws3PLImqqsz,2022-07-02_18h14.19.442,jpn_C01,2022.1.2,Win32,60.12144532,,,space,3.3981,0,24,24,39,1,プミ　ルピン　シド,,,CartoonStims/burglar_punch_artist_r.jpg,audio/pumilupinsido.mp3,,,,,,,,,,,,,,,,,,,,,,,,,,,,,,,,,,,,,,,,,,,,,,,,,,,,,,,,,,,,,,,,,,,,,
,,,,,,,,,R_22Mnws3PLImqqsz,2022-07-02_18h14.19.442,jpn_C01,2022.1.2,Win32,60.12144532,,,space,3.0648,0,25,25,25,1,パツ　シド　ピポ,,,CartoonStims/artist_shoot_doctor_r.jpg,audio/patsusidopipo.mp3,,,,,,,,,,,,,,,,,,,,,,,,,,,,,,,,,,,,,,,,,,,,,,,,,,,,,,,,,,,,,,,,,,,,,
,,,,,,,,,R_22Mnws3PLImqqsz,2022-07-02_18h14.19.442,jpn_C01,2022.1.2,Win32,60.12144532,,,space,2.6675,0,26,26,47,1,プミ　ドキ　ピポ,,,CartoonStims/boxer_punch_doctor_r.jpg,audio/pumidokipipo.mp3,,,,,,,,,,,,,,,,,,,,,,,,,,,,,,,,,,,,,,,,,,,,,,,,,,,,,,,,,,,,,,,,,,,,,
,,,,,,,,,R_22Mnws3PLImqqsz,2022-07-02_18h14.19.442,jpn_C01,2022.1.2,Win32,60.12144532,,,space,3.7687,0,27,27,27,1,パツ　ルピン　ドキ,,,CartoonStims/burglar_shoot_boxer_r.jpg,audio/patsulupindoki.mp3,,,,,,,,,,,,,,,,,,,,,,,,,,,,,,,,,,,,,,,,,,,,,,,,,,,,,,,,,,,,,,,,,,,,,
,,,,,,,,,R_22Mnws3PLImqqsz,2022-07-02_18h14.19.442,jpn_C01,2022.1.2,Win32,60.12144532,,,space,4.3795,0,28,28,44,1,プミ　ピポ　ホレト,,,CartoonStims/doctor_punch_chef_r.jpg,audio/pumipipohoreto.mp3,,,,,,,,,,,,,,,,,,,,,,,,,,,,,,,,,,,,,,,,,,,,,,,,,,,,,,,,,,,,,,,,,,,,,
,,,,,,,,,R_22Mnws3PLImqqsz,2022-07-02_18h14.19.442,jpn_C01,2022.1.2,Win32,60.12144532,,,space,2.632,0,29,29,10,1,セル　ドキ　シド,,,CartoonStims/boxer_kick_artist_r.jpg,audio/serudokisido.mp3,,,,,,,,,,,,,,,,,,,,,,,,,,,,,,,,,,,,,,,,,,,,,,,,,,,,,,,,,,,,,,,,,,,,,
,,,,,,,,,R_22Mnws3PLImqqsz,2022-07-02_18h14.19.442,jpn_C01,2022.1.2,Win32,60.12144532,,,space,4.5487,0,30,30,31,1,パツ　ムク　ルピン,,,CartoonStims/cowboy_shoot_burglar_r.jpg,audio/patsumukulupin.mp3,,,,,,,,,,,,,,,,,,,,,,,,,,,,,,,,,,,,,,,,,,,,,,,,,,,,,,,,,,,,,,,,,,,,,
,,,,,,,,,R_22Mnws3PLImqqsz,2022-07-02_18h14.19.442,jpn_C01,2022.1.2,Win32,60.12144532,,,space,2.3988,0,31,31,23,1,トマ　ドキ　ホレト,,,CartoonStims/boxer_point_chef_r.jpg,audio/tomadokihoreto.mp3,,,,,,,,,,,,,,,,,,,,,,,,,,,,,,,,,,,,,,,,,,,,,,,,,,,,,,,,,,,,,,,,,,,,,
,,,,,,,,,R_22Mnws3PLImqqsz,2022-07-02_18h14.19.442,jpn_C01,2022.1.2,Win32,60.12144532,,,space,2.3842,0,32,32,26,1,パツ　ルピン　ピポ,,,CartoonStims/burglar_shoot_doctor_r.jpg,audio/patsulupinpipo.mp3,,,,,,,,,,,,,,,,,,,,,,,,,,,,,,,,,,,,,,,,,,,,,,,,,,,,,,,,,,,,,,,,,,,,,
,,,,,,,,,R_22Mnws3PLImqqsz,2022-07-02_18h14.19.442,jpn_C01,2022.1.2,Win32,60.12144532,,,space,2.6651,0,33,33,34,1,パツ　ドキ　ホレト,,,CartoonStims/boxer_shoot_chef_r.jpg,audio/patsudokihoreto.mp3,,,,,,,,,,,,,,,,,,,,,,,,,,,,,,,,,,,,,,,,,,,,,,,,,,,,,,,,,,,,,,,,,,,,,
,,,,,,,,,R_22Mnws3PLImqqsz,2022-07-02_18h14.19.442,jpn_C01,2022.1.2,Win32,60.12144532,,,space,2.2714,0,34,34,46,1,プミ　ドキ　ムク,,,CartoonStims/boxer_punch_cowboy_r.jpg,audio/pumidokimuku.mp3,,,,,,,,,,,,,,,,,,,,,,,,,,,,,,,,,,,,,,,,,,,,,,,,,,,,,,,,,,,,,,,,,,,,,
,,,,,,,,,R_22Mnws3PLImqqsz,2022-07-02_18h14.19.442,jpn_C01,2022.1.2,Win32,60.12144532,,,space,2.4822,0,35,35,5,1,セル　ホレト　ピポ,,,CartoonStims/chef_kick_doctor_r.jpg,audio/seruhoretopipo.mp3,,,,,,,,,,,,,,,,,,,,,,,,,,,,,,,,,,,,,,,,,,,,,,,,,,,,,,,,,,,,,,,,,,,,,
,,,,,,,,,R_22Mnws3PLImqqsz,2022-07-02_18h14.19.442,jpn_C01,2022.1.2,Win32,60.12144532,,,space,2.2323,0,36,36,2,1,セル 　ルピン 　ホレト,,,CartoonStims/burglar_kick_chef_r.jpg,audio/serulupinhoreto.mp3,,,,,,,,,,,,,,,,,,,,,,,,,,,,,,,,,,,,,,,,,,,,,,,,,,,,,,,,,,,,,,,,,,,,,
,,,,,,,,,R_22Mnws3PLImqqsz,2022-07-02_18h14.19.442,jpn_C01,2022.1.2,Win32,60.12144532,,,space,2.7317,0,37,37,36,1,プミ　シド　ピポ,,,CartoonStims/artist_punch_doctor_r.jpg,audio/pumisidopipo.mp3,,,,,,,,,,,,,,,,,,,,,,,,,,,,,,,,,,,,,,,,,,,,,,,,,,,,,,,,,,,,,,,,,,,,,
,,,,,,,,,R_22Mnws3PLImqqsz,2022-07-02_18h14.19.442,jpn_C01,2022.1.2,Win32,60.12144532,,,space,2.5324,0,38,38,22,1,トマ　ドキ　ルピン,,,CartoonStims/boxer_point_burglar_r.jpg,audio/tomadokilupin.mp3,,,,,,,,,,,,,,,,,,,,,,,,,,,,,,,,,,,,,,,,,,,,,,,,,,,,,,,,,,,,,,,,,,,,,
,,,,,,,,,R_22Mnws3PLImqqsz,2022-07-02_18h14.19.442,jpn_C01,2022.1.2,Win32,60.12144532,,,space,3.2691,0,39,39,43,1,プミ　ムク　ホレト,,,CartoonStims/cowboy_punch_chef_r.jpg,audio/pumimukuhoreto.mp3,,,,,,,,,,,,,,,,,,,,,,,,,,,,,,,,,,,,,,,,,,,,,,,,,,,,,,,,,,,,,,,,,,,,,
,,,,,,,,,R_22Mnws3PLImqqsz,2022-07-02_18h14.19.442,jpn_C01,2022.1.2,Win32,60.12144532,,,space,1.9486,0,40,40,41,1,プミ　ホレト　ルピン,,,CartoonStims/chef_punch_burglar_r.jpg,audio/pumihoretolupin.mp3,,,,,,,,,,,,,,,,,,,,,,,,,,,,,,,,,,,,,,,,,,,,,,,,,,,,,,,,,,,,,,,,,,,,,
,,,,,,,,,R_22Mnws3PLImqqsz,2022-07-02_18h14.19.442,jpn_C01,2022.1.2,Win32,60.12144532,,,space,2.5655,0,41,41,7,1,セル　ムク　ドキ,,,CartoonStims/cowboy_kick_boxer_r.jpg,audio/serumukudoki.mp3,,,,,,,,,,,,,,,,,,,,,,,,,,,,,,,,,,,,,,,,,,,,,,,,,,,,,,,,,,,,,,,,,,,,,
,,,,,,,,,R_22Mnws3PLImqqsz,2022-07-02_18h14.19.442,jpn_C01,2022.1.2,Win32,60.12144532,,,space,2.1179,0,42,42,13,1,トマ　シド　ムク,,,CartoonStims/artist_point_cowboy_r.jpg,audio/tomasidomuku.mp3,,,,,,,,,,,,,,,,,,,,,,,,,,,,,,,,,,,,,,,,,,,,,,,,,,,,,,,,,,,,,,,,,,,,,
,,,,,,,,,R_22Mnws3PLImqqsz,2022-07-02_18h14.19.442,jpn_C01,2022.1.2,Win32,60.12144532,,,space,1.7708,0,43,43,11,1,セル　ドキ　ルピン,,,CartoonStims/boxer_kick_burglar_r.jpg,audio/serudokilupin.mp3,,,,,,,,,,,,,,,,,,,,,,,,,,,,,,,,,,,,,,,,,,,,,,,,,,,,,,,,,,,,,,,,,,,,,
,,,,,,,,,R_22Mnws3PLImqqsz,2022-07-02_18h14.19.442,jpn_C01,2022.1.2,Win32,60.12144532,,,space,1.7327,0,44,44,19,1,トマ　ムク　シド,,,CartoonStims/cowboy_point_artist_r.jpg,audio/tomamukusido.mp3,,,,,,,,,,,,,,,,,,,,,,,,,,,,,,,,,,,,,,,,,,,,,,,,,,,,,,,,,,,,,,,,,,,,,
,,,,,,,,,R_22Mnws3PLImqqsz,2022-07-02_18h14.19.442,jpn_C01,2022.1.2,Win32,60.12144532,,,space,3.2003,0,45,45,45,1,プミ　ピポ　ムク,,,CartoonStims/doctor_punch_cowboy_r.jpg,audio/pumipipomuku.mp3,,,,,,,,,,,,,,,,,,,,,,,,,,,,,,,,,,,,,,,,,,,,,,,,,,,,,,,,,,,,,,,,,,,,,
,,,,,,,,,R_22Mnws3PLImqqsz,2022-07-02_18h14.19.442,jpn_C01,2022.1.2,Win32,60.12144532,,,space,1.667,0,46,46,40,1,プミ　ホレト　シド,,,CartoonStims/chef_punch_artist_r.jpg,audio/pumihoretosido.mp3,,,,,,,,,,,,,,,,,,,,,,,,,,,,,,,,,,,,,,,,,,,,,,,,,,,,,,,,,,,,,,,,,,,,,
,,,,,,,,,R_22Mnws3PLImqqsz,2022-07-02_18h14.19.442,jpn_C01,2022.1.2,Win32,60.12144532,,,space,1.7825,0,47,47,21,1,トマ　ピポ　ルピン,,,CartoonStims/doctor_point_burglar_r.jpg,audio/tomapipolupin.mp3,,,,,,,,,,,,,,,,,,,,,,,,,,,,,,,,,,,,,,,,,,,,,,,,,,,,,,,,,,,,,,,,,,,,,
,,,,,,,,,R_22Mnws3PLImqqsz,2022-07-02_18h14.19.442,jpn_C01,2022.1.2,Win32,60.12144532,,,,,,,,,,,,,,,space,6.9458,right,1,3.848,,,,,,,,,,,,,,,,,,0,0,0,0,1,,,,,,,,,,,,,,,,,,,,,,,,,,,,,,,,,,,,,,,,,,
,,,,,,,,,R_22Mnws3PLImqqsz,2022-07-02_18h14.19.442,jpn_C01,2022.1.2,Win32,60.12144532,,,,,,,,,,,,,,,,,,,,,,,,,0,0,0,11,1,CartoonStims/burglar_punch_cowboy_r.jpg,プミ　ホレト　ムク,CartoonStims/chef_punch_cowboy_r.jpg,right,CartoonStims/chef_punch_cowboy_r.jpg,audio/pumihoretomuku.mp3,残念！ こちらが正しい画像です。,,,,,,,,,,,,,,,,,,,,,,,,,,,,,,,,,,,,,,,,,,,,,,,
,,,,,,,,,R_22Mnws3PLImqqsz,2022-07-02_18h14.19.442,jpn_C01,2022.1.2,Win32,60.12144532,,,,,,,,,,,,,,,,,right,1,2.4054,,,,,,,,,,,,,,,,,,0,0,0,0,1,,,,,,,,,,,,,,,,,,,,,,,,,,,,,,,,,,,,,,,,,,
,,,,,,,,,R_22Mnws3PLImqqsz,2022-07-02_18h14.19.442,jpn_C01,2022.1.2,Win32,60.12144532,,,,,,,,,,,,,,,,,,,,,,,,,0,1,1,5,1,CartoonStims/cowboy_point_chef_r.jpg,パツ　ムク　ホレト,CartoonStims/cowboy_shoot_chef_r.jpg,right,CartoonStims/cowboy_shoot_chef_r.jpg,audio/patsumukuhoreto.mp3,残念！ こちらが正しい画像です。,,,,,,,,,,,,,,,,,,,,,,,,,,,,,,,,,,,,,,,,,,,,,,,
,,,,,,,,,R_22Mnws3PLImqqsz,2022-07-02_18h14.19.442,jpn_C01,2022.1.2,Win32,60.12144532,,,,,,,,,,,,,,,,,left,1,2.5154,0,0,0,0,1,,,,,,,,,,,,,,,,,,,,,,,,,,,,,,,,,,,,,,,,,,,,,,,,,,,,,,,,,,,
,,,,,,,,,R_22Mnws3PLImqqsz,2022-07-02_18h14.19.442,jpn_C01,2022.1.2,Win32,60.12144532,,,,,,,,,,,,,,,,,,,,,,,,,0,2,2,2,1,CartoonStims/boxer_shoot_doctor_r.jpg,パツ　ドキ　ピポ,CartoonStims/boxer_shoot_artist_r.jpg,left,CartoonStims/boxer_shoot_doctor_r.jpg,audio/patsudokipipo.mp3,残念！ こちらが正しい画像です。,,,,,,,,,,,,,,,,,,,,,,,,,,,,,,,,,,,,,,,,,,,,,,,
,,,,,,,,,R_22Mnws3PLImqqsz,2022-07-02_18h14.19.442,jpn_C01,2022.1.2,Win32,60.12144532,,,,,,,,,,,,,,,,,left,1,2.799,0,0,0,0,1,,,,,,,,,,,,,,,,,,,,,,,,,,,,,,,,,,,,,,,,,,,,,,,,,,,,,,,,,,,
,,,,,,,,,R_22Mnws3PLImqqsz,2022-07-02_18h14.19.442,jpn_C01,2022.1.2,Win32,60.12144532,,,,,,,,,,,,,,,,,,,,,,,,,0,3,3,10,1,CartoonStims/artist_shoot_burglar_r.jpg,パツ　シド　ルピン,CartoonStims/chef_shoot_burglar_r.jpg,left,CartoonStims/artist_shoot_burglar_r.jpg,audio/patsusidolupin.mp3,残念！ こちらが正しい画像です。,,,,,,,,,,,,,,,,,,,,,,,,,,,,,,,,,,,,,,,,,,,,,,,
,,,,,,,,,R_22Mnws3PLImqqsz,2022-07-02_18h14.19.442,jpn_C01,2022.1.2,Win32,60.12144532,,,,,,,,,,,,,,,,,left,1,1.9159,0,0,0,0,1,,,,,,,,,,,,,,,,,,,,,,,,,,,,,,,,,,,,,,,,,,,,,,,,,,,,,,,,,,,
,,,,,,,,,R_22Mnws3PLImqqsz,2022-07-02_18h14.19.442,jpn_C01,2022.1.2,Win32,60.12144532,,,,,,,,,,,,,,,,,,,,,,,,,0,4,4,6,1,CartoonStims/doctor_punch_boxer_r.jpg,プミ　ピポ　ドキ,CartoonStims/doctor_shoot_boxer_r.jpg,left,CartoonStims/doctor_punch_boxer_r.jpg,audio/pumipipodoki.mp3,残念！ こちらが正しい画像です。,,,,,,,,,,,,,,,,,,,,,,,,,,,,,,,,,,,,,,,,,,,,,,,
,,,,,,,,,R_22Mnws3PLImqqsz,2022-07-02_18h14.19.442,jpn_C01,2022.1.2,Win32,60.12144532,,,,,,,,,,,,,,,,,left,1,1.1057,0,0,0,0,1,,,,,,,,,,,,,,,,,,,,,,,,,,,,,,,,,,,,,,,,,,,,,,,,,,,,,,,,,,,
,,,,,,,,,R_22Mnws3PLImqqsz,2022-07-02_18h14.19.442,jpn_C01,2022.1.2,Win32,60.12144532,,,,,,,,,,,,,,,,,,,,,,,,,0,5,5,4,1,CartoonStims/burglar_point_boxer_r.jpg,トマ　ルピン　ドキ,CartoonStims/burglar_kick_boxer_r.jpg,left,CartoonStims/burglar_point_boxer_r.jpg,audio/tomalupindoki.mp3,残念！ こちらが正しい画像です。,,,,,,,,,,,,,,,,,,,,,,,,,,,,,,,,,,,,,,,,,,,,,,,
,,,,,,,,,R_22Mnws3PLImqqsz,2022-07-02_18h14.19.442,jpn_C01,2022.1.2,Win32,60.12144532,,,,,,,,,,,,,,,,,left,1,1.8158,0,0,0,0,1,,,,,,,,,,,,,,,,,,,,,,,,,,,,,,,,,,,,,,,,,,,,,,,,,,,,,,,,,,,
,,,,,,,,,R_22Mnws3PLImqqsz,2022-07-02_18h14.19.442,jpn_C01,2022.1.2,Win32,60.12144532,,,,,,,,,,,,,,,,,,,,,,,,,0,6,6,8,1,CartoonStims/doctor_point_cowboy_r.jpg,トマ　ピポ　ムク,CartoonStims/boxer_point_cowboy_r.jpg,left,CartoonStims/doctor_point_cowboy_r.jpg,audio/tomapipomuku.mp3,残念！ こちらが正しい画像です。,,,,,,,,,,,,,,,,,,,,,,,,,,,,,,,,,,,,,,,,,,,,,,,
,,,,,,,,,R_22Mnws3PLImqqsz,2022-07-02_18h14.19.442,jpn_C01,2022.1.2,Win32,60.12144532,,,,,,,,,,,,,,,,,right,1,6.7444,,,,,,,,,,,,,,,,,,0,0,0,0,1,,,,,,,,,,,,,,,,,,,,,,,,,,,,,,,,,,,,,,,,,,
,,,,,,,,,R_22Mnws3PLImqqsz,2022-07-02_18h14.19.442,jpn_C01,2022.1.2,Win32,60.12144532,,,,,,,,,,,,,,,,,,,,,,,,,0,7,7,3,1,CartoonStims/cowboy_punch_doctor_r.jpg,プミ　ムク　ドキ,CartoonStims/cowboy_punch_boxer_r.jpg,right,CartoonStims/cowboy_punch_boxer_r.jpg,audio/pumimukudoki.mp3,残念！ こちらが正しい画像です。,,,,,,,,,,,,,,,,,,,,,,,,,,,,,,,,,,,,,,,,,,,,,,,
,,,,,,,,,R_22Mnws3PLImqqsz,2022-07-02_18h14.19.442,jpn_C01,2022.1.2,Win32,60.12144532,,,,,,,,,,,,,,,,,right,1,2.6902,,,,,,,,,,,,,,,,,,0,0,0,0,1,,,,,,,,,,,,,,,,,,,,,,,,,,,,,,,,,,,,,,,,,,
,,,,,,,,,R_22Mnws3PLImqqsz,2022-07-02_18h14.19.442,jpn_C01,2022.1.2,Win32,60.12144532,,,,,,,,,,,,,,,,,,,,,,,,,0,8,8,1,1,CartoonStims/chef_point_burglar_r.jpg,トマ　ホレト　シド,CartoonStims/chef_point_artist_r.jpg,right,CartoonStims/chef_point_artist_r.jpg,audio/tomahoretosido.mp3,残念！ こちらが正しい画像です。,,,,,,,,,,,,,,,,,,,,,,,,,,,,,,,,,,,,,,,,,,,,,,,
,,,,,,,,,R_22Mnws3PLImqqsz,2022-07-02_18h14.19.442,jpn_C01,2022.1.2,Win32,60.12144532,,,,,,,,,,,,,,,,,right,1,1.9155,,,,,,,,,,,,,,,,,,0,0,0,0,1,,,,,,,,,,,,,,,,,,,,,,,,,,,,,,,,,,,,,,,,,,
,,,,,,,,,R_22Mnws3PLImqqsz,2022-07-02_18h14.19.442,jpn_C01,2022.1.2,Win32,60.12144532,,,,,,,,,,,,,,,,,,,,,,,,,0,9,9,7,1,CartoonStims/artist_punch_cowboy_r.jpg,セル　シド　ムク,CartoonStims/artist_kick_cowboy_r.jpg,right,CartoonStims/artist_kick_cowboy_r.jpg,audio/serusidomuku.mp3,残念！ こちらが正しい画像です。,,,,,,,,,,,,,,,,,,,,,,,,,,,,,,,,,,,,,,,,,,,,,,,
,,,,,,,,,R_22Mnws3PLImqqsz,2022-07-02_18h14.19.442,jpn_C01,2022.1.2,Win32,60.12144532,,,,,,,,,,,,,,,,,left,1,1.8983,0,0,0,0,1,,,,,,,,,,,,,,,,,,,,,,,,,,,,,,,,,,,,,,,,,,,,,,,,,,,,,,,,,,,
,,,,,,,,,R_22Mnws3PLImqqsz,2022-07-02_18h14.19.442,jpn_C01,2022.1.2,Win32,60.12144532,,,,,,,,,,,,,,,,,,,,,,,,,0,10,10,0,1,CartoonStims/doctor_kick_burglar_r.jpg,セル　ピポ　ルピン,CartoonStims/doctor_kick_chef_r.jpg,left,CartoonStims/doctor_kick_burglar_r.jpg,audio/serupipolupin.mp3,残念！ こちらが正しい画像です。,,,,,,,,,,,,,,,,,,,,,,,,,,,,,,,,,,,,,,,,,,,,,,,
,,,,,,,,,R_22Mnws3PLImqqsz,2022-07-02_18h14.19.442,jpn_C01,2022.1.2,Win32,60.12144532,,,,,,,,,,,,,,,,,right,1,1.6658,,,,,,,,,,,,,,,,,,0,0,0,0,1,,,,,,,,,,,,,,,,,,,,,,,,,,,,,,,,,,,,,,,,,,
,,,,,,,,,R_22Mnws3PLImqqsz,2022-07-02_18h14.19.442,jpn_C01,2022.1.2,Win32,60.12144532,,,,,,,,,,,,,,,,,,,,,,,,,0,11,11,9,1,CartoonStims/chef_kick_artist_r.jpg,セル　ムク　シド,CartoonStims/cowboy_kick_artist_r.jpg,right,CartoonStims/cowboy_kick_artist_r.jpg,audio/serumukusido.mp3,残念！ こちらが正しい画像です。,,,,,,,,,,,,,,,,,,,,,,,,,,,,,,,,,,,,,,,,,,,,,,,
,,,,,,,,,R_22Mnws3PLImqqsz,2022-07-02_18h14.19.442,jpn_C01,2022.1.2,Win32,60.12144532,,,,,,,,,,,,,,,,,,,,,,,,,,,,,,,,,,,,,,,,,,space,6.5647,セル　ピポ　ホレト,right,25.9431,0,0,0,0,1,,,,,,,,,,,,,,,,,,,,,,,,,,,,,,,,
,,,,,,,,,R_22Mnws3PLImqqsz,2022-07-02_18h14.19.442,jpn_C01,2022.1.2,Win32,60.12144532,,,,,,,,,,,,,CartoonStims/doctor_kick_chef_r.jpg,audio/serupipohoreto.mp3,,,,,,,,,,,,,,,,,,,,,,,,,,,,,,,,,,,,,,0,0,0,1,1,セル　ピポ　ホレト,,,,,,,,,,,,,,,,,,,,,,,,,,
,,,,,,,,,R_22Mnws3PLImqqsz,2022-07-02_18h14.19.442,jpn_C01,2022.1.2,Win32,60.12144532,,,,,,,,,,,,,,,,,,,,,,,,,,,,,,,,,,,,,,,,,,,,セル　ムク　ルピン,right,14.5047,0,0,0,0,1,,,,,,,,,,,,,,,,,,,,,,,,,,,,,,,,
,,,,,,,,,R_22Mnws3PLImqqsz,2022-07-02_18h14.19.442,jpn_C01,2022.1.2,Win32,60.12144532,,,,,,,,,,,,,CartoonStims/cowboy_kick_burglar_r.jpg,audio/serumukulupin.mp3,,,,,,,,,,,,,,,,,,,,,,,,,,,,,,,,,,,,,,0,1,1,0,1,セル　ムク　ルピン,,,,,,,,,,,,,,,,,,,,,,,,,,
,,,,,,,,,R_22Mnws3PLImqqsz,2022-07-02_18h14.19.442,jpn_C01,2022.1.2,Win32,60.12144532,,,,,,,,,,,,,,,,,,,,,,,,,,,,,,,,,,,,,,,,,,,,プミ　ドキ　シド,right,14.0528,0,0,0,0,1,,,,,,,,,,,,,,,,,,,,,,,,,,,,,,,,
,,,,,,,,,R_22Mnws3PLImqqsz,2022-07-02_18h14.19.442,jpn_C01,2022.1.2,Win32,60.12144532,,,,,,,,,,,,,CartoonStims/boxer_punch_artist_r.jpg,audio/pumidokisido.mp3,,,,,,,,,,,,,,,,,,,,,,,,,,,,,,,,,,,,,,0,2,2,11,1,プミ　ドキ　シド,,,,,,,,,,,,,,,,,,,,,,,,,,
,,,,,,,,,R_22Mnws3PLImqqsz,2022-07-02_18h14.19.442,jpn_C01,2022.1.2,Win32,60.12144532,,,,,,,,,,,,,,,,,,,,,,,,,,,,,,,,,,,,,,,,,,,,パツ　ホレト　ムク,right,12.3702,0,0,0,0,1,,,,,,,,,,,,,,,,,,,,,,,,,,,,,,,,
,,,,,,,,,R_22Mnws3PLImqqsz,2022-07-02_18h14.19.442,jpn_C01,2022.1.2,Win32,60.12144532,,,,,,,,,,,,,CartoonStims/chef_shoot_cowboy_r.jpg,audio/patsuhoretomuku.mp3,,,,,,,,,,,,,,,,,,,,,,,,,,,,,,,,,,,,,,0,3,3,7,1,パツ　ホレト　ムク,,,,,,,,,,,,,,,,,,,,,,,,,,
,,,,,,,,,R_22Mnws3PLImqqsz,2022-07-02_18h14.19.442,jpn_C01,2022.1.2,Win32,60.12144532,,,,,,,,,,,,,,,,,,,,,,,,,,,,,,,,,,,,,,,,,,,,プミ　シド　ルピン,right,8.7273,0,0,0,0,1,,,,,,,,,,,,,,,,,,,,,,,,,,,,,,,,
,,,,,,,,,R_22Mnws3PLImqqsz,2022-07-02_18h14.19.442,jpn_C01,2022.1.2,Win32,60.12144532,,,,,,,,,,,,,CartoonStims/artist_punch_burglar_r.jpg,audio/pumisidolupin.mp3,,,,,,,,,,,,,,,,,,,,,,,,,,,,,,,,,,,,,,0,4,4,9,1,プミ　シド　ルピン,,,,,,,,,,,,,,,,,,,,,,,,,,
,,,,,,,,,R_22Mnws3PLImqqsz,2022-07-02_18h14.19.442,jpn_C01,2022.1.2,Win32,60.12144532,,,,,,,,,,,,,,,,,,,,,,,,,,,,,,,,,,,,,,,,,,,,プミ　ピポ　ムク,right,7.2581,0,0,0,0,1,,,,,,,,,,,,,,,,,,,,,,,,,,,,,,,,
,,,,,,,,,R_22Mnws3PLImqqsz,2022-07-02_18h14.19.442,jpn_C01,2022.1.2,Win32,60.12144532,,,,,,,,,,,,,CartoonStims/doctor_punch_boxer_r.jpg,audio/pumipipodoki.mp3,,,,,,,,,,,,,,,,,,,,,,,,,,,,,,,,,,,,,,0,5,5,10,1,プミ　ピポ　ドキ,,,,,,,,,,,,,,,,,,,,,,,,,,
,,,,,,,,,R_22Mnws3PLImqqsz,2022-07-02_18h14.19.442,jpn_C01,2022.1.2,Win32,60.12144532,,,,,,,,,,,,,,,,,,,,,,,,,,,,,,,,,,,,,,,,,,,,トマ　ルピン　シド,right,10.388,0,0,0,0,1,,,,,,,,,,,,,,,,,,,,,,,,,,,,,,,,
,,,,,,,,,R_22Mnws3PLImqqsz,2022-07-02_18h14.19.442,jpn_C01,2022.1.2,Win32,60.12144532,,,,,,,,,,,,,CartoonStims/burglar_point_artist_r.jpg,audio/tomalupinsido.mp3,,,,,,,,,,,,,,,,,,,,,,,,,,,,,,,,,,,,,,0,6,6,4,1,トマ　ルピン　シド,,,,,,,,,,,,,,,,,,,,,,,,,,
,,,,,,,,,R_22Mnws3PLImqqsz,2022-07-02_18h14.19.442,jpn_C01,2022.1.2,Win32,60.12144532,,,,,,,,,,,,,,,,,,,,,,,,,,,,,,,,,,,,,,,,,,,,パツ　ムク　ピポ,right,9.3098,0,0,0,0,1,,,,,,,,,,,,,,,,,,,,,,,,,,,,,,,,
,,,,,,,,,R_22Mnws3PLImqqsz,2022-07-02_18h14.19.442,jpn_C01,2022.1.2,Win32,60.12144532,,,,,,,,,,,,,CartoonStims/cowboy_shoot_doctor_r.jpg,audio/patsumukupipo.mp3,,,,,,,,,,,,,,,,,,,,,,,,,,,,,,,,,,,,,,0,7,7,8,1,パツ　ムク　ピポ,,,,,,,,,,,,,,,,,,,,,,,,,,
,,,,,,,,,R_22Mnws3PLImqqsz,2022-07-02_18h14.19.442,jpn_C01,2022.1.2,Win32,60.12144532,,,,,,,,,,,,,,,,,,,,,,,,,,,,,,,,,,,,,,,,,,,,パツ　ルピン　ホレト,right,9.2943,0,0,0,0,1,,,,,,,,,,,,,,,,,,,,,,,,,,,,,,,,
,,,,,,,,,R_22Mnws3PLImqqsz,2022-07-02_18h14.19.442,jpn_C01,2022.1.2,Win32,60.12144532,,,,,,,,,,,,,CartoonStims/burglar_shoot_chef_r.jpg,audio/patsulupinhoreto.mp3,,,,,,,,,,,,,,,,,,,,,,,,,,,,,,,,,,,,,,0,8,8,6,1,パツ　ルピン　ホレト,,,,,,,,,,,,,,,,,,,,,,,,,,
,,,,,,,,,R_22Mnws3PLImqqsz,2022-07-02_18h14.19.442,jpn_C01,2022.1.2,Win32,60.12144532,,,,,,,,,,,,,,,,,,,,,,,,,,,,,,,,,,,,,,,,,,,,セル　ドキ　ムク,right,8.7245,0,0,0,0,1,,,,,,,,,,,,,,,,,,,,,,,,,,,,,,,,
,,,,,,,,,R_22Mnws3PLImqqsz,2022-07-02_18h14.19.442,jpn_C01,2022.1.2,Win32,60.12144532,,,,,,,,,,,,,CartoonStims/boxer_kick_cowboy_r.jpg,audio/serudokimuku.mp3,,,,,,,,,,,,,,,,,,,,,,,,,,,,,,,,,,,,,,0,9,9,2,1,セル　ドキ　ムク,,,,,,,,,,,,,,,,,,,,,,,,,,
,,,,,,,,,R_22Mnws3PLImqqsz,2022-07-02_18h14.19.442,jpn_C01,2022.1.2,Win32,60.12144532,,,,,,,,,,,,,,,,,,,,,,,,,,,,,,,,,,,,,,,,,,,,トマ　ホレト　ルピン,right,8.5594,0,0,0,0,1,,,,,,,,,,,,,,,,,,,,,,,,,,,,,,,,
,,,,,,,,,R_22Mnws3PLImqqsz,2022-07-02_18h14.19.442,jpn_C01,2022.1.2,Win32,60.12144532,,,,,,,,,,,,,CartoonStims/chef_point_burglar_r.jpg,audio/tomahoretolupin.mp3,,,,,,,,,,,,,,,,,,,,,,,,,,,,,,,,,,,,,,0,10,10,5,1,トマ　ホレト　ルピン,,,,,,,,,,,,,,,,,,,,,,,,,,
,,,,,,,,,R_22Mnws3PLImqqsz,2022-07-02_18h14.19.442,jpn_C01,2022.1.2,Win32,60.12144532,,,,,,,,,,,,,,,,,,,,,,,,,,,,,,,,,,,,,,,,,,,,トマ　シド　ドキ,right,8.2037,0,0,0,0,1,,,,,,,,,,,,,,,,,,,,,,,,,,,,,,,,
,,,,,,,,,R_22Mnws3PLImqqsz,2022-07-02_18h14.19.442,jpn_C01,2022.1.2,Win32,60.12144532,,,,,,,,,,,,,CartoonStims/artist_point_boxer_r.jpg,audio/tomasidodoki.mp3,,,,,,,,,,,,,,,,,,,,,,,,,,,,,,,,,,,,,,0,11,11,3,1,トマ　シド　ドキ,,,,,,,,,,,,,,,,,,,,,,,,,,
,,,,,,,,,R_22Mnws3PLImqqsz,2022-07-02_18h14.19.442,jpn_C01,2022.1.2,Win32,60.12144532,,,,,,,,,,,,,,,,,,,,,,,,,,,,,,,,,,,,,,,,,,,,,,,,,,,,,,,,,,,space,1.7344,0,1,1,1,1,AffExposure.xlsx,"第二のトライアルの学習では、この言語で書かれた文を見ていただきます。引き続き注意して、 聞こえた音を復唱してください。


スペースキーを押してください。",1,AffFCT.xlsx,ここからクイズが始まります。 スクリーンに表示されるテキストに合う画像を選んでください。,AffTest.xlsx,1,次にここまで学んだことをアウトプットしていただきます。 表示される画像を描写していると思う単語を、テキストボックスにタイプしてください。 答えを提出したあとに正しい正解が少しの間画面に写ります。,1,"これで第二のトライアルが終了しました。 ここで休憩をとっていただいても構いません。

休憩が終わりましたら、 スペースキーを押して続きの学習を行いましょう。",,,,,,,,
,,,,,,,,,R_22Mnws3PLImqqsz,2022-07-02_18h14.19.442,jpn_C01,2022.1.2,Win32,60.12144532,space,3.2979,space,4.0848,0,0,0,30,1,パツ　ピク　ムク　シド,,,CartoonStims/cowboy_shoot_artist_r_no.jpg,audio/patsupikumukusido.mp3,,,,,,,,,,,,,,,,,,,,,,,,,,,,,,,,,,,,,,,,,,,,,,,,,,,,,,,,,,,,,,,,,,,,,
,,,,,,,,,R_22Mnws3PLImqqsz,2022-07-02_18h14.19.442,jpn_C01,2022.1.2,Win32,60.12144532,,,space,3.7842,0,1,1,4,1,ピク　セル　ホレト　ムク,,,CartoonStims/chef_kick_cowboy_r_no.jpg,audio/pikuseruhoretomuku.mp3,,,,,,,,,,,,,,,,,,,,,,,,,,,,,,,,,,,,,,,,,,,,,,,,,,,,,,,,,,,,,,,,,,,,,
,,,,,,,,,R_22Mnws3PLImqqsz,2022-07-02_18h14.19.442,jpn_C01,2022.1.2,Win32,60.12144532,,,space,3.4814,0,2,2,2,1,ピク　セル　ルピン　ホレト,,,CartoonStims/burglar_kick_chef_r_no.jpg,audio/pikuserulupinhoreto.mp3,,,,,,,,,,,,,,,,,,,,,,,,,,,,,,,,,,,,,,,,,,,,,,,,,,,,,,,,,,,,,,,,,,,,,
,,,,,,,,,R_22Mnws3PLImqqsz,2022-07-02_18h14.19.442,jpn_C01,2022.1.2,Win32,60.12144532,,,space,3.7306,0,3,3,44,1,ピク　プミ　ピポ　ホレト,,,CartoonStims/doctor_punch_chef_r_no.jpg,audio/pikupumipipohoreto.mp3,,,,,,,,,,,,,,,,,,,,,,,,,,,,,,,,,,,,,,,,,,,,,,,,,,,,,,,,,,,,,,,,,,,,,
,,,,,,,,,R_22Mnws3PLImqqsz,2022-07-02_18h14.19.442,jpn_C01,2022.1.2,Win32,60.12144532,,,space,4.8,0,4,4,35,1,ピク　パツ　ドキ　ムク,,,CartoonStims/boxer_shoot_cowboy_r_no.jpg,audio/pikupatsudokimuku.mp3,,,,,,,,,,,,,,,,,,,,,,,,,,,,,,,,,,,,,,,,,,,,,,,,,,,,,,,,,,,,,,,,,,,,,
,,,,,,,,,R_22Mnws3PLImqqsz,2022-07-02_18h14.19.442,jpn_C01,2022.1.2,Win32,60.12144532,,,space,2.9474,0,5,5,9,1,セル　ピク　ピポ　シド,,,CartoonStims/doctor_kick_artist_r_no.jpg,audio/serupikupiposido.mp3,,,,,,,,,,,,,,,,,,,,,,,,,,,,,,,,,,,,,,,,,,,,,,,,,,,,,,,,,,,,,,,,,,,,,
,,,,,,,,,R_22Mnws3PLImqqsz,2022-07-02_18h14.19.442,jpn_C01,2022.1.2,Win32,60.12144532,,,space,4.5484,0,6,6,17,1,ピク　トマ　ホレト　ドキ,,,CartoonStims/chef_point_boxer_r_no.jpg,audio/pikutomahoretodoki.mp3,,,,,,,,,,,,,,,,,,,,,,,,,,,,,,,,,,,,,,,,,,,,,,,,,,,,,,,,,,,,,,,,,,,,,
,,,,,,,,,R_22Mnws3PLImqqsz,2022-07-02_18h14.19.442,jpn_C01,2022.1.2,Win32,60.12144532,,,space,4.3306,0,7,7,1,1,セル　ピク　シド　ホレト,,,CartoonStims/artist_kick_chef_r_no.jpg,audio/serupikusidohoreto.mp3,,,,,,,,,,,,,,,,,,,,,,,,,,,,,,,,,,,,,,,,,,,,,,,,,,,,,,,,,,,,,,,,,,,,,
,,,,,,,,,R_22Mnws3PLImqqsz,2022-07-02_18h14.19.442,jpn_C01,2022.1.2,Win32,60.12144532,,,space,4.0639,0,8,8,32,1,パツ　ピク　ピポ　ルピン,,,CartoonStims/doctor_shoot_burglar_r_no.jpg,audio/patsupikupipolupin.mp3,,,,,,,,,,,,,,,,,,,,,,,,,,,,,,,,,,,,,,,,,,,,,,,,,,,,,,,,,,,,,,,,,,,,,
,,,,,,,,,R_22Mnws3PLImqqsz,2022-07-02_18h14.19.442,jpn_C01,2022.1.2,Win32,60.12144532,,,space,3.3323,0,9,9,22,1,トマ　ピク　ドキ　ルピン,,,CartoonStims/boxer_point_burglar_r_no.jpg,audio/tomapikudokilupin.mp3,,,,,,,,,,,,,,,,,,,,,,,,,,,,,,,,,,,,,,,,,,,,,,,,,,,,,,,,,,,,,,,,,,,,,
,,,,,,,,,R_22Mnws3PLImqqsz,2022-07-02_18h14.19.442,jpn_C01,2022.1.2,Win32,60.12144532,,,space,5.2507,0,10,10,40,1,ピク　プミ　ホレト　シド,,,CartoonStims/chef_punch_artist_r_no.jpg,audio/pikupumihoretosido.mp3,,,,,,,,,,,,,,,,,,,,,,,,,,,,,,,,,,,,,,,,,,,,,,,,,,,,,,,,,,,,,,,,,,,,,
,,,,,,,,,R_22Mnws3PLImqqsz,2022-07-02_18h14.19.442,jpn_C01,2022.1.2,Win32,60.12144532,,,space,2.9365,0,11,11,21,1,ピク　トマ　ピポ　ルピン,,,CartoonStims/doctor_point_burglar_r_no.jpg,audio/pikutomapipolupin.mp3,,,,,,,,,,,,,,,,,,,,,,,,,,,,,,,,,,,,,,,,,,,,,,,,,,,,,,,,,,,,,,,,,,,,,
,,,,,,,,,R_22Mnws3PLImqqsz,2022-07-02_18h14.19.442,jpn_C01,2022.1.2,Win32,60.12144532,,,space,1.9678,0,12,12,19,1,ピク　トマ　ムク　シド,,,CartoonStims/cowboy_point_artist_r_no.jpg,audio/pikutomamukusido.mp3,,,,,,,,,,,,,,,,,,,,,,,,,,,,,,,,,,,,,,,,,,,,,,,,,,,,,,,,,,,,,,,,,,,,,
,,,,,,,,,R_22Mnws3PLImqqsz,2022-07-02_18h14.19.442,jpn_C01,2022.1.2,Win32,60.12144532,,,space,3.6148,0,13,13,25,1,ピク　パツ　シド　ピポ,,,CartoonStims/artist_shoot_doctor_r_no.jpg,audio/pikupatsusidopipo.mp3,,,,,,,,,,,,,,,,,,,,,,,,,,,,,,,,,,,,,,,,,,,,,,,,,,,,,,,,,,,,,,,,,,,,,
,,,,,,,,,R_22Mnws3PLImqqsz,2022-07-02_18h14.19.442,jpn_C01,2022.1.2,Win32,60.12144532,,,space,7.5942,0,14,14,28,1,パツ　ピク　ホレト　ドキ,,,CartoonStims/chef_shoot_boxer_r_no.jpg,audio/patsupikuhoretodoki.mp3,,,,,,,,,,,,,,,,,,,,,,,,,,,,,,,,,,,,,,,,,,,,,,,,,,,,,,,,,,,,,,,,,,,,,
,,,,,,,,,R_22Mnws3PLImqqsz,2022-07-02_18h14.19.442,jpn_C01,2022.1.2,Win32,60.12144532,,,space,6.3965,0,15,15,3,1,セル　ピク　ルピン　ムク,,,CartoonStims/burglar_kick_cowboy_r_no.jpg,audio/serupikulupinmuku.mp3,,,,,,,,,,,,,,,,,,,,,,,,,,,,,,,,,,,,,,,,,,,,,,,,,,,,,,,,,,,,,,,,,,,,,
,,,,,,,,,R_22Mnws3PLImqqsz,2022-07-02_18h14.19.442,jpn_C01,2022.1.2,Win32,60.12144532,,,space,14.9877,0,16,16,12,1,トマ　ピク　シド　ホレト,,,CartoonStims/artist_point_chef_r_no.jpg,audio/tomapikusidohoreto.mp3,,,,,,,,,,,,,,,,,,,,,,,,,,,,,,,,,,,,,,,,,,,,,,,,,,,,,,,,,,,,,,,,,,,,,
,,,,,,,,,R_22Mnws3PLImqqsz,2022-07-02_18h14.19.442,jpn_C01,2022.1.2,Win32,60.12144532,,,space,7.1612,0,17,17,23,1,ピク　トマ　ドキ　ホレト,,,CartoonStims/boxer_point_chef_r_no.jpg,audio/pikutomadokihoreto.mp3,,,,,,,,,,,,,,,,,,,,,,,,,,,,,,,,,,,,,,,,,,,,,,,,,,,,,,,,,,,,,,,,,,,,,
,,,,,,,,,R_22Mnws3PLImqqsz,2022-07-02_18h14.19.442,jpn_C01,2022.1.2,Win32,60.12144532,,,space,4.2155,0,18,18,6,1,ピク　セル　ムク　ピポ,,,CartoonStims/cowboy_kick_doctor_r_no.jpg,audio/pikuserumukupipo.mp3,,,,,,,,,,,,,,,,,,,,,,,,,,,,,,,,,,,,,,,,,,,,,,,,,,,,,,,,,,,,,,,,,,,,,
,,,,,,,,,R_22Mnws3PLImqqsz,2022-07-02_18h14.19.442,jpn_C01,2022.1.2,Win32,60.12144532,,,space,5.2292,0,19,19,38,1,ピク　プミ　ルピン　ドキ,,,CartoonStims/burglar_punch_boxer_r_no.jpg,audio/pikupumilupindoki.mp3,,,,,,,,,,,,,,,,,,,,,,,,,,,,,,,,,,,,,,,,,,,,,,,,,,,,,,,,,,,,,,,,,,,,,
,,,,,,,,,R_22Mnws3PLImqqsz,2022-07-02_18h14.19.442,jpn_C01,2022.1.2,Win32,60.12144532,,,space,5.7619,0,20,20,34,1,パツ　ピク　ドキ　ホレト,,,CartoonStims/boxer_shoot_chef_r_no.jpg,audio/patsupikudokihoreto.mp3,,,,,,,,,,,,,,,,,,,,,,,,,,,,,,,,,,,,,,,,,,,,,,,,,,,,,,,,,,,,,,,,,,,,,
,,,,,,,,,R_22Mnws3PLImqqsz,2022-07-02_18h14.19.442,jpn_C01,2022.1.2,Win32,60.12144532,,,space,9.6464,0,21,21,45,1,プミ　ピク　ピポ　ムク,,,CartoonStims/doctor_punch_cowboy_r_no.jpg,audio/pumipikupipomuku.mp3,,,,,,,,,,,,,,,,,,,,,,,,,,,,,,,,,,,,,,,,,,,,,,,,,,,,,,,,,,,,,,,,,,,,,
,,,,,,,,,R_22Mnws3PLImqqsz,2022-07-02_18h14.19.442,jpn_C01,2022.1.2,Win32,60.12144532,,,space,6.1451,0,22,22,33,1,ピク　パツ　ピポ　ホレト,,,CartoonStims/doctor_shoot_chef_r_no.jpg,audio/pikupatsupipohoreto.mp3,,,,,,,,,,,,,,,,,,,,,,,,,,,,,,,,,,,,,,,,,,,,,,,,,,,,,,,,,,,,,,,,,,,,,
,,,,,,,,,R_22Mnws3PLImqqsz,2022-07-02_18h14.19.442,jpn_C01,2022.1.2,Win32,60.12144532,,,space,4.4972,0,23,23,8,1,ピク　セル　ピポ　ドキ,,,CartoonStims/doctor_kick_boxer_r_no.jpg,audio/pikuserupipodoki.mp3,,,,,,,,,,,,,,,,,,,,,,,,,,,,,,,,,,,,,,,,,,,,,,,,,,,,,,,,,,,,,,,,,,,,,
,,,,,,,,,R_22Mnws3PLImqqsz,2022-07-02_18h14.19.442,jpn_C01,2022.1.2,Win32,60.12144532,,,space,3.8158,0,24,24,43,1,プミ　ピク　ムク　ホレト,,,CartoonStims/cowboy_punch_chef_r_no.jpg,audio/pumipikumukuhoreto.mp3,,,,,,,,,,,,,,,,,,,,,,,,,,,,,,,,,,,,,,,,,,,,,,,,,,,,,,,,,,,,,,,,,,,,,
,,,,,,,,,R_22Mnws3PLImqqsz,2022-07-02_18h14.19.442,jpn_C01,2022.1.2,Win32,60.12144532,,,space,9.5438,0,25,25,13,1,ピク　トマ　シド　ムク,,,CartoonStims/artist_point_cowboy_r_no.jpg,audio/pikutomasidomuku.mp3,,,,,,,,,,,,,,,,,,,,,,,,,,,,,,,,,,,,,,,,,,,,,,,,,,,,,,,,,,,,,,,,,,,,,
,,,,,,,,,R_22Mnws3PLImqqsz,2022-07-02_18h14.19.442,jpn_C01,2022.1.2,Win32,60.12144532,,,space,2.7705,0,26,26,24,1,パツ　ピク　シド　ムク,,,CartoonStims/artist_shoot_cowboy_r_no.jpg,audio/patsupikusidomuku.mp3,,,,,,,,,,,,,,,,,,,,,,,,,,,,,,,,,,,,,,,,,,,,,,,,,,,,,,,,,,,,,,,,,,,,,
,,,,,,,,,R_22Mnws3PLImqqsz,2022-07-02_18h14.19.442,jpn_C01,2022.1.2,Win32,60.12144532,,,space,2.2502,0,27,27,18,1,トマ　ピク　ムク　ドキ,,,CartoonStims/cowboy_point_boxer_r_no.jpg,audio/tomapikumukudoki.mp3,,,,,,,,,,,,,,,,,,,,,,,,,,,,,,,,,,,,,,,,,,,,,,,,,,,,,,,,,,,,,,,,,,,,,
,,,,,,,,,R_22Mnws3PLImqqsz,2022-07-02_18h14.19.442,jpn_C01,2022.1.2,Win32,60.12144532,,,space,2.7316,0,28,28,46,1,ピク　プミ　ドキ　ムク,,,CartoonStims/boxer_punch_cowboy_r_no.jpg,audio/pikupumidokimuku.mp3,,,,,,,,,,,,,,,,,,,,,,,,,,,,,,,,,,,,,,,,,,,,,,,,,,,,,,,,,,,,,,,,,,,,,
,,,,,,,,,R_22Mnws3PLImqqsz,2022-07-02_18h14.19.442,jpn_C01,2022.1.2,Win32,60.12144532,,,space,2.2816,0,29,29,36,1,ピク　プミ　シド　ピポ,,,CartoonStims/artist_punch_doctor_r_no.jpg,audio/pikupumisidopipo.mp3,,,,,,,,,,,,,,,,,,,,,,,,,,,,,,,,,,,,,,,,,,,,,,,,,,,,,,,,,,,,,,,,,,,,,
,,,,,,,,,R_22Mnws3PLImqqsz,2022-07-02_18h14.19.442,jpn_C01,2022.1.2,Win32,60.12144532,,,space,2.1164,0,30,30,20,1,トマ　ピク　ピポ　シド,,,CartoonStims/doctor_point_artist_r_no.jpg,audio/tomapikupiposido.mp3,,,,,,,,,,,,,,,,,,,,,,,,,,,,,,,,,,,,,,,,,,,,,,,,,,,,,,,,,,,,,,,,,,,,,
,,,,,,,,,R_22Mnws3PLImqqsz,2022-07-02_18h14.19.442,jpn_C01,2022.1.2,Win32,60.12144532,,,space,1.3676,0,31,31,5,1,セル　ピク　ホレト　ピポ,,,CartoonStims/chef_kick_doctor_r_no.jpg,audio/serupikuhoretopipo.mp3,,,,,,,,,,,,,,,,,,,,,,,,,,,,,,,,,,,,,,,,,,,,,,,,,,,,,,,,,,,,,,,,,,,,,
,,,,,,,,,R_22Mnws3PLImqqsz,2022-07-02_18h14.19.442,jpn_C01,2022.1.2,Win32,60.12144532,,,space,6.6476,0,32,32,0,1,ピク　セル　シド　ルピン,,,CartoonStims/artist_kick_burglar_r_no.jpg,audio/pikuserusidolupin.mp3,,,,,,,,,,,,,,,,,,,,,,,,,,,,,,,,,,,,,,,,,,,,,,,,,,,,,,,,,,,,,,,,,,,,,
,,,,,,,,,R_22Mnws3PLImqqsz,2022-07-02_18h14.19.442,jpn_C01,2022.1.2,Win32,60.12144532,,,space,8.6097,0,33,33,16,1,トマ　ピク　ホレト　ピポ,,,CartoonStims/chef_point_doctor_r_no.jpg,audio/tomapikuhoretopipo.mp3,,,,,,,,,,,,,,,,,,,,,,,,,,,,,,,,,,,,,,,,,,,,,,,,,,,,,,,,,,,,,,,,,,,,,
,,,,,,,,,R_22Mnws3PLImqqsz,2022-07-02_18h14.19.442,jpn_C01,2022.1.2,Win32,60.12144532,,,space,3.948,0,34,34,47,1,プミ　ピク　ドキ　ピポ,,,CartoonStims/boxer_punch_doctor_r_no.jpg,audio/pumipikudokipipo.mp3,,,,,,,,,,,,,,,,,,,,,,,,,,,,,,,,,,,,,,,,,,,,,,,,,,,,,,,,,,,,,,,,,,,,,
,,,,,,,,,R_22Mnws3PLImqqsz,2022-07-02_18h14.19.442,jpn_C01,2022.1.2,Win32,60.12144532,,,space,4.8889,0,35,35,29,1,ピク　パツ　ホレト　シド,,,CartoonStims/chef_shoot_artist_r_no.jpg,audio/pikupatsuhoretosido.mp3,,,,,,,,,,,,,,,,,,,,,,,,,,,,,,,,,,,,,,,,,,,,,,,,,,,,,,,,,,,,,,,,,,,,,
,,,,,,,,,R_22Mnws3PLImqqsz,2022-07-02_18h14.19.442,jpn_C01,2022.1.2,Win32,60.12144532,,,space,5.2465,0,36,36,42,1,ピク　プミ　ムク　ルピン,,,CartoonStims/cowboy_punch_burglar_r_no.jpg,audio/pikupumimukulupin.mp3,,,,,,,,,,,,,,,,,,,,,,,,,,,,,,,,,,,,,,,,,,,,,,,,,,,,,,,,,,,,,,,,,,,,,
,,,,,,,,,R_22Mnws3PLImqqsz,2022-07-02_18h14.19.442,jpn_C01,2022.1.2,Win32,60.12144532,,,space,3.914,0,37,37,41,1,プミ　ピク　ホレト　ルピン,,,CartoonStims/chef_punch_burglar_r_no.jpg,audio/pumipikuhoretolupin.mp3,,,,,,,,,,,,,,,,,,,,,,,,,,,,,,,,,,,,,,,,,,,,,,,,,,,,,,,,,,,,,,,,,,,,,
,,,,,,,,,R_22Mnws3PLImqqsz,2022-07-02_18h14.19.442,jpn_C01,2022.1.2,Win32,60.12144532,,,space,2.8817,0,38,38,14,1,トマ　ピク　ルピン　ムク,,,CartoonStims/burglar_point_cowboy_r_no.jpg,audio/tomapikulupinmuku.mp3,,,,,,,,,,,,,,,,,,,,,,,,,,,,,,,,,,,,,,,,,,,,,,,,,,,,,,,,,,,,,,,,,,,,,
,,,,,,,,,R_22Mnws3PLImqqsz,2022-07-02_18h14.19.442,jpn_C01,2022.1.2,Win32,60.12144532,,,space,2.4526,0,39,39,10,1,ピク　セル　ドキ　シド,,,CartoonStims/boxer_kick_artist_r_no.jpg,audio/pikuserudokisido.mp3,,,,,,,,,,,,,,,,,,,,,,,,,,,,,,,,,,,,,,,,,,,,,,,,,,,,,,,,,,,,,,,,,,,,,
,,,,,,,,,R_22Mnws3PLImqqsz,2022-07-02_18h14.19.442,jpn_C01,2022.1.2,Win32,60.12144532,,,space,3.3144,0,40,40,27,1,ピク　パツ　ルピン　ドキ,,,CartoonStims/burglar_shoot_boxer_r_no.jpg,audio/pikupatsulupindoki.mp3,,,,,,,,,,,,,,,,,,,,,,,,,,,,,,,,,,,,,,,,,,,,,,,,,,,,,,,,,,,,,,,,,,,,,
,,,,,,,,,R_22Mnws3PLImqqsz,2022-07-02_18h14.19.442,jpn_C01,2022.1.2,Win32,60.12144532,,,space,2.7001,0,41,41,37,1,プミ　ピク　シド　ドキ,,,CartoonStims/artist_punch_boxer_r_no.jpg,audio/pumipikusidodoki.mp3,,,,,,,,,,,,,,,,,,,,,,,,,,,,,,,,,,,,,,,,,,,,,,,,,,,,,,,,,,,,,,,,,,,,,
,,,,,,,,,R_22Mnws3PLImqqsz,2022-07-02_18h14.19.442,jpn_C01,2022.1.2,Win32,60.12144532,,,space,2.4323,0,42,42,31,1,ピク　パツ　ムク　ルピン,,,CartoonStims/cowboy_shoot_burglar_r_no.jpg,audio/pikupatsumukulupin.mp3,,,,,,,,,,,,,,,,,,,,,,,,,,,,,,,,,,,,,,,,,,,,,,,,,,,,,,,,,,,,,,,,,,,,,
,,,,,,,,,R_22Mnws3PLImqqsz,2022-07-02_18h14.19.442,jpn_C01,2022.1.2,Win32,60.12144532,,,space,2.8152,0,43,43,15,1,ピク　トマ　ルピン　ピポ,,,CartoonStims/burglar_point_doctor_r_no.jpg,audio/pikutomalupinpipo.mp3,,,,,,,,,,,,,,,,,,,,,,,,,,,,,,,,,,,,,,,,,,,,,,,,,,,,,,,,,,,,,,,,,,,,,
,,,,,,,,,R_22Mnws3PLImqqsz,2022-07-02_18h14.19.442,jpn_C01,2022.1.2,Win32,60.12144532,,,space,3.0821,0,44,44,39,1,プミ　ピク　ルピン　シド,,,CartoonStims/burglar_punch_artist_r_no.jpg,audio/pumipikulupinsido.mp3,,,,,,,,,,,,,,,,,,,,,,,,,,,,,,,,,,,,,,,,,,,,,,,,,,,,,,,,,,,,,,,,,,,,,
,,,,,,,,,R_22Mnws3PLImqqsz,2022-07-02_18h14.19.442,jpn_C01,2022.1.2,Win32,60.12144532,,,space,3.8475,0,45,45,7,1,セル　ピク　ムク　ドキ,,,CartoonStims/cowboy_kick_boxer_r_no.jpg,audio/serupikumukudoki.mp3,,,,,,,,,,,,,,,,,,,,,,,,,,,,,,,,,,,,,,,,,,,,,,,,,,,,,,,,,,,,,,,,,,,,,
,,,,,,,,,R_22Mnws3PLImqqsz,2022-07-02_18h14.19.442,jpn_C01,2022.1.2,Win32,60.12144532,,,space,2.6829,0,46,46,26,1,パツ　ピク　ルピン　ピポ,,,CartoonStims/burglar_shoot_doctor_r_no.jpg,audio/patsupikulupinpipo.mp3,,,,,,,,,,,,,,,,,,,,,,,,,,,,,,,,,,,,,,,,,,,,,,,,,,,,,,,,,,,,,,,,,,,,,
,,,,,,,,,R_22Mnws3PLImqqsz,2022-07-02_18h14.19.442,jpn_C01,2022.1.2,Win32,60.12144532,,,space,2.4156,0,47,47,11,1,セル　ピク　ドキ　ルピン,,,CartoonStims/boxer_kick_burglar_r_no.jpg,audio/serupikudokilupin.mp3,,,,,,,,,,,,,,,,,,,,,,,,,,,,,,,,,,,,,,,,,,,,,,,,,,,,,,,,,,,,,,,,,,,,,
,,,,,,,,,R_22Mnws3PLImqqsz,2022-07-02_18h14.19.442,jpn_C01,2022.1.2,Win32,60.12144532,,,,,,,,,,,,,,,space,0.1359,right,0,12.9716,,,,,,,,,,,,,,,,,,,,,,,,,,,,,,,,,,,,,,,,,,,,,,,,,,,,,,,,,0,0,0,0,1,,,
,,,,,,,,,R_22Mnws3PLImqqsz,2022-07-02_18h14.19.442,jpn_C01,2022.1.2,Win32,60.12144532,,,,,,,,,,,,,,,,,,,,,,,,,0,0,0,2,1,CartoonStims/doctor_point_boxer_r.jpg,ピク　プミ　ピポ　ドキ,CartoonStims/doctor_punch_boxer_r.jpg,left,CartoonStims/doctor_point_boxer_r.jpg,audio/pikupumipipodoki.mp3,"残念！ こちらが正しい画像です。

否定文は起きていないことを示しているのを思い出してください。",,,,,,,,,,,,,,,,,,,,,,,,,,,,,,,,,,,,,,,,,,,,,,,
,,,,,,,,,R_22Mnws3PLImqqsz,2022-07-02_18h14.19.442,jpn_C01,2022.1.2,Win32,60.12144532,,,,,,,,,,,,,,,,,right,1,4.3985,,,,,,,,,,,,,,,,,,0,0,0,0,1,,,,,,,,,,,,,,,,,,,,,,,,,,,,,,,,,,,,,,,,,,
,,,,,,,,,R_22Mnws3PLImqqsz,2022-07-02_18h14.19.442,jpn_C01,2022.1.2,Win32,60.12144532,,,,,,,,,,,,,,,,,,,,,,,,,0,1,1,9,1,CartoonStims/boxer_shoot_doctor_r.jpg,パツ　ピク　ドキ　ピポ,CartoonStims/boxer_point_doctor_r.jpg,right,CartoonStims/boxer_point_doctor_r.jpg,audio/patsupikudokipipo.mp3,"残念！ こちらが正しい画像です。

否定文は起きていないことを示しているのを思い出してください。",,,,,,,,,,,,,,,,,,,,,,,,,,,,,,,,,,,,,,,,,,,,,,,
,,,,,,,,,R_22Mnws3PLImqqsz,2022-07-02_18h14.19.442,jpn_C01,2022.1.2,Win32,60.12144532,,,,,,,,,,,,,,,,,right,1,3.8814,,,,,,,,,,,,,,,,,,0,0,0,0,1,,,,,,,,,,,,,,,,,,,,,,,,,,,,,,,,,,,,,,,,,,
,,,,,,,,,R_22Mnws3PLImqqsz,2022-07-02_18h14.19.442,jpn_C01,2022.1.2,Win32,60.12144532,,,,,,,,,,,,,,,,,,,,,,,,,0,2,2,5,1,CartoonStims/boxer_kick_cowboy_r.jpg,ピク　セル　ドキ　ムク,CartoonStims/boxer_punch_cowboy_r.jpg,right,CartoonStims/boxer_punch_cowboy_r.jpg,audio/pikuserudokimuku.mp3,"残念！ こちらが正しい画像です。

否定文は起きていないことを示しているのを思い出してください。",,,,,,,,,,,,,,,,,,,,,,,,,,,,,,,,,,,,,,,,,,,,,,,
,,,,,,,,,R_22Mnws3PLImqqsz,2022-07-02_18h14.19.442,jpn_C01,2022.1.2,Win32,60.12144532,,,,,,,,,,,,,,,,,right,1,2.4331,,,,,,,,,,,,,,,,,,0,0,0,0,1,,,,,,,,,,,,,,,,,,,,,,,,,,,,,,,,,,,,,,,,,,
,,,,,,,,,R_22Mnws3PLImqqsz,2022-07-02_18h14.19.442,jpn_C01,2022.1.2,Win32,60.12144532,,,,,,,,,,,,,,,,,,,,,,,,,0,3,3,3,1,CartoonStims/chef_kick_artist_r.jpg,ピク　セル　ホレト　シド,CartoonStims/chef_point_artist_r.jpg,right,CartoonStims/chef_point_artist_r.jpg,audio/pikuseruhoretosido.mp3,"残念！ こちらが正しい画像です。

否定文は起きていないことを示しているのを思い出してください。",,,,,,,,,,,,,,,,,,,,,,,,,,,,,,,,,,,,,,,,,,,,,,,
,,,,,,,,,R_22Mnws3PLImqqsz,2022-07-02_18h14.19.442,jpn_C01,2022.1.2,Win32,60.12144532,,,,,,,,,,,,,,,,,right,1,1.3292,,,,,,,,,,,,,,,,,,0,0,0,0,1,,,,,,,,,,,,,,,,,,,,,,,,,,,,,,,,,,,,,,,,,,
,,,,,,,,,R_22Mnws3PLImqqsz,2022-07-02_18h14.19.442,jpn_C01,2022.1.2,Win32,60.12144532,,,,,,,,,,,,,,,,,,,,,,,,,0,4,4,7,1,CartoonStims/cowboy_point_chef_r.jpg,ピク　トマ　ムク　ホレト,CartoonStims/cowboy_kick_chef_r.jpg,right,CartoonStims/cowboy_kick_chef_r.jpg,audio/pikutomamukuhoreto.mp3,"残念！ こちらが正しい画像です。

否定文は起きていないことを示しているのを思い出してください。",,,,,,,,,,,,,,,,,,,,,,,,,,,,,,,,,,,,,,,,,,,,,,,
,,,,,,,,,R_22Mnws3PLImqqsz,2022-07-02_18h14.19.442,jpn_C01,2022.1.2,Win32,60.12144532,,,,,,,,,,,,,,,,,left,1,1.369,0,0,0,0,1,,,,,,,,,,,,,,,,,,,,,,,,,,,,,,,,,,,,,,,,,,,,,,,,,,,,,,,,,,,
,,,,,,,,,R_22Mnws3PLImqqsz,2022-07-02_18h14.19.442,jpn_C01,2022.1.2,Win32,60.12144532,,,,,,,,,,,,,,,,,,,,,,,,,0,5,5,6,1,CartoonStims/artist_shoot_boxer_r.jpg,トマ　ピク　シド　ドキ,CartoonStims/artist_point_boxer_r.jpg,left,CartoonStims/artist_shoot_boxer_r.jpg,audio/tomapikusidodoki.mp3,"残念！ こちらが正しい画像です。

否定文は起きていないことを示しているのを思い出してください。",,,,,,,,,,,,,,,,,,,,,,,,,,,,,,,,,,,,,,,,,,,,,,,
,,,,,,,,,R_22Mnws3PLImqqsz,2022-07-02_18h14.19.442,jpn_C01,2022.1.2,Win32,60.12144532,,,,,,,,,,,,,,,,,left,1,2.6653,0,0,0,0,1,,,,,,,,,,,,,,,,,,,,,,,,,,,,,,,,,,,,,,,,,,,,,,,,,,,,,,,,,,,
,,,,,,,,,R_22Mnws3PLImqqsz,2022-07-02_18h14.19.442,jpn_C01,2022.1.2,Win32,60.12144532,,,,,,,,,,,,,,,,,,,,,,,,,0,6,6,4,1,CartoonStims/burglar_shoot_doctor_r.jpg,セル　ピク　ルピン　ピポ,CartoonStims/burglar_kick_doctor_r.jpg,left,CartoonStims/burglar_shoot_doctor_r.jpg,audio/serupikulupinpipo.mp3,"残念！ こちらが正しい画像です。

否定文は起きていないことを示しているのを思い出してください。",,,,,,,,,,,,,,,,,,,,,,,,,,,,,,,,,,,,,,,,,,,,,,,
,,,,,,,,,R_22Mnws3PLImqqsz,2022-07-02_18h14.19.442,jpn_C01,2022.1.2,Win32,60.12144532,,,,,,,,,,,,,,,,,left,1,2.3678,0,0,0,0,1,,,,,,,,,,,,,,,,,,,,,,,,,,,,,,,,,,,,,,,,,,,,,,,,,,,,,,,,,,,
,,,,,,,,,R_22Mnws3PLImqqsz,2022-07-02_18h14.19.442,jpn_C01,2022.1.2,Win32,60.12144532,,,,,,,,,,,,,,,,,,,,,,,,,0,7,7,8,1,CartoonStims/burglar_punch_artist_r.jpg,トマ　ピク　ルピン　シド,CartoonStims/burglar_point_artist_r.jpg,left,CartoonStims/burglar_punch_artist_r.jpg,audio/tomapikulupinsido.mp3,"残念！ こちらが正しい画像です。

否定文は起きていないことを示しているのを思い出してください。",,,,,,,,,,,,,,,,,,,,,,,,,,,,,,,,,,,,,,,,,,,,,,,
,,,,,,,,,R_22Mnws3PLImqqsz,2022-07-02_18h14.19.442,jpn_C01,2022.1.2,Win32,60.12144532,,,,,,,,,,,,,,,,,right,1,4.7302,,,,,,,,,,,,,,,,,,0,0,0,0,1,,,,,,,,,,,,,,,,,,,,,,,,,,,,,,,,,,,,,,,,,,
,,,,,,,,,R_22Mnws3PLImqqsz,2022-07-02_18h14.19.442,jpn_C01,2022.1.2,Win32,60.12144532,,,,,,,,,,,,,,,,,,,,,,,,,0,8,8,11,1,CartoonStims/chef_shoot_burglar_r.jpg,パツ　ピク　ホレト　ルピン,CartoonStims/chef_kick_burglar_r.jpg,right,CartoonStims/chef_kick_burglar_r.jpg,audio/patsupikuhoretolupin.mp3,"残念！ こちらが正しい画像です。

否定文は起きていないことを示しているのを思い出してください。",,,,,,,,,,,,,,,,,,,,,,,,,,,,,,,,,,,,,,,,,,,,,,,
,,,,,,,,,R_22Mnws3PLImqqsz,2022-07-02_18h14.19.442,jpn_C01,2022.1.2,Win32,60.12144532,,,,,,,,,,,,,,,,,left,1,8.9935,0,0,0,0,1,,,,,,,,,,,,,,,,,,,,,,,,,,,,,,,,,,,,,,,,,,,,,,,,,,,,,,,,,,,
,,,,,,,,,R_22Mnws3PLImqqsz,2022-07-02_18h14.19.442,jpn_C01,2022.1.2,Win32,60.12144532,,,,,,,,,,,,,,,,,,,,,,,,,0,9,9,0,1,CartoonStims/artist_shoot_burglar_r.jpg,ピク　プミ　シド　ルピン,CartoonStims/artist_punch_burglar_r.jpg,left,CartoonStims/artist_shoot_burglar_r.jpg,audio/pikupumisidolupin.mp3,"残念！ こちらが正しい画像です。

否定文は起きていないことを示しているのを思い出してください。",,,,,,,,,,,,,,,,,,,,,,,,,,,,,,,,,,,,,,,,,,,,,,,
,,,,,,,,,R_22Mnws3PLImqqsz,2022-07-02_18h14.19.442,jpn_C01,2022.1.2,Win32,60.12144532,,,,,,,,,,,,,,,,,left,1,1.616,0,0,0,0,1,,,,,,,,,,,,,,,,,,,,,,,,,,,,,,,,,,,,,,,,,,,,,,,,,,,,,,,,,,,
,,,,,,,,,R_22Mnws3PLImqqsz,2022-07-02_18h14.19.442,jpn_C01,2022.1.2,Win32,60.12144532,,,,,,,,,,,,,,,,,,,,,,,,,0,10,10,10,1,CartoonStims/doctor_punch_cowboy_r.jpg,ピク　パツ　ピポ　ムク,CartoonStims/doctor_shoot_cowboy_r.jpg,left,CartoonStims/doctor_punch_cowboy_r.jpg,audio/pikupatsupipomuku.mp3,"残念！ こちらが正しい画像です。

否定文は起きていないことを示しているのを思い出してください。",,,,,,,,,,,,,,,,,,,,,,,,,,,,,,,,,,,,,,,,,,,,,,,
,,,,,,,,,R_22Mnws3PLImqqsz,2022-07-02_18h14.19.442,jpn_C01,2022.1.2,Win32,60.12144532,,,,,,,,,,,,,,,,,right,1,1.2677,,,,,,,,,,,,,,,,,,0,0,0,0,1,,,,,,,,,,,,,,,,,,,,,,,,,,,,,,,,,,,,,,,,,,
,,,,,,,,,R_22Mnws3PLImqqsz,2022-07-02_18h14.19.442,jpn_C01,2022.1.2,Win32,60.12144532,,,,,,,,,,,,,,,,,,,,,,,,,0,11,11,1,1,CartoonStims/chef_punch_cowboy_r.jpg,プミ　ピク　ホレト　ムク,CartoonStims/chef_kick_cowboy_r.jpg,right,CartoonStims/chef_kick_cowboy_r.jpg,audio/pumipikuhoretomuku.mp3,"残念！ こちらが正しい画像です。

否定文は起きていないことを示しているのを思い出してください。",,,,,,,,,,,,,,,,,,,,,,,,,,,,,,,,,,,,,,,,,,,,,,,
,,,,,,,,,R_22Mnws3PLImqqsz,2022-07-02_18h14.19.442,jpn_C01,2022.1.2,Win32,60.12144532,,,,,,,,,,,,,CartoonStims/chef_punch_boxer_r_no.jpg,,,,,,,,,,,,,,,,,,,,,,,,,,,,,space,8.3451,プミ　ピク　ホレト　ドキ,right,23.63,,,,,,0,0,0,20,1,,,,,,,,,,,,,,,,,,,,,,,,,ピク　プミ　ホレト　ドキ,プミ　ピク　ホレト　ドキ,1
,,,,,,,,,R_22Mnws3PLImqqsz,2022-07-02_18h14.19.442,jpn_C01,2022.1.2,Win32,60.12144532,,,,,,,,,,,,,CartoonStims/artist_punch_burglar_r.jpg,,,,,,,,,,,,,,,,,,,,,,,,,,,,,,,プミ　シド　ルピン,right,12.8008,,,,,,0,1,1,33,1,,,,,,,,,,,,,,,,,,,,,,,,,プミ　シド　ルピン,プミ　シド　ルピン,0
,,,,,,,,,R_22Mnws3PLImqqsz,2022-07-02_18h14.19.442,jpn_C01,2022.1.2,Win32,60.12144532,,,,,,,,,,,,,CartoonStims/doctor_punch_boxer_r.jpg,,,,,,,,,,,,,,,,,,,,,,,,,,,,,,,プミ　ピポ　ドキ,right,8.9584,,,,,,0,2,2,34,1,,,,,,,,,,,,,,,,,,,,,,,,,プミ　ピポ　ドキ,プミ　ピポ　ドキ,0
,,,,,,,,,R_22Mnws3PLImqqsz,2022-07-02_18h14.19.442,jpn_C01,2022.1.2,Win32,60.12144532,,,,,,,,,,,,,CartoonStims/chef_point_burglar_r.jpg,,,,,,,,,,,,,,,,,,,,,,,,,,,,,,,トマ　ホレト　ルピン,right,7.493,,,,,,0,3,3,29,1,,,,,,,,,,,,,,,,,,,,,,,,,トマ　ホレト　ルピン,トマ　ホレト　ルピン,0
,,,,,,,,,R_22Mnws3PLImqqsz,2022-07-02_18h14.19.442,jpn_C01,2022.1.2,Win32,60.12144532,,,,,,,,,,,,,CartoonStims/doctor_kick_cowboy_r_no.jpg,,,,,,,,,,,,,,,,,,,,,,,,,,,,,,,ピク　セル　ピポ　ムク,right,23.5683,,,,,,0,4,4,4,1,,,,,,,,,,,,,,,,,,,,,,,,,ピク　セル　ピポ　ムク,セル　ピク　ピポ　ムク,1
,,,,,,,,,R_22Mnws3PLImqqsz,2022-07-02_18h14.19.442,jpn_C01,2022.1.2,Win32,60.12144532,,,,,,,,,,,,,CartoonStims/artist_kick_boxer_r_no.jpg,,,,,,,,,,,,,,,,,,,,,,,,,,,,,,,セル　ピク　シド　ドキ,right,15.7994,,,,,,0,5,5,0,1,,,,,,,,,,,,,,,,,,,,,,,,,ピク　セル　シド　ドキ,セル　ピク　シド　ドキ,1
,,,,,,,,,R_22Mnws3PLImqqsz,2022-07-02_18h14.19.442,jpn_C01,2022.1.2,Win32,60.12144532,,,,,,,,,,,,,CartoonStims/boxer_kick_doctor_r_no.jpg,,,,,,,,,,,,,,,,,,,,,,,,,,,,,,,セル　ピク　ドキ　ピポ,right,17.2273,,,,,,0,6,6,5,1,,,,,,,,,,,,,,,,,,,,,,,,,ピク　セル　ドキ　ピポ,セル　ピク　ドキ　ピポ,1
,,,,,,,,,R_22Mnws3PLImqqsz,2022-07-02_18h14.19.442,jpn_C01,2022.1.2,Win32,60.12144532,,,,,,,,,,,,,CartoonStims/chef_point_cowboy_r_no.jpg,,,,,,,,,,,,,,,,,,,,,,,,,,,,,,,ピク　トマ　シド　ムク,right,10.2461,,,,,,0,7,7,8,1,,,,,,,,,,,,,,,,,,,,,,,,,ピク　トマ　ホレト　ムク,トマ　ピク　ホレト　ムク,1
,,,,,,,,,R_22Mnws3PLImqqsz,2022-07-02_18h14.19.442,jpn_C01,2022.1.2,Win32,60.12144532,,,,,,,,,,,,,CartoonStims/boxer_kick_cowboy_r.jpg,,,,,,,,,,,,,,,,,,,,,,,,,,,,,,,セル　ドキ　ムク,right,10.5189,,,,,,0,8,8,26,1,,,,,,,,,,,,,,,,,,,,,,,,,セル　ドキ　ムク,セル　ドキ　ムク,0
,,,,,,,,,R_22Mnws3PLImqqsz,2022-07-02_18h14.19.442,jpn_C01,2022.1.2,Win32,60.12144532,,,,,,,,,,,,,CartoonStims/artist_point_boxer_r.jpg,,,,,,,,,,,,,,,,,,,,,,,,,,,,,,,トマ　シド　ドキ,right,8.5513,,,,,,0,9,9,27,1,,,,,,,,,,,,,,,,,,,,,,,,,トマ　シド　ドキ,トマ　シド　ドキ,0
,,,,,,,,,R_22Mnws3PLImqqsz,2022-07-02_18h14.19.442,jpn_C01,2022.1.2,Win32,60.12144532,,,,,,,,,,,,,CartoonStims/artist_shoot_chef_r_no.jpg,,,,,,,,,,,,,,,,,,,,,,,,,,,,,,,ピク　パツ　シド　ホレト,right,15.0826,,,,,,0,10,10,12,1,,,,,,,,,,,,,,,,,,,,,,,,,ピク　パツ　シド　ホレト,パツ　ピク　シド　ホレト,1
,,,,,,,,,R_22Mnws3PLImqqsz,2022-07-02_18h14.19.442,jpn_C01,2022.1.2,Win32,60.12144532,,,,,,,,,,,,,CartoonStims/burglar_punch_doctor_r_no.jpg,,,,,,,,,,,,,,,,,,,,,,,,,,,,,,,ピク　プミ　ルピン　ピポ,right,16.8079,,,,,,0,11,11,19,1,,,,,,,,,,,,,,,,,,,,,,,,,ピク　プミ　ルピン　ピポ,プミ　ピク　ルピン　ピポ,1
,,,,,,,,,R_22Mnws3PLImqqsz,2022-07-02_18h14.19.442,jpn_C01,2022.1.2,Win32,60.12144532,,,,,,,,,,,,,CartoonStims/doctor_punch_burglar_r_no.jpg,,,,,,,,,,,,,,,,,,,,,,,,,,,,,,,プミ　ピク　ピポ　ルピン,right,14.9534,,,,,,0,12,12,22,1,,,,,,,,,,,,,,,,,,,,,,,,,ピク　プミ　ピポ　ルピン,プミ　ピク　ピポ　ルピン,1
,,,,,,,,,R_22Mnws3PLImqqsz,2022-07-02_18h14.19.442,jpn_C01,2022.1.2,Win32,60.12144532,,,,,,,,,,,,,CartoonStims/burglar_point_chef_r_no.jpg,,,,,,,,,,,,,,,,,,,,,,,,,,,,,,,ピク　トマ　ルピン　ホレト,right,17.0958,,,,,,0,13,13,7,1,,,,,,,,,,,,,,,,,,,,,,,,,ピク　トマ　ルピン　ホレト,トマ　ピク　ルピン　ホレト,1
,,,,,,,,,R_22Mnws3PLImqqsz,2022-07-02_18h14.19.442,jpn_C01,2022.1.2,Win32,60.12144532,,,,,,,,,,,,,CartoonStims/boxer_point_artist_r_no.jpg,,,,,,,,,,,,,,,,,,,,,,,,,,,,,,,トマ　ピク　ドキ　シド,right,11.8552,,,,,,0,14,14,11,1,,,,,,,,,,,,,,,,,,,,,,,,,ピク　トマ　ドキ　シド,トマ　ピク　ドキ　シド,1
,,,,,,,,,R_22Mnws3PLImqqsz,2022-07-02_18h14.19.442,jpn_C01,2022.1.2,Win32,60.12144532,,,,,,,,,,,,,CartoonStims/burglar_shoot_cowboy_r_no.jpg,,,,,,,,,,,,,,,,,,,,,,,,,,,,,,,パツ　ピク　ルピン　ムク,right,12.2121,,,,,,0,15,15,13,1,,,,,,,,,,,,,,,,,,,,,,,,,ピク　パツ　ルピン　ムク,パツ　ピク　ルピン　ムク,1
,,,,,,,,,R_22Mnws3PLImqqsz,2022-07-02_18h14.19.442,jpn_C01,2022.1.2,Win32,60.12144532,,,,,,,,,,,,,CartoonStims/cowboy_shoot_doctor_r.jpg,,,,,,,,,,,,,,,,,,,,,,,,,,,,,,,パツ　ムク　ピポ,right,12.5736,,,,,,0,16,16,32,1,,,,,,,,,,,,,,,,,,,,,,,,,パツ　ムク　ピポ,パツ　ムク　ピポ,0
,,,,,,,,,R_22Mnws3PLImqqsz,2022-07-02_18h14.19.442,jpn_C01,2022.1.2,Win32,60.12144532,,,,,,,,,,,,,CartoonStims/doctor_point_boxer_r_no.jpg,,,,,,,,,,,,,,,,,,,,,,,,,,,,,,,ピク　トマ　ピポ　ドキ,right,13.9677,,,,,,0,17,17,10,1,,,,,,,,,,,,,,,,,,,,,,,,,ピク　トマ　ピポ　ドキ,トマ　ピク　ピポ　ドキ,1
,,,,,,,,,R_22Mnws3PLImqqsz,2022-07-02_18h14.19.442,jpn_C01,2022.1.2,Win32,60.12144532,,,,,,,,,,,,,CartoonStims/artist_point_burglar_r_no.jpg,,,,,,,,,,,,,,,,,,,,,,,,,,,,,,,トマ　ピク　シド　ルピン,right,10.85,,,,,,0,18,18,6,1,,,,,,,,,,,,,,,,,,,,,,,,,ピク　トマ　シド　ルピン,トマ　ピク　シド　ルピン,1
,,,,,,,,,R_22Mnws3PLImqqsz,2022-07-02_18h14.19.442,jpn_C01,2022.1.2,Win32,60.12144532,,,,,,,,,,,,,CartoonStims/doctor_kick_chef_r.jpg,,,,,,,,,,,,,,,,,,,,,,,,,,,,,,,セル　ピポ　ホレト,right,10.539,,,,,,0,19,19,25,1,,,,,,,,,,,,,,,,,,,,,,,,,セル　ピポ　ホレト,セル　ピポ　ホレト,0
,,,,,,,,,R_22Mnws3PLImqqsz,2022-07-02_18h14.19.442,jpn_C01,2022.1.2,Win32,60.12144532,,,,,,,,,,,,,CartoonStims/chef_kick_burglar_r_no.jpg,,,,,,,,,,,,,,,,,,,,,,,,,,,,,,,,right,0.0013,,,,,,0,20,20,2,1,,,,,,,,,,,,,,,,,,,,,,,,,ピク　セル　ホレト　ルピン,セル　ピク　ホレト　ルピン,1
,,,,,,,,,R_22Mnws3PLImqqsz,2022-07-02_18h14.19.442,jpn_C01,2022.1.2,Win32,60.12144532,,,,,,,,,,,,,CartoonStims/boxer_punch_artist_r.jpg,,,,,,,,,,,,,,,,,,,,,,,,,,,,,,,プミ　ドキ　シド,right,9.9326,,,,,,0,21,21,35,1,,,,,,,,,,,,,,,,,,,,,,,,,プミ　ドキ　シド,プミ　ドキ　シド,0
,,,,,,,,,R_22Mnws3PLImqqsz,2022-07-02_18h14.19.442,jpn_C01,2022.1.2,Win32,60.12144532,,,,,,,,,,,,,CartoonStims/cowboy_shoot_boxer_r_no.jpg,,,,,,,,,,,,,,,,,,,,,,,,,,,,,,,,right,0.0016,,,,,,0,22,22,15,1,,,,,,,,,,,,,,,,,,,,,,,,,ピク　パツ　ムク　ドキ,パツ　ピク　ムク　ドキ,1
,,,,,,,,,R_22Mnws3PLImqqsz,2022-07-02_18h14.19.442,jpn_C01,2022.1.2,Win32,60.12144532,,,,,,,,,,,,,CartoonStims/burglar_shoot_chef_r.jpg,,,,,,,,,,,,,,,,,,,,,,,,,,,,,,,パツ　ルピン　ホレト,right,10.8814,,,,,,0,23,23,30,1,,,,,,,,,,,,,,,,,,,,,,,,,パツ　ルピン　ホレト,パツ　ルピン　ホレト,0
,,,,,,,,,R_22Mnws3PLImqqsz,2022-07-02_18h14.19.442,jpn_C01,2022.1.2,Win32,60.12144532,,,,,,,,,,,,,CartoonStims/boxer_shoot_burglar_r_no.jpg,,,,,,,,,,,,,,,,,,,,,,,,,,,,,,,パツ　ピク　ドキ　ルピン,right,9.5912,,,,,,0,24,24,17,1,,,,,,,,,,,,,,,,,,,,,,,,,ピク　パツ　ドキ　ルピン,パツ　ピク　ドキ　ルピン,1
,,,,,,,,,R_22Mnws3PLImqqsz,2022-07-02_18h14.19.442,jpn_C01,2022.1.2,Win32,60.12144532,,,,,,,,,,,,,CartoonStims/burglar_kick_artist_r_no.jpg,,,,,,,,,,,,,,,,,,,,,,,,,,,,,,,セル　ピク　ルピン　シド,right,17.4581,,,,,,0,25,25,1,1,,,,,,,,,,,,,,,,,,,,,,,,,ピク　セル　ルピン　シド,セル　ピク　ルピン　シド,1
,,,,,,,,,R_22Mnws3PLImqqsz,2022-07-02_18h14.19.442,jpn_C01,2022.1.2,Win32,60.12144532,,,,,,,,,,,,,CartoonStims/chef_shoot_doctor_r_no.jpg,,,,,,,,,,,,,,,,,,,,,,,,,,,,,,,,right,0.0014,,,,,,0,26,26,14,1,,,,,,,,,,,,,,,,,,,,,,,,,ピク　パツ　ホレト　ピポ,パツ　ピク　ホレト　ピポ,1
,,,,,,,,,R_22Mnws3PLImqqsz,2022-07-02_18h14.19.442,jpn_C01,2022.1.2,Win32,60.12144532,,,,,,,,,,,,,CartoonStims/burglar_point_artist_r.jpg,,,,,,,,,,,,,,,,,,,,,,,,,,,,,,,トマ　ルピン　シド,right,7.3421,,,,,,0,27,27,28,1,,,,,,,,,,,,,,,,,,,,,,,,,トマ　ルピン　シド,トマ　ルピン　シド,0
,,,,,,,,,R_22Mnws3PLImqqsz,2022-07-02_18h14.19.442,jpn_C01,2022.1.2,Win32,60.12144532,,,,,,,,,,,,,CartoonStims/cowboy_kick_chef_r_no.jpg,,,,,,,,,,,,,,,,,,,,,,,,,,,,,,,ピク　セル　ムク　ホレト,right,15.105,,,,,,0,28,28,3,1,,,,,,,,,,,,,,,,,,,,,,,,,ピク　セル　ムク　ホレト,セル　ピク　ムク　ホレト,1
,,,,,,,,,R_22Mnws3PLImqqsz,2022-07-02_18h14.19.442,jpn_C01,2022.1.2,Win32,60.12144532,,,,,,,,,,,,,CartoonStims/cowboy_punch_artist_r_no.jpg,,,,,,,,,,,,,,,,,,,,,,,,,,,,,,,ピク　プミ　ムク　シド,right,15.4388,,,,,,0,29,29,21,1,,,,,,,,,,,,,,,,,,,,,,,,,ピク　プミ　ムク　シド,プミ　ピク　ムク　シド,1
,,,,,,,,,R_22Mnws3PLImqqsz,2022-07-02_18h14.19.442,jpn_C01,2022.1.2,Win32,60.12144532,,,,,,,,,,,,,CartoonStims/boxer_punch_chef_r_no.jpg,,,,,,,,,,,,,,,,,,,,,,,,,,,,,,,プミ　ピク　ドキ　ホレト,right,9.7455,,,,,,0,30,30,23,1,,,,,,,,,,,,,,,,,,,,,,,,,ピク　プミ　ドキ　ホレト,プミ　ピク　ドキ　ホレト,1
,,,,,,,,,R_22Mnws3PLImqqsz,2022-07-02_18h14.19.442,jpn_C01,2022.1.2,Win32,60.12144532,,,,,,,,,,,,,CartoonStims/cowboy_point_doctor_r_no.jpg,,,,,,,,,,,,,,,,,,,,,,,,,,,,,,,ピク　トマ　ムク　ピポ,right,16.6635,,,,,,0,31,31,9,1,,,,,,,,,,,,,,,,,,,,,,,,,ピク　トマ　ムク　ピポ,トマ　ピク　ムク　ピポ,1
,,,,,,,,,R_22Mnws3PLImqqsz,2022-07-02_18h14.19.442,jpn_C01,2022.1.2,Win32,60.12144532,,,,,,,,,,,,,CartoonStims/doctor_shoot_artist_r_no.jpg,,,,,,,,,,,,,,,,,,,,,,,,,,,,,,,パツ　ピク　ピポ　シド,right,18.9143,,,,,,0,32,32,16,1,,,,,,,,,,,,,,,,,,,,,,,,,ピク　パツ　ピポ　シド,パツ　ピク　ピポ　シド,1
,,,,,,,,,R_22Mnws3PLImqqsz,2022-07-02_18h14.19.442,jpn_C01,2022.1.2,Win32,60.12144532,,,,,,,,,,,,,CartoonStims/artist_punch_cowboy_r_no.jpg,,,,,,,,,,,,,,,,,,,,,,,,,,,,,,,ピク　プミ　シド　ムク,right,14.2976,,,,,,0,33,33,18,1,,,,,,,,,,,,,,,,,,,,,,,,,ピク　プミ　シド　ムク,プミ　ピク　シド　ムク,1
,,,,,,,,,R_22Mnws3PLImqqsz,2022-07-02_18h14.19.442,jpn_C01,2022.1.2,Win32,60.12144532,,,,,,,,,,,,,CartoonStims/cowboy_kick_burglar_r.jpg,,,,,,,,,,,,,,,,,,,,,,,,,,,,,,,セル　ムク　ルピン,right,12.103,,,,,,0,34,34,24,1,,,,,,,,,,,,,,,,,,,,,,,,,セル　ムク　ルピン,セル　ムク　ルピン,0
,,,,,,,,,R_22Mnws3PLImqqsz,2022-07-02_18h14.19.442,jpn_C01,2022.1.2,Win32,60.12144532,,,,,,,,,,,,,CartoonStims/chef_shoot_cowboy_r.jpg,,,,,,,,,,,,,,,,,,,,,,,,,,,,,,,パツ　ホレト　ムク,right,10.527,,,,,,0,35,35,31,1,,,,,,,,,,,,,,,,,,,,,,,,,パツ　ホレト　ムク,パツ　ホレト　ムク,0
,,,,,,,,,R_22Mnws3PLImqqsz,2022-07-02_18h14.19.442,jpn_C01,2022.1.2,Win32,60.12144532,,,,,,,,,,,,,,,,,,,,,,,,,,,,,,,,,,,,,,,,,,,,,,,,,,,,,,,,,,,space,0.8363,0,2,2,2,1,EquiprobableCondition.xlsx,"ここではこの言語における否定の文を学習していただきます。引き続き注意して、 聞こえた音を復唱してください。

スペースキーを押してください。",1,EquiFCT.xlsx,ここからクイズが始まります。 スクリーンに表示されるテキストに合うイメージを選んでください。,NegTest.xlsx,1,最後にここまで学んだことをアウトプットしていただきます。 テキストボックスにあるイメージを描写するテキストを入力してください。 このタスクでは、 答え合わせは行いません。,0,これですべての実験が終わりました。 お疲れさまです。 この後はアンケートに答えていただきます。,,,,,,,,