key_resp_instr_a.keys,key_resp_instr_a.rt,key_resp_instr_b.keys,key_resp_instr_b.rt,dummy.thisRepN,dummy.thisTrialN,dummy.thisN,dummy.thisIndex,dummy.ran,participant,date,expName,psychopyVersion,OS,frameRate,key_resp_instr1.keys,key_resp_instr1.rt,key_resp.keys,key_resp.rt,exp_loop.thisRepN,exp_loop.thisTrialN,exp_loop.thisN,exp_loop.thisIndex,exp_loop.ran,Word,English,Flip,Path,Audio,key_resp_instr2.keys,key_resp_instr2.rt,key_resp_fct.keys,key_resp_fct.corr,key_resp_fct.rt,trials_2.thisRepN,trials_2.thisTrialN,trials_2.thisN,trials_2.thisIndex,trials_2.ran,fct_loop.thisRepN,fct_loop.thisTrialN,fct_loop.thisN,fct_loop.thisIndex,fct_loop.ran,left_img,word,right_img,correctans,correct_img,audio,incorrect_feedback,trials.thisRepN,trials.thisTrialN,trials.thisN,trials.thisIndex,trials.ran,key_resp_instr3.keys,key_resp_instr3.rt,textbox.text,key_resp_2.keys,key_resp_2.rt,fb_yn.thisRepN,fb_yn.thisTrialN,fb_yn.thisN,fb_yn.thisIndex,fb_yn.ran,gather_loop.thisRepN,gather_loop.thisTrialN,gather_loop.thisN,gather_loop.thisIndex,gather_loop.ran,Text,Wordbank,key_resp_instr4.keys,key_resp_instr4.rt,master_loop.thisRepN,master_loop.thisTrialN,master_loop.thisN,master_loop.thisIndex,master_loop.ran,exposure_file,instr_1,exp_reps,fct_file,instr_2,gather_file,gather_reps,instr_3,fReps,instr_4,NegVSentence,VNegSentence,NegTF
space,5.5679,space,15.0999,0,0,0,0,1,R_UryUcXR5uIhqtCp,2022-07-15_10h40.27.289,jpn_C02,2022.1.2,MacIntel,59.95203837,,,,,,,,,,,,,,,,,,,,,,,,,,,,,,,,,,,,,,,,,,,,,,,,,,,,,,,,,,,,,,,,,,,,,,,,,,,,,,
,,,,,,,,,R_UryUcXR5uIhqtCp,2022-07-15_10h40.27.289,jpn_C02,2022.1.2,MacIntel,59.95203837,space,8.7275,space,5.01,0,0,0,0,1,シド,artist,,CartoonStims/artist_r.jpg,audio/sido.mp3,,,,,,,,,,,,,,,,,,,,,,,,,,,,,,,,,,,,,,,,,,,,,,,,,,,,,,,,,,,,,,,,
,,,,,,,,,R_UryUcXR5uIhqtCp,2022-07-15_10h40.27.289,jpn_C02,2022.1.2,MacIntel,59.95203837,,,space,3.3582,0,1,1,4,1,ピポ,doctor,,CartoonStims/doctor_r.jpg,audio/pipo.mp3,,,,,,,,,,,,,,,,,,,,,,,,,,,,,,,,,,,,,,,,,,,,,,,,,,,,,,,,,,,,,,,,
,,,,,,,,,R_UryUcXR5uIhqtCp,2022-07-15_10h40.27.289,jpn_C02,2022.1.2,MacIntel,59.95203837,,,space,2.8922,0,2,2,5,1,ドキ,boxer,,CartoonStims/boxer_r.jpg,audio/doki.mp3,,,,,,,,,,,,,,,,,,,,,,,,,,,,,,,,,,,,,,,,,,,,,,,,,,,,,,,,,,,,,,,,
,,,,,,,,,R_UryUcXR5uIhqtCp,2022-07-15_10h40.27.289,jpn_C02,2022.1.2,MacIntel,59.95203837,,,space,1.9524,0,3,3,2,1,ホレト,chef,,CartoonStims/chef_r.jpg,audio/horeto.mp3,,,,,,,,,,,,,,,,,,,,,,,,,,,,,,,,,,,,,,,,,,,,,,,,,,,,,,,,,,,,,,,,
,,,,,,,,,R_UryUcXR5uIhqtCp,2022-07-15_10h40.27.289,jpn_C02,2022.1.2,MacIntel,59.95203837,,,space,3.763,0,4,4,1,1,ルピン,burglar,,CartoonStims/burglar_r.jpg,audio/lupin.mp3,,,,,,,,,,,,,,,,,,,,,,,,,,,,,,,,,,,,,,,,,,,,,,,,,,,,,,,,,,,,,,,,
,,,,,,,,,R_UryUcXR5uIhqtCp,2022-07-15_10h40.27.289,jpn_C02,2022.1.2,MacIntel,59.95203837,,,space,4.5883,0,5,5,3,1,ムク,cowboy,,CartoonStims/cowboy_r.jpg,audio/muku.mp3,,,,,,,,,,,,,,,,,,,,,,,,,,,,,,,,,,,,,,,,,,,,,,,,,,,,,,,,,,,,,,,,
,,,,,,,,,R_UryUcXR5uIhqtCp,2022-07-15_10h40.27.289,jpn_C02,2022.1.2,MacIntel,59.95203837,,,space,1.7807,1,0,6,1,1,ルピン,burglar,,CartoonStims/burglar_r.jpg,audio/lupin.mp3,,,,,,,,,,,,,,,,,,,,,,,,,,,,,,,,,,,,,,,,,,,,,,,,,,,,,,,,,,,,,,,,
,,,,,,,,,R_UryUcXR5uIhqtCp,2022-07-15_10h40.27.289,jpn_C02,2022.1.2,MacIntel,59.95203837,,,space,1.8189,1,1,7,3,1,ムク,cowboy,,CartoonStims/cowboy_r.jpg,audio/muku.mp3,,,,,,,,,,,,,,,,,,,,,,,,,,,,,,,,,,,,,,,,,,,,,,,,,,,,,,,,,,,,,,,,
,,,,,,,,,R_UryUcXR5uIhqtCp,2022-07-15_10h40.27.289,jpn_C02,2022.1.2,MacIntel,59.95203837,,,space,5.9465,1,2,8,4,1,ピポ,doctor,,CartoonStims/doctor_r.jpg,audio/pipo.mp3,,,,,,,,,,,,,,,,,,,,,,,,,,,,,,,,,,,,,,,,,,,,,,,,,,,,,,,,,,,,,,,,
,,,,,,,,,R_UryUcXR5uIhqtCp,2022-07-15_10h40.27.289,jpn_C02,2022.1.2,MacIntel,59.95203837,,,space,2.9873,1,3,9,0,1,シド,artist,,CartoonStims/artist_r.jpg,audio/sido.mp3,,,,,,,,,,,,,,,,,,,,,,,,,,,,,,,,,,,,,,,,,,,,,,,,,,,,,,,,,,,,,,,,
,,,,,,,,,R_UryUcXR5uIhqtCp,2022-07-15_10h40.27.289,jpn_C02,2022.1.2,MacIntel,59.95203837,,,space,0.6121,1,4,10,5,1,ドキ,boxer,,CartoonStims/boxer_r.jpg,audio/doki.mp3,,,,,,,,,,,,,,,,,,,,,,,,,,,,,,,,,,,,,,,,,,,,,,,,,,,,,,,,,,,,,,,,
,,,,,,,,,R_UryUcXR5uIhqtCp,2022-07-15_10h40.27.289,jpn_C02,2022.1.2,MacIntel,59.95203837,,,space,3.6634,1,5,11,2,1,ホレト,chef,,CartoonStims/chef_r.jpg,audio/horeto.mp3,,,,,,,,,,,,,,,,,,,,,,,,,,,,,,,,,,,,,,,,,,,,,,,,,,,,,,,,,,,,,,,,
,,,,,,,,,R_UryUcXR5uIhqtCp,2022-07-15_10h40.27.289,jpn_C02,2022.1.2,MacIntel,59.95203837,,,space,1.2089,2,0,12,4,1,ピポ,doctor,,CartoonStims/doctor_r.jpg,audio/pipo.mp3,,,,,,,,,,,,,,,,,,,,,,,,,,,,,,,,,,,,,,,,,,,,,,,,,,,,,,,,,,,,,,,,
,,,,,,,,,R_UryUcXR5uIhqtCp,2022-07-15_10h40.27.289,jpn_C02,2022.1.2,MacIntel,59.95203837,,,space,0.2211,2,1,13,5,1,ドキ,boxer,,CartoonStims/boxer_r.jpg,audio/doki.mp3,,,,,,,,,,,,,,,,,,,,,,,,,,,,,,,,,,,,,,,,,,,,,,,,,,,,,,,,,,,,,,,,
,,,,,,,,,R_UryUcXR5uIhqtCp,2022-07-15_10h40.27.289,jpn_C02,2022.1.2,MacIntel,59.95203837,,,space,9.5476,2,2,14,3,1,ムク,cowboy,,CartoonStims/cowboy_r.jpg,audio/muku.mp3,,,,,,,,,,,,,,,,,,,,,,,,,,,,,,,,,,,,,,,,,,,,,,,,,,,,,,,,,,,,,,,,
,,,,,,,,,R_UryUcXR5uIhqtCp,2022-07-15_10h40.27.289,jpn_C02,2022.1.2,MacIntel,59.95203837,,,space,6.1086,2,3,15,0,1,シド,artist,,CartoonStims/artist_r.jpg,audio/sido.mp3,,,,,,,,,,,,,,,,,,,,,,,,,,,,,,,,,,,,,,,,,,,,,,,,,,,,,,,,,,,,,,,,
,,,,,,,,,R_UryUcXR5uIhqtCp,2022-07-15_10h40.27.289,jpn_C02,2022.1.2,MacIntel,59.95203837,,,space,1.1594,2,4,16,2,1,ホレト,chef,,CartoonStims/chef_r.jpg,audio/horeto.mp3,,,,,,,,,,,,,,,,,,,,,,,,,,,,,,,,,,,,,,,,,,,,,,,,,,,,,,,,,,,,,,,,
,,,,,,,,,R_UryUcXR5uIhqtCp,2022-07-15_10h40.27.289,jpn_C02,2022.1.2,MacIntel,59.95203837,,,space,0.4199,2,5,17,1,1,ルピン,burglar,,CartoonStims/burglar_r.jpg,audio/lupin.mp3,,,,,,,,,,,,,,,,,,,,,,,,,,,,,,,,,,,,,,,,,,,,,,,,,,,,,,,,,,,,,,,,
,,,,,,,,,R_UryUcXR5uIhqtCp,2022-07-15_10h40.27.289,jpn_C02,2022.1.2,MacIntel,59.95203837,,,,,,,,,,,,,,,space,3.6764,right,1,1.7441,0,0,0,0,1,,,,,,,,,,,,,,,,,,,,,,,,,,,,,,,,,,,,,,,,,,,,,,,,,,,,,,
,,,,,,,,,R_UryUcXR5uIhqtCp,2022-07-15_10h40.27.289,jpn_C02,2022.1.2,MacIntel,59.95203837,,,,,,,,,,,,,,,,,,,,,,,,,0,0,0,11,1,CartoonStims/burglar_r.jpg,ドキ,CartoonStims/boxer_r.jpg,right,CartoonStims/boxer_r.jpg,audio/doki.mp3,残念！ こちらが正しい画像です。,,,,,,,,,,,,,,,,,,,,,,,,,,,,,,,,,,,,,,,,,,
,,,,,,,,,R_UryUcXR5uIhqtCp,2022-07-15_10h40.27.289,jpn_C02,2022.1.2,MacIntel,59.95203837,,,,,,,,,,,,,,,,,left,1,0.7212,,,,,,,,,,,,,,,,,,0,0,0,0,1,,,,,,,,,,,,,,,,,,,,,,,,,,,,,,,,,,,,,
,,,,,,,,,R_UryUcXR5uIhqtCp,2022-07-15_10h40.27.289,jpn_C02,2022.1.2,MacIntel,59.95203837,,,,,,,,,,,,,,,,,,,,,,,,,0,1,1,5,1,CartoonStims/boxer_r.jpg,ドキ,CartoonStims/artist_r.jpg,left,CartoonStims/boxer_r.jpg,audio/doki.mp3,残念！ こちらが正しい画像です。,,,,,,,,,,,,,,,,,,,,,,,,,,,,,,,,,,,,,,,,,,
,,,,,,,,,R_UryUcXR5uIhqtCp,2022-07-15_10h40.27.289,jpn_C02,2022.1.2,MacIntel,59.95203837,,,,,,,,,,,,,,,,,right,1,1.9798,0,0,0,0,1,,,,,,,,,,,,,,,,,,,,,,,,,,,,,,,,,,,,,,,,,,,,,,,,,,,,,,
,,,,,,,,,R_UryUcXR5uIhqtCp,2022-07-15_10h40.27.289,jpn_C02,2022.1.2,MacIntel,59.95203837,,,,,,,,,,,,,,,,,,,,,,,,,0,2,2,9,1,CartoonStims/boxer_r.jpg,ムク,CartoonStims/cowboy_r.jpg,right,CartoonStims/cowboy_r.jpg,audio/muku.mp3,残念！ こちらが正しい画像です。,,,,,,,,,,,,,,,,,,,,,,,,,,,,,,,,,,,,,,,,,,
,,,,,,,,,R_UryUcXR5uIhqtCp,2022-07-15_10h40.27.289,jpn_C02,2022.1.2,MacIntel,59.95203837,,,,,,,,,,,,,,,,,left,1,0.7846,,,,,,,,,,,,,,,,,,0,0,0,0,1,,,,,,,,,,,,,,,,,,,,,,,,,,,,,,,,,,,,,
,,,,,,,,,R_UryUcXR5uIhqtCp,2022-07-15_10h40.27.289,jpn_C02,2022.1.2,MacIntel,59.95203837,,,,,,,,,,,,,,,,,,,,,,,,,0,3,3,4,1,CartoonStims/doctor_r.jpg,ピポ,CartoonStims/boxer_r.jpg,left,CartoonStims/doctor_r.jpg,audio/pipo.mp3,残念！ こちらが正しい画像です。,,,,,,,,,,,,,,,,,,,,,,,,,,,,,,,,,,,,,,,,,,
,,,,,,,,,R_UryUcXR5uIhqtCp,2022-07-15_10h40.27.289,jpn_C02,2022.1.2,MacIntel,59.95203837,,,,,,,,,,,,,,,,,right,1,1.9863,0,0,0,0,1,,,,,,,,,,,,,,,,,,,,,,,,,,,,,,,,,,,,,,,,,,,,,,,,,,,,,,
,,,,,,,,,R_UryUcXR5uIhqtCp,2022-07-15_10h40.27.289,jpn_C02,2022.1.2,MacIntel,59.95203837,,,,,,,,,,,,,,,,,,,,,,,,,0,4,4,6,1,CartoonStims/chef_r.jpg,シド,CartoonStims/artist_r.jpg,right,CartoonStims/artist_r.jpg,audio/sido.mp3,残念！ こちらが正しい画像です。,,,,,,,,,,,,,,,,,,,,,,,,,,,,,,,,,,,,,,,,,,
,,,,,,,,,R_UryUcXR5uIhqtCp,2022-07-15_10h40.27.289,jpn_C02,2022.1.2,MacIntel,59.95203837,,,,,,,,,,,,,,,,,left,1,0.3206,,,,,,,,,,,,,,,,,,0,0,0,0,1,,,,,,,,,,,,,,,,,,,,,,,,,,,,,,,,,,,,,
,,,,,,,,,R_UryUcXR5uIhqtCp,2022-07-15_10h40.27.289,jpn_C02,2022.1.2,MacIntel,59.95203837,,,,,,,,,,,,,,,,,,,,,,,,,0,5,5,1,1,CartoonStims/burglar_r.jpg,ルピン,CartoonStims/chef_r.jpg,left,CartoonStims/burglar_r.jpg,audio/lupin.mp3,残念！ こちらが正しい画像です。,,,,,,,,,,,,,,,,,,,,,,,,,,,,,,,,,,,,,,,,,,
,,,,,,,,,R_UryUcXR5uIhqtCp,2022-07-15_10h40.27.289,jpn_C02,2022.1.2,MacIntel,59.95203837,,,,,,,,,,,,,,,,,right,1,1.1873,0,0,0,0,1,,,,,,,,,,,,,,,,,,,,,,,,,,,,,,,,,,,,,,,,,,,,,,,,,,,,,,
,,,,,,,,,R_UryUcXR5uIhqtCp,2022-07-15_10h40.27.289,jpn_C02,2022.1.2,MacIntel,59.95203837,,,,,,,,,,,,,,,,,,,,,,,,,0,6,6,8,1,CartoonStims/doctor_r.jpg,ホレト,CartoonStims/chef_r.jpg,right,CartoonStims/chef_r.jpg,audio/horeto.mp3,残念！ こちらが正しい画像です。,,,,,,,,,,,,,,,,,,,,,,,,,,,,,,,,,,,,,,,,,,
,,,,,,,,,R_UryUcXR5uIhqtCp,2022-07-15_10h40.27.289,jpn_C02,2022.1.2,MacIntel,59.95203837,,,,,,,,,,,,,,,,,left,1,0.523,,,,,,,,,,,,,,,,,,0,0,0,0,1,,,,,,,,,,,,,,,,,,,,,,,,,,,,,,,,,,,,,
,,,,,,,,,R_UryUcXR5uIhqtCp,2022-07-15_10h40.27.289,jpn_C02,2022.1.2,MacIntel,59.95203837,,,,,,,,,,,,,,,,,,,,,,,,,0,7,7,2,1,CartoonStims/chef_r.jpg,ホレト,CartoonStims/cowboy_r.jpg,left,CartoonStims/chef_r.jpg,audio/horeto.mp3,残念！ こちらが正しい画像です。,,,,,,,,,,,,,,,,,,,,,,,,,,,,,,,,,,,,,,,,,,
,,,,,,,,,R_UryUcXR5uIhqtCp,2022-07-15_10h40.27.289,jpn_C02,2022.1.2,MacIntel,59.95203837,,,,,,,,,,,,,,,,,left,1,0.9384,,,,,,,,,,,,,,,,,,0,0,0,0,1,,,,,,,,,,,,,,,,,,,,,,,,,,,,,,,,,,,,,
,,,,,,,,,R_UryUcXR5uIhqtCp,2022-07-15_10h40.27.289,jpn_C02,2022.1.2,MacIntel,59.95203837,,,,,,,,,,,,,,,,,,,,,,,,,0,8,8,0,1,CartoonStims/artist_r.jpg,シド,CartoonStims/burglar_r.jpg,left,CartoonStims/artist_r.jpg,audio/sido.mp3,残念！ こちらが正しい画像です。,,,,,,,,,,,,,,,,,,,,,,,,,,,,,,,,,,,,,,,,,,
,,,,,,,,,R_UryUcXR5uIhqtCp,2022-07-15_10h40.27.289,jpn_C02,2022.1.2,MacIntel,59.95203837,,,,,,,,,,,,,,,,,right,1,1.2041,0,0,0,0,1,,,,,,,,,,,,,,,,,,,,,,,,,,,,,,,,,,,,,,,,,,,,,,,,,,,,,,
,,,,,,,,,R_UryUcXR5uIhqtCp,2022-07-15_10h40.27.289,jpn_C02,2022.1.2,MacIntel,59.95203837,,,,,,,,,,,,,,,,,,,,,,,,,0,9,9,10,1,CartoonStims/artist_r.jpg,ピポ,CartoonStims/doctor_r.jpg,right,CartoonStims/doctor_r.jpg,audio/pipo.mp3,残念！ こちらが正しい画像です。,,,,,,,,,,,,,,,,,,,,,,,,,,,,,,,,,,,,,,,,,,
,,,,,,,,,R_UryUcXR5uIhqtCp,2022-07-15_10h40.27.289,jpn_C02,2022.1.2,MacIntel,59.95203837,,,,,,,,,,,,,,,,,left,1,1.557,,,,,,,,,,,,,,,,,,0,0,0,0,1,,,,,,,,,,,,,,,,,,,,,,,,,,,,,,,,,,,,,
,,,,,,,,,R_UryUcXR5uIhqtCp,2022-07-15_10h40.27.289,jpn_C02,2022.1.2,MacIntel,59.95203837,,,,,,,,,,,,,,,,,,,,,,,,,0,10,10,3,1,CartoonStims/cowboy_r.jpg,ムク,CartoonStims/doctor_r.jpg,left,CartoonStims/cowboy_r.jpg,audio/muku.mp3,残念！ こちらが正しい画像です。,,,,,,,,,,,,,,,,,,,,,,,,,,,,,,,,,,,,,,,,,,
,,,,,,,,,R_UryUcXR5uIhqtCp,2022-07-15_10h40.27.289,jpn_C02,2022.1.2,MacIntel,59.95203837,,,,,,,,,,,,,,,,,right,1,0.3104,0,0,0,0,1,,,,,,,,,,,,,,,,,,,,,,,,,,,,,,,,,,,,,,,,,,,,,,,,,,,,,,
,,,,,,,,,R_UryUcXR5uIhqtCp,2022-07-15_10h40.27.289,jpn_C02,2022.1.2,MacIntel,59.95203837,,,,,,,,,,,,,,,,,,,,,,,,,0,11,11,7,1,CartoonStims/cowboy_r.jpg,ルピン,CartoonStims/burglar_r.jpg,right,CartoonStims/burglar_r.jpg,audio/lupin.mp3,残念！ こちらが正しい画像です。,,,,,,,,,,,,,,,,,,,,,,,,,,,,,,,,,,,,,,,,,,
,,,,,,,,,R_UryUcXR5uIhqtCp,2022-07-15_10h40.27.289,jpn_C02,2022.1.2,MacIntel,59.95203837,,,,,,,,,,,,,,,,,,,,,,,,,,,,,,,,,,,,,,,,,,space,3.743,ホレト,right,13.8228,0,0,0,0,1,,,,,,,,,,,,,,,,,,,,,,,,,,,
,,,,,,,,,R_UryUcXR5uIhqtCp,2022-07-15_10h40.27.289,jpn_C02,2022.1.2,MacIntel,59.95203837,,,,,,,,,,,,,CartoonStims/chef_r.jpg,audio/horeto.mp3,,,,,,,,,,,,,,,,,,,,,,,,,,,,,,,,,,,,,,0,0,0,2,1,ホレト,,,,,,,,,,,,,,,,,,,,,
,,,,,,,,,R_UryUcXR5uIhqtCp,2022-07-15_10h40.27.289,jpn_C02,2022.1.2,MacIntel,59.95203837,,,,,,,,,,,,,,,,,,,,,,,,,,,,,,,,,,,,,,,,,,,,シド,right,7.3776,0,0,0,0,1,,,,,,,,,,,,,,,,,,,,,,,,,,,
,,,,,,,,,R_UryUcXR5uIhqtCp,2022-07-15_10h40.27.289,jpn_C02,2022.1.2,MacIntel,59.95203837,,,,,,,,,,,,,CartoonStims/artist_r.jpg,audio/sido.mp3,,,,,,,,,,,,,,,,,,,,,,,,,,,,,,,,,,,,,,0,1,1,0,1,シド,,,,,,,,,,,,,,,,,,,,,
,,,,,,,,,R_UryUcXR5uIhqtCp,2022-07-15_10h40.27.289,jpn_C02,2022.1.2,MacIntel,59.95203837,,,,,,,,,,,,,,,,,,,,,,,,,,,,,,,,,,,,,,,,,,,,ピポ,right,5.9692,0,0,0,0,1,,,,,,,,,,,,,,,,,,,,,,,,,,,
,,,,,,,,,R_UryUcXR5uIhqtCp,2022-07-15_10h40.27.289,jpn_C02,2022.1.2,MacIntel,59.95203837,,,,,,,,,,,,,CartoonStims/doctor_r.jpg,audio/pipo.mp3,,,,,,,,,,,,,,,,,,,,,,,,,,,,,,,,,,,,,,0,2,2,4,1,ピポ,,,,,,,,,,,,,,,,,,,,,
,,,,,,,,,R_UryUcXR5uIhqtCp,2022-07-15_10h40.27.289,jpn_C02,2022.1.2,MacIntel,59.95203837,,,,,,,,,,,,,,,,,,,,,,,,,,,,,,,,,,,,,,,,,,,,ムク,right,4.2206,0,0,0,0,1,,,,,,,,,,,,,,,,,,,,,,,,,,,
,,,,,,,,,R_UryUcXR5uIhqtCp,2022-07-15_10h40.27.289,jpn_C02,2022.1.2,MacIntel,59.95203837,,,,,,,,,,,,,CartoonStims/cowboy_r.jpg,audio/muku.mp3,,,,,,,,,,,,,,,,,,,,,,,,,,,,,,,,,,,,,,0,3,3,3,1,ムク,,,,,,,,,,,,,,,,,,,,,
,,,,,,,,,R_UryUcXR5uIhqtCp,2022-07-15_10h40.27.289,jpn_C02,2022.1.2,MacIntel,59.95203837,,,,,,,,,,,,,,,,,,,,,,,,,,,,,,,,,,,,,,,,,,,,ドキ,right,3.2822,0,0,0,0,1,,,,,,,,,,,,,,,,,,,,,,,,,,,
,,,,,,,,,R_UryUcXR5uIhqtCp,2022-07-15_10h40.27.289,jpn_C02,2022.1.2,MacIntel,59.95203837,,,,,,,,,,,,,CartoonStims/boxer_r.jpg,audio/doki.mp3,,,,,,,,,,,,,,,,,,,,,,,,,,,,,,,,,,,,,,0,4,4,5,1,ドキ,,,,,,,,,,,,,,,,,,,,,
,,,,,,,,,R_UryUcXR5uIhqtCp,2022-07-15_10h40.27.289,jpn_C02,2022.1.2,MacIntel,59.95203837,,,,,,,,,,,,,,,,,,,,,,,,,,,,,,,,,,,,,,,,,,,,ルピン,right,5.1388,0,0,0,0,1,,,,,,,,,,,,,,,,,,,,,,,,,,,
,,,,,,,,,R_UryUcXR5uIhqtCp,2022-07-15_10h40.27.289,jpn_C02,2022.1.2,MacIntel,59.95203837,,,,,,,,,,,,,CartoonStims/burglar_r.jpg,audio/lupin.mp3,,,,,,,,,,,,,,,,,,,,,,,,,,,,,,,,,,,,,,0,5,5,1,1,ルピン,,,,,,,,,,,,,,,,,,,,,
,,,,,,,,,R_UryUcXR5uIhqtCp,2022-07-15_10h40.27.289,jpn_C02,2022.1.2,MacIntel,59.95203837,,,,,,,,,,,,,,,,,,,,,,,,,,,,,,,,,,,,,,,,,,,,シド,right,5.0611,0,0,0,0,1,,,,,,,,,,,,,,,,,,,,,,,,,,,
,,,,,,,,,R_UryUcXR5uIhqtCp,2022-07-15_10h40.27.289,jpn_C02,2022.1.2,MacIntel,59.95203837,,,,,,,,,,,,,CartoonStims/artist_r.jpg,audio/sido.mp3,,,,,,,,,,,,,,,,,,,,,,,,,,,,,,,,,,,,,,1,0,6,0,1,シド,,,,,,,,,,,,,,,,,,,,,
,,,,,,,,,R_UryUcXR5uIhqtCp,2022-07-15_10h40.27.289,jpn_C02,2022.1.2,MacIntel,59.95203837,,,,,,,,,,,,,,,,,,,,,,,,,,,,,,,,,,,,,,,,,,,,ムク,right,2.9548,0,0,0,0,1,,,,,,,,,,,,,,,,,,,,,,,,,,,
,,,,,,,,,R_UryUcXR5uIhqtCp,2022-07-15_10h40.27.289,jpn_C02,2022.1.2,MacIntel,59.95203837,,,,,,,,,,,,,CartoonStims/cowboy_r.jpg,audio/muku.mp3,,,,,,,,,,,,,,,,,,,,,,,,,,,,,,,,,,,,,,1,1,7,3,1,ムク,,,,,,,,,,,,,,,,,,,,,
,,,,,,,,,R_UryUcXR5uIhqtCp,2022-07-15_10h40.27.289,jpn_C02,2022.1.2,MacIntel,59.95203837,,,,,,,,,,,,,,,,,,,,,,,,,,,,,,,,,,,,,,,,,,,,ドキ,right,2.4015,0,0,0,0,1,,,,,,,,,,,,,,,,,,,,,,,,,,,
,,,,,,,,,R_UryUcXR5uIhqtCp,2022-07-15_10h40.27.289,jpn_C02,2022.1.2,MacIntel,59.95203837,,,,,,,,,,,,,CartoonStims/boxer_r.jpg,audio/doki.mp3,,,,,,,,,,,,,,,,,,,,,,,,,,,,,,,,,,,,,,1,2,8,5,1,ドキ,,,,,,,,,,,,,,,,,,,,,
,,,,,,,,,R_UryUcXR5uIhqtCp,2022-07-15_10h40.27.289,jpn_C02,2022.1.2,MacIntel,59.95203837,,,,,,,,,,,,,,,,,,,,,,,,,,,,,,,,,,,,,,,,,,,,ルピン,right,2.9211,0,0,0,0,1,,,,,,,,,,,,,,,,,,,,,,,,,,,
,,,,,,,,,R_UryUcXR5uIhqtCp,2022-07-15_10h40.27.289,jpn_C02,2022.1.2,MacIntel,59.95203837,,,,,,,,,,,,,CartoonStims/burglar_r.jpg,audio/lupin.mp3,,,,,,,,,,,,,,,,,,,,,,,,,,,,,,,,,,,,,,1,3,9,1,1,ルピン,,,,,,,,,,,,,,,,,,,,,
,,,,,,,,,R_UryUcXR5uIhqtCp,2022-07-15_10h40.27.289,jpn_C02,2022.1.2,MacIntel,59.95203837,,,,,,,,,,,,,,,,,,,,,,,,,,,,,,,,,,,,,,,,,,,,ピポ,right,2.7195,0,0,0,0,1,,,,,,,,,,,,,,,,,,,,,,,,,,,
,,,,,,,,,R_UryUcXR5uIhqtCp,2022-07-15_10h40.27.289,jpn_C02,2022.1.2,MacIntel,59.95203837,,,,,,,,,,,,,CartoonStims/doctor_r.jpg,audio/pipo.mp3,,,,,,,,,,,,,,,,,,,,,,,,,,,,,,,,,,,,,,1,4,10,4,1,ピポ,,,,,,,,,,,,,,,,,,,,,
,,,,,,,,,R_UryUcXR5uIhqtCp,2022-07-15_10h40.27.289,jpn_C02,2022.1.2,MacIntel,59.95203837,,,,,,,,,,,,,,,,,,,,,,,,,,,,,,,,,,,,,,,,,,,,ホレト,right,5.3072,0,0,0,0,1,,,,,,,,,,,,,,,,,,,,,,,,,,,
,,,,,,,,,R_UryUcXR5uIhqtCp,2022-07-15_10h40.27.289,jpn_C02,2022.1.2,MacIntel,59.95203837,,,,,,,,,,,,,CartoonStims/chef_r.jpg,audio/horeto.mp3,,,,,,,,,,,,,,,,,,,,,,,,,,,,,,,,,,,,,,1,5,11,2,1,ホレト,,,,,,,,,,,,,,,,,,,,,
,,,,,,,,,R_UryUcXR5uIhqtCp,2022-07-15_10h40.27.289,jpn_C02,2022.1.2,MacIntel,59.95203837,,,,,,,,,,,,,,,,,,,,,,,,,,,,,,,,,,,,,,,,,,,,,,,,,,,,,,,,,,,space,8.9567,0,0,0,0,1,NounExposure.xlsx,"最初のトライアルでは、 画像が表示され、 その画像の下に単語が出てきます。 またこの単語の音も聞くことができます。 この音を大きな声で復唱してください。 そしてこの画像がどのような単語を示しているのか, 考えてみてください。 その後、 続きのボタンを押すと次の単語の学習が始まります。

スペースキーを押して、学習を始めましょう。",3,NounFCT.xlsx,ここから語彙のクイズが始まります。スクリーンに表示される単語に合う画像をキーボードの右と左の矢印キーを使って選択してください。,NounTest.xlsx,2,次に、これまで学習してきたことをアウトプットしていただきます。 表示される画像を描写していると思う単語を、テキストボックスにタイプしてください。,1,"ここまでが最初のトライアルです。ここで休憩をとっても構いません。

休憩が済みましたら、スペースキーを押して続きを始めましょう。",,,
,,,,,,,,,R_UryUcXR5uIhqtCp,2022-07-15_10h40.27.289,jpn_C02,2022.1.2,MacIntel,59.95203837,space,8.2167,space,12.2157,0,0,0,14,1,トマ　ルピン　ムク,,,CartoonStims/burglar_point_cowboy_r.jpg,audio/tomalupinmuku.mp3,,,,,,,,,,,,,,,,,,,,,,,,,,,,,,,,,,,,,,,,,,,,,,,,,,,,,,,,,,,,,,,,
,,,,,,,,,R_UryUcXR5uIhqtCp,2022-07-15_10h40.27.289,jpn_C02,2022.1.2,MacIntel,59.95203837,,,space,9.0778,0,1,1,11,1,セル　ドキ　ルピン,,,CartoonStims/boxer_kick_burglar_r.jpg,audio/serudokilupin.mp3,,,,,,,,,,,,,,,,,,,,,,,,,,,,,,,,,,,,,,,,,,,,,,,,,,,,,,,,,,,,,,,,
,,,,,,,,,R_UryUcXR5uIhqtCp,2022-07-15_10h40.27.289,jpn_C02,2022.1.2,MacIntel,59.95203837,,,space,3.6565,0,2,2,22,1,トマ　ドキ　ルピン,,,CartoonStims/boxer_point_burglar_r.jpg,audio/tomadokilupin.mp3,,,,,,,,,,,,,,,,,,,,,,,,,,,,,,,,,,,,,,,,,,,,,,,,,,,,,,,,,,,,,,,,
,,,,,,,,,R_UryUcXR5uIhqtCp,2022-07-15_10h40.27.289,jpn_C02,2022.1.2,MacIntel,59.95203837,,,space,8.0267,0,3,3,33,1,パツ　ピポ　ホレト,,,CartoonStims/doctor_shoot_chef_r.jpg,audio/patsupipohoreto.mp3,,,,,,,,,,,,,,,,,,,,,,,,,,,,,,,,,,,,,,,,,,,,,,,,,,,,,,,,,,,,,,,,
,,,,,,,,,R_UryUcXR5uIhqtCp,2022-07-15_10h40.27.289,jpn_C02,2022.1.2,MacIntel,59.95203837,,,space,2.9952,0,4,4,41,1,プミ　ホレト　ルピン,,,CartoonStims/chef_punch_burglar_r.jpg,audio/pumihoretolupin.mp3,,,,,,,,,,,,,,,,,,,,,,,,,,,,,,,,,,,,,,,,,,,,,,,,,,,,,,,,,,,,,,,,
,,,,,,,,,R_UryUcXR5uIhqtCp,2022-07-15_10h40.27.289,jpn_C02,2022.1.2,MacIntel,59.95203837,,,space,2.628,0,5,5,36,1,プミ　シド　ピポ,,,CartoonStims/artist_punch_doctor_r.jpg,audio/pumisidopipo.mp3,,,,,,,,,,,,,,,,,,,,,,,,,,,,,,,,,,,,,,,,,,,,,,,,,,,,,,,,,,,,,,,,
,,,,,,,,,R_UryUcXR5uIhqtCp,2022-07-15_10h40.27.289,jpn_C02,2022.1.2,MacIntel,59.95203837,,,space,2.1071,0,6,6,34,1,パツ　ドキ　ホレト,,,CartoonStims/boxer_shoot_chef_r.jpg,audio/patsudokihoreto.mp3,,,,,,,,,,,,,,,,,,,,,,,,,,,,,,,,,,,,,,,,,,,,,,,,,,,,,,,,,,,,,,,,
,,,,,,,,,R_UryUcXR5uIhqtCp,2022-07-15_10h40.27.289,jpn_C02,2022.1.2,MacIntel,59.95203837,,,space,1.5121,0,7,7,26,1,パツ　ルピン　ピポ,,,CartoonStims/burglar_shoot_doctor_r.jpg,audio/patsulupinpipo.mp3,,,,,,,,,,,,,,,,,,,,,,,,,,,,,,,,,,,,,,,,,,,,,,,,,,,,,,,,,,,,,,,,
,,,,,,,,,R_UryUcXR5uIhqtCp,2022-07-15_10h40.27.289,jpn_C02,2022.1.2,MacIntel,59.95203837,,,space,1.4414,0,8,8,47,1,プミ　ドキ　ピポ,,,CartoonStims/boxer_punch_doctor_r.jpg,audio/pumidokipipo.mp3,,,,,,,,,,,,,,,,,,,,,,,,,,,,,,,,,,,,,,,,,,,,,,,,,,,,,,,,,,,,,,,,
,,,,,,,,,R_UryUcXR5uIhqtCp,2022-07-15_10h40.27.289,jpn_C02,2022.1.2,MacIntel,59.95203837,,,space,2.5754,0,9,9,20,1,トマ　ピポ　シド,,,CartoonStims/doctor_point_artist_r.jpg,audio/tomapiposido.mp3,,,,,,,,,,,,,,,,,,,,,,,,,,,,,,,,,,,,,,,,,,,,,,,,,,,,,,,,,,,,,,,,
,,,,,,,,,R_UryUcXR5uIhqtCp,2022-07-15_10h40.27.289,jpn_C02,2022.1.2,MacIntel,59.95203837,,,space,3.0917,0,10,10,15,1,トマ　ルピン　ピポ,,,CartoonStims/burglar_point_doctor_r.jpg,audio/tomalupinpipo.mp3,,,,,,,,,,,,,,,,,,,,,,,,,,,,,,,,,,,,,,,,,,,,,,,,,,,,,,,,,,,,,,,,
,,,,,,,,,R_UryUcXR5uIhqtCp,2022-07-15_10h40.27.289,jpn_C02,2022.1.2,MacIntel,59.95203837,,,space,1.6761,0,11,11,30,1,パツ　ムク　シド,,,CartoonStims/cowboy_shoot_artist_r.jpg,audio/patsumukusido.mp3,,,,,,,,,,,,,,,,,,,,,,,,,,,,,,,,,,,,,,,,,,,,,,,,,,,,,,,,,,,,,,,,
,,,,,,,,,R_UryUcXR5uIhqtCp,2022-07-15_10h40.27.289,jpn_C02,2022.1.2,MacIntel,59.95203837,,,space,1.9549,0,12,12,37,1,プミ　シド　ドキ,,,CartoonStims/artist_punch_boxer_r.jpg,audio/pumisidodoki.mp3,,,,,,,,,,,,,,,,,,,,,,,,,,,,,,,,,,,,,,,,,,,,,,,,,,,,,,,,,,,,,,,,
,,,,,,,,,R_UryUcXR5uIhqtCp,2022-07-15_10h40.27.289,jpn_C02,2022.1.2,MacIntel,59.95203837,,,space,4.8672,0,13,13,43,1,プミ　ムク　ホレト,,,CartoonStims/cowboy_punch_chef_r.jpg,audio/pumimukuhoreto.mp3,,,,,,,,,,,,,,,,,,,,,,,,,,,,,,,,,,,,,,,,,,,,,,,,,,,,,,,,,,,,,,,,
,,,,,,,,,R_UryUcXR5uIhqtCp,2022-07-15_10h40.27.289,jpn_C02,2022.1.2,MacIntel,59.95203837,,,space,1.5916,0,14,14,42,1,プミ　ムク　ルピン,,,CartoonStims/cowboy_punch_burglar_r.jpg,audio/pumimukulupin.mp3,,,,,,,,,,,,,,,,,,,,,,,,,,,,,,,,,,,,,,,,,,,,,,,,,,,,,,,,,,,,,,,,
,,,,,,,,,R_UryUcXR5uIhqtCp,2022-07-15_10h40.27.289,jpn_C02,2022.1.2,MacIntel,59.95203837,,,space,1.2067,0,15,15,24,1,パツ　シド　ムク,,,CartoonStims/artist_shoot_cowboy_r.jpg,audio/patsusidomuku.mp3,,,,,,,,,,,,,,,,,,,,,,,,,,,,,,,,,,,,,,,,,,,,,,,,,,,,,,,,,,,,,,,,
,,,,,,,,,R_UryUcXR5uIhqtCp,2022-07-15_10h40.27.289,jpn_C02,2022.1.2,MacIntel,59.95203837,,,space,1.1142,0,16,16,31,1,パツ　ムク　ルピン,,,CartoonStims/cowboy_shoot_burglar_r.jpg,audio/patsumukulupin.mp3,,,,,,,,,,,,,,,,,,,,,,,,,,,,,,,,,,,,,,,,,,,,,,,,,,,,,,,,,,,,,,,,
,,,,,,,,,R_UryUcXR5uIhqtCp,2022-07-15_10h40.27.289,jpn_C02,2022.1.2,MacIntel,59.95203837,,,space,3.1259,0,17,17,7,1,セル　ムク　ドキ,,,CartoonStims/cowboy_kick_boxer_r.jpg,audio/serumukudoki.mp3,,,,,,,,,,,,,,,,,,,,,,,,,,,,,,,,,,,,,,,,,,,,,,,,,,,,,,,,,,,,,,,,
,,,,,,,,,R_UryUcXR5uIhqtCp,2022-07-15_10h40.27.289,jpn_C02,2022.1.2,MacIntel,59.95203837,,,space,1.2299,0,18,18,25,1,パツ　シド　ピポ,,,CartoonStims/artist_shoot_doctor_r.jpg,audio/patsusidopipo.mp3,,,,,,,,,,,,,,,,,,,,,,,,,,,,,,,,,,,,,,,,,,,,,,,,,,,,,,,,,,,,,,,,
,,,,,,,,,R_UryUcXR5uIhqtCp,2022-07-15_10h40.27.289,jpn_C02,2022.1.2,MacIntel,59.95203837,,,space,1.8153,0,19,19,4,1,セル　ホレト　ムク,,,CartoonStims/chef_kick_cowboy_r.jpg,audio/seruhoretomuku.mp3,,,,,,,,,,,,,,,,,,,,,,,,,,,,,,,,,,,,,,,,,,,,,,,,,,,,,,,,,,,,,,,,
,,,,,,,,,R_UryUcXR5uIhqtCp,2022-07-15_10h40.27.289,jpn_C02,2022.1.2,MacIntel,59.95203837,,,space,2.7251,0,20,20,44,1,プミ　ピポ　ホレト,,,CartoonStims/doctor_punch_chef_r.jpg,audio/pumipipohoreto.mp3,,,,,,,,,,,,,,,,,,,,,,,,,,,,,,,,,,,,,,,,,,,,,,,,,,,,,,,,,,,,,,,,
,,,,,,,,,R_UryUcXR5uIhqtCp,2022-07-15_10h40.27.289,jpn_C02,2022.1.2,MacIntel,59.95203837,,,space,2.1725,0,21,21,40,1,プミ　ホレト　シド,,,CartoonStims/chef_punch_artist_r.jpg,audio/pumihoretosido.mp3,,,,,,,,,,,,,,,,,,,,,,,,,,,,,,,,,,,,,,,,,,,,,,,,,,,,,,,,,,,,,,,,
,,,,,,,,,R_UryUcXR5uIhqtCp,2022-07-15_10h40.27.289,jpn_C02,2022.1.2,MacIntel,59.95203837,,,space,2.0322,0,22,22,3,1,セル　ルピン　ムク,,,CartoonStims/burglar_kick_cowboy_r.jpg,audio/serulupinmuku.mp3,,,,,,,,,,,,,,,,,,,,,,,,,,,,,,,,,,,,,,,,,,,,,,,,,,,,,,,,,,,,,,,,
,,,,,,,,,R_UryUcXR5uIhqtCp,2022-07-15_10h40.27.289,jpn_C02,2022.1.2,MacIntel,59.95203837,,,space,1.5086,0,23,23,28,1,パツ　ホレト　ドキ,,,CartoonStims/chef_shoot_boxer_r.jpg,audio/patsuhoretodoki.mp3,,,,,,,,,,,,,,,,,,,,,,,,,,,,,,,,,,,,,,,,,,,,,,,,,,,,,,,,,,,,,,,,
,,,,,,,,,R_UryUcXR5uIhqtCp,2022-07-15_10h40.27.289,jpn_C02,2022.1.2,MacIntel,59.95203837,,,space,1.8573,0,24,24,35,1,パツ　ドキ　ムク,,,CartoonStims/boxer_shoot_cowboy_r.jpg,audio/patsudokimuku.mp3,,,,,,,,,,,,,,,,,,,,,,,,,,,,,,,,,,,,,,,,,,,,,,,,,,,,,,,,,,,,,,,,
,,,,,,,,,R_UryUcXR5uIhqtCp,2022-07-15_10h40.27.289,jpn_C02,2022.1.2,MacIntel,59.95203837,,,space,2.9774,0,25,25,17,1,トマ　ホレト　ドキ,,,CartoonStims/chef_point_boxer_r.jpg,audio/tomahoretodoki.mp3,,,,,,,,,,,,,,,,,,,,,,,,,,,,,,,,,,,,,,,,,,,,,,,,,,,,,,,,,,,,,,,,
,,,,,,,,,R_UryUcXR5uIhqtCp,2022-07-15_10h40.27.289,jpn_C02,2022.1.2,MacIntel,59.95203837,,,space,1.5466,0,26,26,16,1,トマ　ホレト　ピポ,,,CartoonStims/chef_point_doctor_r.jpg,audio/tomahoretopipo.mp3,,,,,,,,,,,,,,,,,,,,,,,,,,,,,,,,,,,,,,,,,,,,,,,,,,,,,,,,,,,,,,,,
,,,,,,,,,R_UryUcXR5uIhqtCp,2022-07-15_10h40.27.289,jpn_C02,2022.1.2,MacIntel,59.95203837,,,space,1.8635,0,27,27,32,1,パツ　ピポ　ルピン,,,CartoonStims/doctor_shoot_burglar_r.jpg,audio/patsupipolupin.mp3,,,,,,,,,,,,,,,,,,,,,,,,,,,,,,,,,,,,,,,,,,,,,,,,,,,,,,,,,,,,,,,,
,,,,,,,,,R_UryUcXR5uIhqtCp,2022-07-15_10h40.27.289,jpn_C02,2022.1.2,MacIntel,59.95203837,,,space,3.3726,0,28,28,2,1,セル 　ルピン 　ホレト,,,CartoonStims/burglar_kick_chef_r.jpg,audio/serulupinhoreto.mp3,,,,,,,,,,,,,,,,,,,,,,,,,,,,,,,,,,,,,,,,,,,,,,,,,,,,,,,,,,,,,,,,
,,,,,,,,,R_UryUcXR5uIhqtCp,2022-07-15_10h40.27.289,jpn_C02,2022.1.2,MacIntel,59.95203837,,,space,1.8553,0,29,29,8,1,セル　ピポ　ドキ,,,CartoonStims/doctor_kick_boxer_r.jpg,audio/serupipodoki.mp3,,,,,,,,,,,,,,,,,,,,,,,,,,,,,,,,,,,,,,,,,,,,,,,,,,,,,,,,,,,,,,,,
,,,,,,,,,R_UryUcXR5uIhqtCp,2022-07-15_10h40.27.289,jpn_C02,2022.1.2,MacIntel,59.95203837,,,space,1.1069,0,30,30,23,1,トマ　ドキ　ホレト,,,CartoonStims/boxer_point_chef_r.jpg,audio/tomadokihoreto.mp3,,,,,,,,,,,,,,,,,,,,,,,,,,,,,,,,,,,,,,,,,,,,,,,,,,,,,,,,,,,,,,,,
,,,,,,,,,R_UryUcXR5uIhqtCp,2022-07-15_10h40.27.289,jpn_C02,2022.1.2,MacIntel,59.95203837,,,space,2.938,0,31,31,46,1,プミ　ドキ　ムク,,,CartoonStims/boxer_punch_cowboy_r.jpg,audio/pumidokimuku.mp3,,,,,,,,,,,,,,,,,,,,,,,,,,,,,,,,,,,,,,,,,,,,,,,,,,,,,,,,,,,,,,,,
,,,,,,,,,R_UryUcXR5uIhqtCp,2022-07-15_10h40.27.289,jpn_C02,2022.1.2,MacIntel,59.95203837,,,space,2.0972,0,32,32,45,1,プミ　ピポ　ムク,,,CartoonStims/doctor_punch_cowboy_r.jpg,audio/pumipipomuku.mp3,,,,,,,,,,,,,,,,,,,,,,,,,,,,,,,,,,,,,,,,,,,,,,,,,,,,,,,,,,,,,,,,
,,,,,,,,,R_UryUcXR5uIhqtCp,2022-07-15_10h40.27.289,jpn_C02,2022.1.2,MacIntel,59.95203837,,,space,1.3432,0,33,33,19,1,トマ　ムク　シド,,,CartoonStims/cowboy_point_artist_r.jpg,audio/tomamukusido.mp3,,,,,,,,,,,,,,,,,,,,,,,,,,,,,,,,,,,,,,,,,,,,,,,,,,,,,,,,,,,,,,,,
,,,,,,,,,R_UryUcXR5uIhqtCp,2022-07-15_10h40.27.289,jpn_C02,2022.1.2,MacIntel,59.95203837,,,space,1.1394,0,34,34,10,1,セル　ドキ　シド,,,CartoonStims/boxer_kick_artist_r.jpg,audio/serudokisido.mp3,,,,,,,,,,,,,,,,,,,,,,,,,,,,,,,,,,,,,,,,,,,,,,,,,,,,,,,,,,,,,,,,
,,,,,,,,,R_UryUcXR5uIhqtCp,2022-07-15_10h40.27.289,jpn_C02,2022.1.2,MacIntel,59.95203837,,,space,1.9205,0,35,35,27,1,パツ　ルピン　ドキ,,,CartoonStims/burglar_shoot_boxer_r.jpg,audio/patsulupindoki.mp3,,,,,,,,,,,,,,,,,,,,,,,,,,,,,,,,,,,,,,,,,,,,,,,,,,,,,,,,,,,,,,,,
,,,,,,,,,R_UryUcXR5uIhqtCp,2022-07-15_10h40.27.289,jpn_C02,2022.1.2,MacIntel,59.95203837,,,space,2.6752,0,36,36,6,1,セル　ムク　ピポ,,,CartoonStims/cowboy_kick_doctor_r.jpg,audio/serumukupipo.mp3,,,,,,,,,,,,,,,,,,,,,,,,,,,,,,,,,,,,,,,,,,,,,,,,,,,,,,,,,,,,,,,,
,,,,,,,,,R_UryUcXR5uIhqtCp,2022-07-15_10h40.27.289,jpn_C02,2022.1.2,MacIntel,59.95203837,,,space,1.0643,0,37,37,21,1,トマ　ピポ　ルピン,,,CartoonStims/doctor_point_burglar_r.jpg,audio/tomapipolupin.mp3,,,,,,,,,,,,,,,,,,,,,,,,,,,,,,,,,,,,,,,,,,,,,,,,,,,,,,,,,,,,,,,,
,,,,,,,,,R_UryUcXR5uIhqtCp,2022-07-15_10h40.27.289,jpn_C02,2022.1.2,MacIntel,59.95203837,,,space,8.6157,0,38,38,39,1,プミ　ルピン　シド,,,CartoonStims/burglar_punch_artist_r.jpg,audio/pumilupinsido.mp3,,,,,,,,,,,,,,,,,,,,,,,,,,,,,,,,,,,,,,,,,,,,,,,,,,,,,,,,,,,,,,,,
,,,,,,,,,R_UryUcXR5uIhqtCp,2022-07-15_10h40.27.289,jpn_C02,2022.1.2,MacIntel,59.95203837,,,space,1.7716,0,39,39,9,1,セル　ピポ　シド,,,CartoonStims/doctor_kick_artist_r.jpg,audio/serupiposido.mp3,,,,,,,,,,,,,,,,,,,,,,,,,,,,,,,,,,,,,,,,,,,,,,,,,,,,,,,,,,,,,,,,
,,,,,,,,,R_UryUcXR5uIhqtCp,2022-07-15_10h40.27.289,jpn_C02,2022.1.2,MacIntel,59.95203837,,,space,0.2291,0,40,40,18,1,トマ　ムク　ドキ,,,CartoonStims/cowboy_point_boxer_r.jpg,audio/tomamukudoki.mp3,,,,,,,,,,,,,,,,,,,,,,,,,,,,,,,,,,,,,,,,,,,,,,,,,,,,,,,,,,,,,,,,
,,,,,,,,,R_UryUcXR5uIhqtCp,2022-07-15_10h40.27.289,jpn_C02,2022.1.2,MacIntel,59.95203837,,,space,1.9116,0,41,41,5,1,セル　ホレト　ピポ,,,CartoonStims/chef_kick_doctor_r.jpg,audio/seruhoretopipo.mp3,,,,,,,,,,,,,,,,,,,,,,,,,,,,,,,,,,,,,,,,,,,,,,,,,,,,,,,,,,,,,,,,
,,,,,,,,,R_UryUcXR5uIhqtCp,2022-07-15_10h40.27.289,jpn_C02,2022.1.2,MacIntel,59.95203837,,,space,0.4594,0,42,42,12,1,トマ　シド　ホレト,,,CartoonStims/artist_point_chef_r.jpg,audio/tomasidohoreto.mp3,,,,,,,,,,,,,,,,,,,,,,,,,,,,,,,,,,,,,,,,,,,,,,,,,,,,,,,,,,,,,,,,
,,,,,,,,,R_UryUcXR5uIhqtCp,2022-07-15_10h40.27.289,jpn_C02,2022.1.2,MacIntel,59.95203837,,,space,1.3396,0,43,43,1,1,セル 　シド 　ホレト,,,CartoonStims/artist_kick_chef_r.jpg,audio/serusidohoreto.mp3,,,,,,,,,,,,,,,,,,,,,,,,,,,,,,,,,,,,,,,,,,,,,,,,,,,,,,,,,,,,,,,,
,,,,,,,,,R_UryUcXR5uIhqtCp,2022-07-15_10h40.27.289,jpn_C02,2022.1.2,MacIntel,59.95203837,,,space,0.196,0,44,44,0,1,セル　シド　ルピン,,,CartoonStims/artist_kick_burglar_r.jpg,audio/serusidolupin.mp3,,,,,,,,,,,,,,,,,,,,,,,,,,,,,,,,,,,,,,,,,,,,,,,,,,,,,,,,,,,,,,,,
,,,,,,,,,R_UryUcXR5uIhqtCp,2022-07-15_10h40.27.289,jpn_C02,2022.1.2,MacIntel,59.95203837,,,space,0.5732,0,45,45,13,1,トマ　シド　ムク,,,CartoonStims/artist_point_cowboy_r.jpg,audio/tomasidomuku.mp3,,,,,,,,,,,,,,,,,,,,,,,,,,,,,,,,,,,,,,,,,,,,,,,,,,,,,,,,,,,,,,,,
,,,,,,,,,R_UryUcXR5uIhqtCp,2022-07-15_10h40.27.289,jpn_C02,2022.1.2,MacIntel,59.95203837,,,space,1.4512,0,46,46,38,1,プミ　ルピン　ドキ,,,CartoonStims/burglar_punch_boxer_r.jpg,audio/pumilupindoki.mp3,,,,,,,,,,,,,,,,,,,,,,,,,,,,,,,,,,,,,,,,,,,,,,,,,,,,,,,,,,,,,,,,
,,,,,,,,,R_UryUcXR5uIhqtCp,2022-07-15_10h40.27.289,jpn_C02,2022.1.2,MacIntel,59.95203837,,,space,0.2382,0,47,47,29,1,パツ　ホレト　シド,,,CartoonStims/chef_shoot_artist_r.jpg,audio/patsuhoretosido.mp3,,,,,,,,,,,,,,,,,,,,,,,,,,,,,,,,,,,,,,,,,,,,,,,,,,,,,,,,,,,,,,,,
,,,,,,,,,R_UryUcXR5uIhqtCp,2022-07-15_10h40.27.289,jpn_C02,2022.1.2,MacIntel,59.95203837,,,,,,,,,,,,,,,space,0.3089,right,1,6.7003,0,0,0,0,1,,,,,,,,,,,,,,,,,,,,,,,,,,,,,,,,,,,,,,,,,,,,,,,,,,,,,,
,,,,,,,,,R_UryUcXR5uIhqtCp,2022-07-15_10h40.27.289,jpn_C02,2022.1.2,MacIntel,59.95203837,,,,,,,,,,,,,,,,,,,,,,,,,0,0,0,7,1,CartoonStims/artist_punch_cowboy_r.jpg,セル　シド　ムク,CartoonStims/artist_kick_cowboy_r.jpg,right,CartoonStims/artist_kick_cowboy_r.jpg,audio/serusidomuku.mp3,残念！ こちらが正しい画像です。,,,,,,,,,,,,,,,,,,,,,,,,,,,,,,,,,,,,,,,,,,
,,,,,,,,,R_UryUcXR5uIhqtCp,2022-07-15_10h40.27.289,jpn_C02,2022.1.2,MacIntel,59.95203837,,,,,,,,,,,,,,,,,right,1,3.0761,0,0,0,0,1,,,,,,,,,,,,,,,,,,,,,,,,,,,,,,,,,,,,,,,,,,,,,,,,,,,,,,
,,,,,,,,,R_UryUcXR5uIhqtCp,2022-07-15_10h40.27.289,jpn_C02,2022.1.2,MacIntel,59.95203837,,,,,,,,,,,,,,,,,,,,,,,,,0,1,1,1,1,CartoonStims/chef_point_burglar_r.jpg,トマ　ホレト　シド,CartoonStims/chef_point_artist_r.jpg,right,CartoonStims/chef_point_artist_r.jpg,audio/tomahoretosido.mp3,残念！ こちらが正しい画像です。,,,,,,,,,,,,,,,,,,,,,,,,,,,,,,,,,,,,,,,,,,
,,,,,,,,,R_UryUcXR5uIhqtCp,2022-07-15_10h40.27.289,jpn_C02,2022.1.2,MacIntel,59.95203837,,,,,,,,,,,,,,,,,right,1,3.8431,0,0,0,0,1,,,,,,,,,,,,,,,,,,,,,,,,,,,,,,,,,,,,,,,,,,,,,,,,,,,,,,
,,,,,,,,,R_UryUcXR5uIhqtCp,2022-07-15_10h40.27.289,jpn_C02,2022.1.2,MacIntel,59.95203837,,,,,,,,,,,,,,,,,,,,,,,,,0,2,2,3,1,CartoonStims/cowboy_punch_doctor_r.jpg,プミ　ムク　ドキ,CartoonStims/cowboy_punch_boxer_r.jpg,right,CartoonStims/cowboy_punch_boxer_r.jpg,audio/pumimukudoki.mp3,残念！ こちらが正しい画像です。,,,,,,,,,,,,,,,,,,,,,,,,,,,,,,,,,,,,,,,,,,
,,,,,,,,,R_UryUcXR5uIhqtCp,2022-07-15_10h40.27.289,jpn_C02,2022.1.2,MacIntel,59.95203837,,,,,,,,,,,,,,,,,right,1,1.5211,0,0,0,0,1,,,,,,,,,,,,,,,,,,,,,,,,,,,,,,,,,,,,,,,,,,,,,,,,,,,,,,
,,,,,,,,,R_UryUcXR5uIhqtCp,2022-07-15_10h40.27.289,jpn_C02,2022.1.2,MacIntel,59.95203837,,,,,,,,,,,,,,,,,,,,,,,,,0,3,3,5,1,CartoonStims/cowboy_point_chef_r.jpg,パツ　ムク　ホレト,CartoonStims/cowboy_shoot_chef_r.jpg,right,CartoonStims/cowboy_shoot_chef_r.jpg,audio/patsumukuhoreto.mp3,残念！ こちらが正しい画像です。,,,,,,,,,,,,,,,,,,,,,,,,,,,,,,,,,,,,,,,,,,
,,,,,,,,,R_UryUcXR5uIhqtCp,2022-07-15_10h40.27.289,jpn_C02,2022.1.2,MacIntel,59.95203837,,,,,,,,,,,,,,,,,right,1,4.9605,0,0,0,0,1,,,,,,,,,,,,,,,,,,,,,,,,,,,,,,,,,,,,,,,,,,,,,,,,,,,,,,
,,,,,,,,,R_UryUcXR5uIhqtCp,2022-07-15_10h40.27.289,jpn_C02,2022.1.2,MacIntel,59.95203837,,,,,,,,,,,,,,,,,,,,,,,,,0,4,4,11,1,CartoonStims/burglar_punch_cowboy_r.jpg,プミ　ホレト　ムク,CartoonStims/chef_punch_cowboy_r.jpg,right,CartoonStims/chef_punch_cowboy_r.jpg,audio/pumihoretomuku.mp3,残念！ こちらが正しい画像です。,,,,,,,,,,,,,,,,,,,,,,,,,,,,,,,,,,,,,,,,,,
,,,,,,,,,R_UryUcXR5uIhqtCp,2022-07-15_10h40.27.289,jpn_C02,2022.1.2,MacIntel,59.95203837,,,,,,,,,,,,,,,,,left,1,5.0275,,,,,,,,,,,,,,,,,,0,0,0,0,1,,,,,,,,,,,,,,,,,,,,,,,,,,,,,,,,,,,,,
,,,,,,,,,R_UryUcXR5uIhqtCp,2022-07-15_10h40.27.289,jpn_C02,2022.1.2,MacIntel,59.95203837,,,,,,,,,,,,,,,,,,,,,,,,,0,5,5,2,1,CartoonStims/boxer_shoot_doctor_r.jpg,パツ　ドキ　ピポ,CartoonStims/boxer_shoot_artist_r.jpg,left,CartoonStims/boxer_shoot_doctor_r.jpg,audio/patsudokipipo.mp3,残念！ こちらが正しい画像です。,,,,,,,,,,,,,,,,,,,,,,,,,,,,,,,,,,,,,,,,,,
,,,,,,,,,R_UryUcXR5uIhqtCp,2022-07-15_10h40.27.289,jpn_C02,2022.1.2,MacIntel,59.95203837,,,,,,,,,,,,,,,,,right,1,3.212,0,0,0,0,1,,,,,,,,,,,,,,,,,,,,,,,,,,,,,,,,,,,,,,,,,,,,,,,,,,,,,,
,,,,,,,,,R_UryUcXR5uIhqtCp,2022-07-15_10h40.27.289,jpn_C02,2022.1.2,MacIntel,59.95203837,,,,,,,,,,,,,,,,,,,,,,,,,0,6,6,9,1,CartoonStims/chef_kick_artist_r.jpg,セル　ムク　シド,CartoonStims/cowboy_kick_artist_r.jpg,right,CartoonStims/cowboy_kick_artist_r.jpg,audio/serumukusido.mp3,残念！ こちらが正しい画像です。,,,,,,,,,,,,,,,,,,,,,,,,,,,,,,,,,,,,,,,,,,
,,,,,,,,,R_UryUcXR5uIhqtCp,2022-07-15_10h40.27.289,jpn_C02,2022.1.2,MacIntel,59.95203837,,,,,,,,,,,,,,,,,left,1,4.9431,,,,,,,,,,,,,,,,,,0,0,0,0,1,,,,,,,,,,,,,,,,,,,,,,,,,,,,,,,,,,,,,
,,,,,,,,,R_UryUcXR5uIhqtCp,2022-07-15_10h40.27.289,jpn_C02,2022.1.2,MacIntel,59.95203837,,,,,,,,,,,,,,,,,,,,,,,,,0,7,7,6,1,CartoonStims/doctor_punch_boxer_r.jpg,プミ　ピポ　ドキ,CartoonStims/doctor_shoot_boxer_r.jpg,left,CartoonStims/doctor_punch_boxer_r.jpg,audio/pumipipodoki.mp3,残念！ こちらが正しい画像です。,,,,,,,,,,,,,,,,,,,,,,,,,,,,,,,,,,,,,,,,,,
,,,,,,,,,R_UryUcXR5uIhqtCp,2022-07-15_10h40.27.289,jpn_C02,2022.1.2,MacIntel,59.95203837,,,,,,,,,,,,,,,,,left,1,3.3693,,,,,,,,,,,,,,,,,,0,0,0,0,1,,,,,,,,,,,,,,,,,,,,,,,,,,,,,,,,,,,,,
,,,,,,,,,R_UryUcXR5uIhqtCp,2022-07-15_10h40.27.289,jpn_C02,2022.1.2,MacIntel,59.95203837,,,,,,,,,,,,,,,,,,,,,,,,,0,8,8,8,1,CartoonStims/doctor_point_cowboy_r.jpg,トマ　ピポ　ムク,CartoonStims/boxer_point_cowboy_r.jpg,left,CartoonStims/doctor_point_cowboy_r.jpg,audio/tomapipomuku.mp3,残念！ こちらが正しい画像です。,,,,,,,,,,,,,,,,,,,,,,,,,,,,,,,,,,,,,,,,,,
,,,,,,,,,R_UryUcXR5uIhqtCp,2022-07-15_10h40.27.289,jpn_C02,2022.1.2,MacIntel,59.95203837,,,,,,,,,,,,,,,,,left,1,4.6101,,,,,,,,,,,,,,,,,,0,0,0,0,1,,,,,,,,,,,,,,,,,,,,,,,,,,,,,,,,,,,,,
,,,,,,,,,R_UryUcXR5uIhqtCp,2022-07-15_10h40.27.289,jpn_C02,2022.1.2,MacIntel,59.95203837,,,,,,,,,,,,,,,,,,,,,,,,,0,9,9,10,1,CartoonStims/artist_shoot_burglar_r.jpg,パツ　シド　ルピン,CartoonStims/chef_shoot_burglar_r.jpg,left,CartoonStims/artist_shoot_burglar_r.jpg,audio/patsusidolupin.mp3,残念！ こちらが正しい画像です。,,,,,,,,,,,,,,,,,,,,,,,,,,,,,,,,,,,,,,,,,,
,,,,,,,,,R_UryUcXR5uIhqtCp,2022-07-15_10h40.27.289,jpn_C02,2022.1.2,MacIntel,59.95203837,,,,,,,,,,,,,,,,,left,1,4.2092,,,,,,,,,,,,,,,,,,0,0,0,0,1,,,,,,,,,,,,,,,,,,,,,,,,,,,,,,,,,,,,,
,,,,,,,,,R_UryUcXR5uIhqtCp,2022-07-15_10h40.27.289,jpn_C02,2022.1.2,MacIntel,59.95203837,,,,,,,,,,,,,,,,,,,,,,,,,0,10,10,0,1,CartoonStims/doctor_kick_burglar_r.jpg,セル　ピポ　ルピン,CartoonStims/doctor_kick_chef_r.jpg,left,CartoonStims/doctor_kick_burglar_r.jpg,audio/serupipolupin.mp3,残念！ こちらが正しい画像です。,,,,,,,,,,,,,,,,,,,,,,,,,,,,,,,,,,,,,,,,,,
,,,,,,,,,R_UryUcXR5uIhqtCp,2022-07-15_10h40.27.289,jpn_C02,2022.1.2,MacIntel,59.95203837,,,,,,,,,,,,,,,,,left,1,1.9361,,,,,,,,,,,,,,,,,,0,0,0,0,1,,,,,,,,,,,,,,,,,,,,,,,,,,,,,,,,,,,,,
,,,,,,,,,R_UryUcXR5uIhqtCp,2022-07-15_10h40.27.289,jpn_C02,2022.1.2,MacIntel,59.95203837,,,,,,,,,,,,,,,,,,,,,,,,,0,11,11,4,1,CartoonStims/burglar_point_boxer_r.jpg,トマ　ルピン　ドキ,CartoonStims/burglar_kick_boxer_r.jpg,left,CartoonStims/burglar_point_boxer_r.jpg,audio/tomalupindoki.mp3,残念！ こちらが正しい画像です。,,,,,,,,,,,,,,,,,,,,,,,,,,,,,,,,,,,,,,,,,,
,,,,,,,,,R_UryUcXR5uIhqtCp,2022-07-15_10h40.27.289,jpn_C02,2022.1.2,MacIntel,59.95203837,,,,,,,,,,,,,,,,,,,,,,,,,,,,,,,,,,,,,,,,,,space,2.8265,パツ　ルピン,right,13.1803,0,0,0,0,1,,,,,,,,,,,,,,,,,,,,,,,,,,,
,,,,,,,,,R_UryUcXR5uIhqtCp,2022-07-15_10h40.27.289,jpn_C02,2022.1.2,MacIntel,59.95203837,,,,,,,,,,,,,CartoonStims/burglar_shoot_chef_r.jpg,audio/patsulupinhoreto.mp3,,,,,,,,,,,,,,,,,,,,,,,,,,,,,,,,,,,,,,0,0,0,6,1,パツ　ルピン　ホレト,,,,,,,,,,,,,,,,,,,,,
,,,,,,,,,R_UryUcXR5uIhqtCp,2022-07-15_10h40.27.289,jpn_C02,2022.1.2,MacIntel,59.95203837,,,,,,,,,,,,,,,,,,,,,,,,,,,,,,,,,,,,,,,,,,,,トマ　ホレト　ルピン,right,16.7969,0,0,0,0,1,,,,,,,,,,,,,,,,,,,,,,,,,,,
,,,,,,,,,R_UryUcXR5uIhqtCp,2022-07-15_10h40.27.289,jpn_C02,2022.1.2,MacIntel,59.95203837,,,,,,,,,,,,,CartoonStims/chef_point_burglar_r.jpg,audio/tomahoretolupin.mp3,,,,,,,,,,,,,,,,,,,,,,,,,,,,,,,,,,,,,,0,1,1,5,1,トマ　ホレト　ルピン,,,,,,,,,,,,,,,,,,,,,
,,,,,,,,,R_UryUcXR5uIhqtCp,2022-07-15_10h40.27.289,jpn_C02,2022.1.2,MacIntel,59.95203837,,,,,,,,,,,,,,,,,,,,,,,,,,,,,,,,,,,,,,,,,,,,セル　ムク　ルピン,right,10.2063,0,0,0,0,1,,,,,,,,,,,,,,,,,,,,,,,,,,,
,,,,,,,,,R_UryUcXR5uIhqtCp,2022-07-15_10h40.27.289,jpn_C02,2022.1.2,MacIntel,59.95203837,,,,,,,,,,,,,CartoonStims/cowboy_kick_burglar_r.jpg,audio/serumukulupin.mp3,,,,,,,,,,,,,,,,,,,,,,,,,,,,,,,,,,,,,,0,2,2,0,1,セル　ムク　ルピン,,,,,,,,,,,,,,,,,,,,,
,,,,,,,,,R_UryUcXR5uIhqtCp,2022-07-15_10h40.27.289,jpn_C02,2022.1.2,MacIntel,59.95203837,,,,,,,,,,,,,,,,,,,,,,,,,,,,,,,,,,,,,,,,,,,,プミ　ピポ　ドキ,right,14.3497,0,0,0,0,1,,,,,,,,,,,,,,,,,,,,,,,,,,,
,,,,,,,,,R_UryUcXR5uIhqtCp,2022-07-15_10h40.27.289,jpn_C02,2022.1.2,MacIntel,59.95203837,,,,,,,,,,,,,CartoonStims/doctor_punch_boxer_r.jpg,audio/pumipipodoki.mp3,,,,,,,,,,,,,,,,,,,,,,,,,,,,,,,,,,,,,,0,3,3,10,1,プミ　ピポ　ドキ,,,,,,,,,,,,,,,,,,,,,
,,,,,,,,,R_UryUcXR5uIhqtCp,2022-07-15_10h40.27.289,jpn_C02,2022.1.2,MacIntel,59.95203837,,,,,,,,,,,,,,,,,,,,,,,,,,,,,,,,,,,,,,,,,,,,セル　ピポ　ホレト,right,13.6402,0,0,0,0,1,,,,,,,,,,,,,,,,,,,,,,,,,,,
,,,,,,,,,R_UryUcXR5uIhqtCp,2022-07-15_10h40.27.289,jpn_C02,2022.1.2,MacIntel,59.95203837,,,,,,,,,,,,,CartoonStims/doctor_kick_chef_r.jpg,audio/serupipohoreto.mp3,,,,,,,,,,,,,,,,,,,,,,,,,,,,,,,,,,,,,,0,4,4,1,1,セル　ピポ　ホレト,,,,,,,,,,,,,,,,,,,,,
,,,,,,,,,R_UryUcXR5uIhqtCp,2022-07-15_10h40.27.289,jpn_C02,2022.1.2,MacIntel,59.95203837,,,,,,,,,,,,,,,,,,,,,,,,,,,,,,,,,,,,,,,,,,,,パツ　ホレト　ムク,right,14.9572,0,0,0,0,1,,,,,,,,,,,,,,,,,,,,,,,,,,,
,,,,,,,,,R_UryUcXR5uIhqtCp,2022-07-15_10h40.27.289,jpn_C02,2022.1.2,MacIntel,59.95203837,,,,,,,,,,,,,CartoonStims/chef_shoot_cowboy_r.jpg,audio/patsuhoretomuku.mp3,,,,,,,,,,,,,,,,,,,,,,,,,,,,,,,,,,,,,,0,5,5,7,1,パツ　ホレト　ムク,,,,,,,,,,,,,,,,,,,,,
,,,,,,,,,R_UryUcXR5uIhqtCp,2022-07-15_10h40.27.289,jpn_C02,2022.1.2,MacIntel,59.95203837,,,,,,,,,,,,,,,,,,,,,,,,,,,,,,,,,,,,,,,,,,,,プミ　ドキ　シド,right,10.5405,0,0,0,0,1,,,,,,,,,,,,,,,,,,,,,,,,,,,
,,,,,,,,,R_UryUcXR5uIhqtCp,2022-07-15_10h40.27.289,jpn_C02,2022.1.2,MacIntel,59.95203837,,,,,,,,,,,,,CartoonStims/boxer_punch_artist_r.jpg,audio/pumidokisido.mp3,,,,,,,,,,,,,,,,,,,,,,,,,,,,,,,,,,,,,,0,6,6,11,1,プミ　ドキ　シド,,,,,,,,,,,,,,,,,,,,,
,,,,,,,,,R_UryUcXR5uIhqtCp,2022-07-15_10h40.27.289,jpn_C02,2022.1.2,MacIntel,59.95203837,,,,,,,,,,,,,,,,,,,,,,,,,,,,,,,,,,,,,,,,,,,,パツ　ムク　ピポ,right,13.0253,0,0,0,0,1,,,,,,,,,,,,,,,,,,,,,,,,,,,
,,,,,,,,,R_UryUcXR5uIhqtCp,2022-07-15_10h40.27.289,jpn_C02,2022.1.2,MacIntel,59.95203837,,,,,,,,,,,,,CartoonStims/cowboy_shoot_doctor_r.jpg,audio/patsumukupipo.mp3,,,,,,,,,,,,,,,,,,,,,,,,,,,,,,,,,,,,,,0,7,7,8,1,パツ　ムク　ピポ,,,,,,,,,,,,,,,,,,,,,
,,,,,,,,,R_UryUcXR5uIhqtCp,2022-07-15_10h40.27.289,jpn_C02,2022.1.2,MacIntel,59.95203837,,,,,,,,,,,,,,,,,,,,,,,,,,,,,,,,,,,,,,,,,,,,セル　ドキ　ムク,right,7.5121,0,0,0,0,1,,,,,,,,,,,,,,,,,,,,,,,,,,,
,,,,,,,,,R_UryUcXR5uIhqtCp,2022-07-15_10h40.27.289,jpn_C02,2022.1.2,MacIntel,59.95203837,,,,,,,,,,,,,CartoonStims/boxer_kick_cowboy_r.jpg,audio/serudokimuku.mp3,,,,,,,,,,,,,,,,,,,,,,,,,,,,,,,,,,,,,,0,8,8,2,1,セル　ドキ　ムク,,,,,,,,,,,,,,,,,,,,,
,,,,,,,,,R_UryUcXR5uIhqtCp,2022-07-15_10h40.27.289,jpn_C02,2022.1.2,MacIntel,59.95203837,,,,,,,,,,,,,,,,,,,,,,,,,,,,,,,,,,,,,,,,,,,,プミ　シド　ルピン,right,12.9602,0,0,0,0,1,,,,,,,,,,,,,,,,,,,,,,,,,,,
,,,,,,,,,R_UryUcXR5uIhqtCp,2022-07-15_10h40.27.289,jpn_C02,2022.1.2,MacIntel,59.95203837,,,,,,,,,,,,,CartoonStims/artist_punch_burglar_r.jpg,audio/pumisidolupin.mp3,,,,,,,,,,,,,,,,,,,,,,,,,,,,,,,,,,,,,,0,9,9,9,1,プミ　シド　ルピン,,,,,,,,,,,,,,,,,,,,,
,,,,,,,,,R_UryUcXR5uIhqtCp,2022-07-15_10h40.27.289,jpn_C02,2022.1.2,MacIntel,59.95203837,,,,,,,,,,,,,,,,,,,,,,,,,,,,,,,,,,,,,,,,,,,,トマ　シド　ドキ,right,7.8526,0,0,0,0,1,,,,,,,,,,,,,,,,,,,,,,,,,,,
,,,,,,,,,R_UryUcXR5uIhqtCp,2022-07-15_10h40.27.289,jpn_C02,2022.1.2,MacIntel,59.95203837,,,,,,,,,,,,,CartoonStims/artist_point_boxer_r.jpg,audio/tomasidodoki.mp3,,,,,,,,,,,,,,,,,,,,,,,,,,,,,,,,,,,,,,0,10,10,3,1,トマ　シド　ドキ,,,,,,,,,,,,,,,,,,,,,
,,,,,,,,,R_UryUcXR5uIhqtCp,2022-07-15_10h40.27.289,jpn_C02,2022.1.2,MacIntel,59.95203837,,,,,,,,,,,,,,,,,,,,,,,,,,,,,,,,,,,,,,,,,,,,トマ　ルピン　シド,right,8.4725,0,0,0,0,1,,,,,,,,,,,,,,,,,,,,,,,,,,,
,,,,,,,,,R_UryUcXR5uIhqtCp,2022-07-15_10h40.27.289,jpn_C02,2022.1.2,MacIntel,59.95203837,,,,,,,,,,,,,CartoonStims/burglar_point_artist_r.jpg,audio/tomalupinsido.mp3,,,,,,,,,,,,,,,,,,,,,,,,,,,,,,,,,,,,,,0,11,11,4,1,トマ　ルピン　シド,,,,,,,,,,,,,,,,,,,,,
,,,,,,,,,R_UryUcXR5uIhqtCp,2022-07-15_10h40.27.289,jpn_C02,2022.1.2,MacIntel,59.95203837,,,,,,,,,,,,,,,,,,,,,,,,,,,,,,,,,,,,,,,,,,,,,,,,,,,,,,,,,,,space,9.4808,0,1,1,1,1,AffExposure.xlsx,"第二のトライアルの学習では、この言語で書かれた文を見ていただきます。引き続き注意して、 聞こえた音を復唱してください。


スペースキーを押してください。",1,AffFCT.xlsx,ここからクイズが始まります。 スクリーンに表示されるテキストに合う画像を選んでください。,AffTest.xlsx,1,次にここまで学んだことをアウトプットしていただきます。 表示される画像を描写していると思う単語を、テキストボックスにタイプしてください。 答えを提出したあとに正しい正解が少しの間画面に写ります。,1,"これで第二のトライアルが終了しました。 ここで休憩をとっていただいても構いません。

休憩が終わりましたら、 スペースキーを押して続きの学習を行いましょう。",,,
,,,,,,,,,R_UryUcXR5uIhqtCp,2022-07-15_10h40.27.289,jpn_C02,2022.1.2,MacIntel,59.95203837,space,2.6214,space,7.7973,0,0,0,45,1,ピク　プミ　ピポ　ムク,,,CartoonStims/doctor_punch_cowboy_r_no.jpg,audio/pikupumipipomuku.mp3,,,,,,,,,,,,,,,,,,,,,,,,,,,,,,,,,,,,,,,,,,,,,,,,,,,,,,,,,,,,,,,,
,,,,,,,,,R_UryUcXR5uIhqtCp,2022-07-15_10h40.27.289,jpn_C02,2022.1.2,MacIntel,59.95203837,,,space,4.1091,0,1,1,31,1,ピク　パツ　ムク　ルピン,,,CartoonStims/cowboy_shoot_burglar_r_no.jpg,audio/pikupatsumukulupin.mp3,,,,,,,,,,,,,,,,,,,,,,,,,,,,,,,,,,,,,,,,,,,,,,,,,,,,,,,,,,,,,,,,
,,,,,,,,,R_UryUcXR5uIhqtCp,2022-07-15_10h40.27.289,jpn_C02,2022.1.2,MacIntel,59.95203837,,,space,2.8708,0,2,2,9,1,ピク　セル　ピポ　シド,,,CartoonStims/doctor_kick_artist_r_no.jpg,audio/pikuserupiposido.mp3,,,,,,,,,,,,,,,,,,,,,,,,,,,,,,,,,,,,,,,,,,,,,,,,,,,,,,,,,,,,,,,,
,,,,,,,,,R_UryUcXR5uIhqtCp,2022-07-15_10h40.27.289,jpn_C02,2022.1.2,MacIntel,59.95203837,,,space,2.3365,0,3,3,3,1,ピク　セル　ルピン　ムク,,,CartoonStims/burglar_kick_cowboy_r_no.jpg,audio/pikuserulupinmuku.mp3,,,,,,,,,,,,,,,,,,,,,,,,,,,,,,,,,,,,,,,,,,,,,,,,,,,,,,,,,,,,,,,,
,,,,,,,,,R_UryUcXR5uIhqtCp,2022-07-15_10h40.27.289,jpn_C02,2022.1.2,MacIntel,59.95203837,,,space,6.2546,0,4,4,27,1,パツ　ピク　ルピン　ドキ,,,CartoonStims/burglar_shoot_boxer_r_no.jpg,audio/patsupikulupindoki.mp3,,,,,,,,,,,,,,,,,,,,,,,,,,,,,,,,,,,,,,,,,,,,,,,,,,,,,,,,,,,,,,,,
,,,,,,,,,R_UryUcXR5uIhqtCp,2022-07-15_10h40.27.289,jpn_C02,2022.1.2,MacIntel,59.95203837,,,space,4.4079,0,5,5,47,1,ピク　プミ　ドキ　ピポ,,,CartoonStims/boxer_punch_doctor_r_no.jpg,audio/pikupumidokipipo.mp3,,,,,,,,,,,,,,,,,,,,,,,,,,,,,,,,,,,,,,,,,,,,,,,,,,,,,,,,,,,,,,,,
,,,,,,,,,R_UryUcXR5uIhqtCp,2022-07-15_10h40.27.289,jpn_C02,2022.1.2,MacIntel,59.95203837,,,space,4.4456,0,6,6,34,1,ピク　パツ　ドキ　ホレト,,,CartoonStims/boxer_shoot_chef_r_no.jpg,audio/pikupatsudokihoreto.mp3,,,,,,,,,,,,,,,,,,,,,,,,,,,,,,,,,,,,,,,,,,,,,,,,,,,,,,,,,,,,,,,,
,,,,,,,,,R_UryUcXR5uIhqtCp,2022-07-15_10h40.27.289,jpn_C02,2022.1.2,MacIntel,59.95203837,,,space,4.7887,0,7,7,4,1,セル　ピク　ホレト　ムク,,,CartoonStims/chef_kick_cowboy_r_no.jpg,audio/serupikuhoretomuku.mp3,,,,,,,,,,,,,,,,,,,,,,,,,,,,,,,,,,,,,,,,,,,,,,,,,,,,,,,,,,,,,,,,
,,,,,,,,,R_UryUcXR5uIhqtCp,2022-07-15_10h40.27.289,jpn_C02,2022.1.2,MacIntel,59.95203837,,,space,1.94,0,8,8,20,1,ピク　トマ　ピポ　シド,,,CartoonStims/doctor_point_artist_r_no.jpg,audio/pikutomapiposido.mp3,,,,,,,,,,,,,,,,,,,,,,,,,,,,,,,,,,,,,,,,,,,,,,,,,,,,,,,,,,,,,,,,
,,,,,,,,,R_UryUcXR5uIhqtCp,2022-07-15_10h40.27.289,jpn_C02,2022.1.2,MacIntel,59.95203837,,,space,1.6086,0,9,9,10,1,ピク　セル　ドキ　シド,,,CartoonStims/boxer_kick_artist_r_no.jpg,audio/pikuserudokisido.mp3,,,,,,,,,,,,,,,,,,,,,,,,,,,,,,,,,,,,,,,,,,,,,,,,,,,,,,,,,,,,,,,,
,,,,,,,,,R_UryUcXR5uIhqtCp,2022-07-15_10h40.27.289,jpn_C02,2022.1.2,MacIntel,59.95203837,,,space,1.0522,0,10,10,14,1,ピク　トマ　ルピン　ムク,,,CartoonStims/burglar_point_cowboy_r_no.jpg,audio/pikutomalupinmuku.mp3,,,,,,,,,,,,,,,,,,,,,,,,,,,,,,,,,,,,,,,,,,,,,,,,,,,,,,,,,,,,,,,,
,,,,,,,,,R_UryUcXR5uIhqtCp,2022-07-15_10h40.27.289,jpn_C02,2022.1.2,MacIntel,59.95203837,,,space,1.7178,0,11,11,6,1,ピク　セル　ムク　ピポ,,,CartoonStims/cowboy_kick_doctor_r_no.jpg,audio/pikuserumukupipo.mp3,,,,,,,,,,,,,,,,,,,,,,,,,,,,,,,,,,,,,,,,,,,,,,,,,,,,,,,,,,,,,,,,
,,,,,,,,,R_UryUcXR5uIhqtCp,2022-07-15_10h40.27.289,jpn_C02,2022.1.2,MacIntel,59.95203837,,,space,13.498,0,12,12,0,1,セル　ピク　シド　ルピン,,,CartoonStims/artist_kick_burglar_r_no.jpg,audio/serupikusidolupin.mp3,,,,,,,,,,,,,,,,,,,,,,,,,,,,,,,,,,,,,,,,,,,,,,,,,,,,,,,,,,,,,,,,
,,,,,,,,,R_UryUcXR5uIhqtCp,2022-07-15_10h40.27.289,jpn_C02,2022.1.2,MacIntel,59.95203837,,,space,4.5314,0,13,13,30,1,ピク　パツ　ムク　シド,,,CartoonStims/cowboy_shoot_artist_r_no.jpg,audio/pikupatsumukusido.mp3,,,,,,,,,,,,,,,,,,,,,,,,,,,,,,,,,,,,,,,,,,,,,,,,,,,,,,,,,,,,,,,,
,,,,,,,,,R_UryUcXR5uIhqtCp,2022-07-15_10h40.27.289,jpn_C02,2022.1.2,MacIntel,59.95203837,,,space,3.3258,0,14,14,1,1,ピク　セル　シド　ホレト,,,CartoonStims/artist_kick_chef_r_no.jpg,audio/pikuserusidohoreto.mp3,,,,,,,,,,,,,,,,,,,,,,,,,,,,,,,,,,,,,,,,,,,,,,,,,,,,,,,,,,,,,,,,
,,,,,,,,,R_UryUcXR5uIhqtCp,2022-07-15_10h40.27.289,jpn_C02,2022.1.2,MacIntel,59.95203837,,,space,3.7489,0,15,15,35,1,ピク　パツ　ドキ　ムク,,,CartoonStims/boxer_shoot_cowboy_r_no.jpg,audio/pikupatsudokimuku.mp3,,,,,,,,,,,,,,,,,,,,,,,,,,,,,,,,,,,,,,,,,,,,,,,,,,,,,,,,,,,,,,,,
,,,,,,,,,R_UryUcXR5uIhqtCp,2022-07-15_10h40.27.289,jpn_C02,2022.1.2,MacIntel,59.95203837,,,space,1.5707,0,16,16,21,1,ピク　トマ　ピポ　ルピン,,,CartoonStims/doctor_point_burglar_r_no.jpg,audio/pikutomapipolupin.mp3,,,,,,,,,,,,,,,,,,,,,,,,,,,,,,,,,,,,,,,,,,,,,,,,,,,,,,,,,,,,,,,,
,,,,,,,,,R_UryUcXR5uIhqtCp,2022-07-15_10h40.27.289,jpn_C02,2022.1.2,MacIntel,59.95203837,,,space,2.1477,0,17,17,11,1,ピク　セル　ドキ　ルピン,,,CartoonStims/boxer_kick_burglar_r_no.jpg,audio/pikuserudokilupin.mp3,,,,,,,,,,,,,,,,,,,,,,,,,,,,,,,,,,,,,,,,,,,,,,,,,,,,,,,,,,,,,,,,
,,,,,,,,,R_UryUcXR5uIhqtCp,2022-07-15_10h40.27.289,jpn_C02,2022.1.2,MacIntel,59.95203837,,,space,5.8213,0,18,18,46,1,プミ　ピク　ドキ　ムク,,,CartoonStims/boxer_punch_cowboy_r_no.jpg,audio/pumipikudokimuku.mp3,,,,,,,,,,,,,,,,,,,,,,,,,,,,,,,,,,,,,,,,,,,,,,,,,,,,,,,,,,,,,,,,
,,,,,,,,,R_UryUcXR5uIhqtCp,2022-07-15_10h40.27.289,jpn_C02,2022.1.2,MacIntel,59.95203837,,,space,4.5044,0,19,19,16,1,ピク　トマ　ホレト　ピポ,,,CartoonStims/chef_point_doctor_r_no.jpg,audio/pikutomahoretopipo.mp3,,,,,,,,,,,,,,,,,,,,,,,,,,,,,,,,,,,,,,,,,,,,,,,,,,,,,,,,,,,,,,,,
,,,,,,,,,R_UryUcXR5uIhqtCp,2022-07-15_10h40.27.289,jpn_C02,2022.1.2,MacIntel,59.95203837,,,space,4.6719,0,20,20,5,1,ピク　セル　ホレト　ピポ,,,CartoonStims/chef_kick_doctor_r_no.jpg,audio/pikuseruhoretopipo.mp3,,,,,,,,,,,,,,,,,,,,,,,,,,,,,,,,,,,,,,,,,,,,,,,,,,,,,,,,,,,,,,,,
,,,,,,,,,R_UryUcXR5uIhqtCp,2022-07-15_10h40.27.289,jpn_C02,2022.1.2,MacIntel,59.95203837,,,space,6.576,0,21,21,13,1,ピク　トマ　シド　ムク,,,CartoonStims/artist_point_cowboy_r_no.jpg,audio/pikutomasidomuku.mp3,,,,,,,,,,,,,,,,,,,,,,,,,,,,,,,,,,,,,,,,,,,,,,,,,,,,,,,,,,,,,,,,
,,,,,,,,,R_UryUcXR5uIhqtCp,2022-07-15_10h40.27.289,jpn_C02,2022.1.2,MacIntel,59.95203837,,,space,2.0326,0,22,22,24,1,ピク　パツ　シド　ムク,,,CartoonStims/artist_shoot_cowboy_r_no.jpg,audio/pikupatsusidomuku.mp3,,,,,,,,,,,,,,,,,,,,,,,,,,,,,,,,,,,,,,,,,,,,,,,,,,,,,,,,,,,,,,,,
,,,,,,,,,R_UryUcXR5uIhqtCp,2022-07-15_10h40.27.289,jpn_C02,2022.1.2,MacIntel,59.95203837,,,space,2.0247,0,23,23,38,1,ピク　プミ　ルピン　ドキ,,,CartoonStims/burglar_punch_boxer_r_no.jpg,audio/pikupumilupindoki.mp3,,,,,,,,,,,,,,,,,,,,,,,,,,,,,,,,,,,,,,,,,,,,,,,,,,,,,,,,,,,,,,,,
,,,,,,,,,R_UryUcXR5uIhqtCp,2022-07-15_10h40.27.289,jpn_C02,2022.1.2,MacIntel,59.95203837,,,space,2.1707,0,24,24,7,1,ピク　セル　ムク　ドキ,,,CartoonStims/cowboy_kick_boxer_r_no.jpg,audio/pikuserumukudoki.mp3,,,,,,,,,,,,,,,,,,,,,,,,,,,,,,,,,,,,,,,,,,,,,,,,,,,,,,,,,,,,,,,,
,,,,,,,,,R_UryUcXR5uIhqtCp,2022-07-15_10h40.27.289,jpn_C02,2022.1.2,MacIntel,59.95203837,,,space,3.0217,0,25,25,8,1,セル　ピク　ピポ　ドキ,,,CartoonStims/doctor_kick_boxer_r_no.jpg,audio/serupikupipodoki.mp3,,,,,,,,,,,,,,,,,,,,,,,,,,,,,,,,,,,,,,,,,,,,,,,,,,,,,,,,,,,,,,,,
,,,,,,,,,R_UryUcXR5uIhqtCp,2022-07-15_10h40.27.289,jpn_C02,2022.1.2,MacIntel,59.95203837,,,space,1.4717,0,26,26,18,1,ピク　トマ　ムク　ドキ,,,CartoonStims/cowboy_point_boxer_r_no.jpg,audio/pikutomamukudoki.mp3,,,,,,,,,,,,,,,,,,,,,,,,,,,,,,,,,,,,,,,,,,,,,,,,,,,,,,,,,,,,,,,,
,,,,,,,,,R_UryUcXR5uIhqtCp,2022-07-15_10h40.27.289,jpn_C02,2022.1.2,MacIntel,59.95203837,,,space,2.5369,0,27,27,44,1,プミ　ピク　ピポ　ホレト,,,CartoonStims/doctor_punch_chef_r_no.jpg,audio/pumipikupipohoreto.mp3,,,,,,,,,,,,,,,,,,,,,,,,,,,,,,,,,,,,,,,,,,,,,,,,,,,,,,,,,,,,,,,,
,,,,,,,,,R_UryUcXR5uIhqtCp,2022-07-15_10h40.27.289,jpn_C02,2022.1.2,MacIntel,59.95203837,,,space,7.4946,0,28,28,29,1,パツ　ピク　ホレト　シド,,,CartoonStims/chef_shoot_artist_r_no.jpg,audio/patsupikuhoretosido.mp3,,,,,,,,,,,,,,,,,,,,,,,,,,,,,,,,,,,,,,,,,,,,,,,,,,,,,,,,,,,,,,,,
,,,,,,,,,R_UryUcXR5uIhqtCp,2022-07-15_10h40.27.289,jpn_C02,2022.1.2,MacIntel,59.95203837,,,space,1.0723,0,29,29,17,1,ピク　トマ　ホレト　ドキ,,,CartoonStims/chef_point_boxer_r_no.jpg,audio/pikutomahoretodoki.mp3,,,,,,,,,,,,,,,,,,,,,,,,,,,,,,,,,,,,,,,,,,,,,,,,,,,,,,,,,,,,,,,,
,,,,,,,,,R_UryUcXR5uIhqtCp,2022-07-15_10h40.27.289,jpn_C02,2022.1.2,MacIntel,59.95203837,,,space,8.3743,0,30,30,37,1,ピク　プミ　シド　ドキ,,,CartoonStims/artist_punch_boxer_r_no.jpg,audio/pikupumisidodoki.mp3,,,,,,,,,,,,,,,,,,,,,,,,,,,,,,,,,,,,,,,,,,,,,,,,,,,,,,,,,,,,,,,,
,,,,,,,,,R_UryUcXR5uIhqtCp,2022-07-15_10h40.27.289,jpn_C02,2022.1.2,MacIntel,59.95203837,,,space,5.2739,0,31,31,19,1,トマ　ピク　ムク　シド,,,CartoonStims/cowboy_point_artist_r_no.jpg,audio/tomapikumukusido.mp3,,,,,,,,,,,,,,,,,,,,,,,,,,,,,,,,,,,,,,,,,,,,,,,,,,,,,,,,,,,,,,,,
,,,,,,,,,R_UryUcXR5uIhqtCp,2022-07-15_10h40.27.289,jpn_C02,2022.1.2,MacIntel,59.95203837,,,space,3.1154,0,32,32,36,1,ピク　プミ　シド　ピポ,,,CartoonStims/artist_punch_doctor_r_no.jpg,audio/pikupumisidopipo.mp3,,,,,,,,,,,,,,,,,,,,,,,,,,,,,,,,,,,,,,,,,,,,,,,,,,,,,,,,,,,,,,,,
,,,,,,,,,R_UryUcXR5uIhqtCp,2022-07-15_10h40.27.289,jpn_C02,2022.1.2,MacIntel,59.95203837,,,space,6.5255,0,33,33,33,1,ピク　パツ　ピポ　ホレト,,,CartoonStims/doctor_shoot_chef_r_no.jpg,audio/pikupatsupipohoreto.mp3,,,,,,,,,,,,,,,,,,,,,,,,,,,,,,,,,,,,,,,,,,,,,,,,,,,,,,,,,,,,,,,,
,,,,,,,,,R_UryUcXR5uIhqtCp,2022-07-15_10h40.27.289,jpn_C02,2022.1.2,MacIntel,59.95203837,,,space,7.1597,0,34,34,26,1,ピク　パツ　ルピン　ピポ,,,CartoonStims/burglar_shoot_doctor_r_no.jpg,audio/pikupatsulupinpipo.mp3,,,,,,,,,,,,,,,,,,,,,,,,,,,,,,,,,,,,,,,,,,,,,,,,,,,,,,,,,,,,,,,,
,,,,,,,,,R_UryUcXR5uIhqtCp,2022-07-15_10h40.27.289,jpn_C02,2022.1.2,MacIntel,59.95203837,,,space,6.3778,0,35,35,2,1,ピク　セル　ルピン　ホレト,,,CartoonStims/burglar_kick_chef_r_no.jpg,audio/pikuserulupinhoreto.mp3,,,,,,,,,,,,,,,,,,,,,,,,,,,,,,,,,,,,,,,,,,,,,,,,,,,,,,,,,,,,,,,,
,,,,,,,,,R_UryUcXR5uIhqtCp,2022-07-15_10h40.27.289,jpn_C02,2022.1.2,MacIntel,59.95203837,,,space,2.0582,0,36,36,28,1,ピク　パツ　ホレト　ドキ,,,CartoonStims/chef_shoot_boxer_r_no.jpg,audio/pikupatsuhoretodoki.mp3,,,,,,,,,,,,,,,,,,,,,,,,,,,,,,,,,,,,,,,,,,,,,,,,,,,,,,,,,,,,,,,,
,,,,,,,,,R_UryUcXR5uIhqtCp,2022-07-15_10h40.27.289,jpn_C02,2022.1.2,MacIntel,59.95203837,,,space,3.6145,0,37,37,43,1,ピク　プミ　ムク　ホレト,,,CartoonStims/cowboy_punch_chef_r_no.jpg,audio/pikupumimukuhoreto.mp3,,,,,,,,,,,,,,,,,,,,,,,,,,,,,,,,,,,,,,,,,,,,,,,,,,,,,,,,,,,,,,,,
,,,,,,,,,R_UryUcXR5uIhqtCp,2022-07-15_10h40.27.289,jpn_C02,2022.1.2,MacIntel,59.95203837,,,space,4.8793,0,38,38,23,1,トマ　ピク　ドキ　ホレト,,,CartoonStims/boxer_point_chef_r_no.jpg,audio/tomapikudokihoreto.mp3,,,,,,,,,,,,,,,,,,,,,,,,,,,,,,,,,,,,,,,,,,,,,,,,,,,,,,,,,,,,,,,,
,,,,,,,,,R_UryUcXR5uIhqtCp,2022-07-15_10h40.27.289,jpn_C02,2022.1.2,MacIntel,59.95203837,,,space,6.2945,0,39,39,12,1,ピク　トマ　シド　ホレト,,,CartoonStims/artist_point_chef_r_no.jpg,audio/pikutomasidohoreto.mp3,,,,,,,,,,,,,,,,,,,,,,,,,,,,,,,,,,,,,,,,,,,,,,,,,,,,,,,,,,,,,,,,
,,,,,,,,,R_UryUcXR5uIhqtCp,2022-07-15_10h40.27.289,jpn_C02,2022.1.2,MacIntel,59.95203837,,,space,2.3894,0,40,40,41,1,ピク　プミ　ホレト　ルピン,,,CartoonStims/chef_punch_burglar_r_no.jpg,audio/pikupumihoretolupin.mp3,,,,,,,,,,,,,,,,,,,,,,,,,,,,,,,,,,,,,,,,,,,,,,,,,,,,,,,,,,,,,,,,
,,,,,,,,,R_UryUcXR5uIhqtCp,2022-07-15_10h40.27.289,jpn_C02,2022.1.2,MacIntel,59.95203837,,,space,2.786,0,41,41,42,1,プミ　ピク　ムク　ルピン,,,CartoonStims/cowboy_punch_burglar_r_no.jpg,audio/pumipikumukulupin.mp3,,,,,,,,,,,,,,,,,,,,,,,,,,,,,,,,,,,,,,,,,,,,,,,,,,,,,,,,,,,,,,,,
,,,,,,,,,R_UryUcXR5uIhqtCp,2022-07-15_10h40.27.289,jpn_C02,2022.1.2,MacIntel,59.95203837,,,space,3.2265,0,42,42,40,1,ピク　プミ　ホレト　シド,,,CartoonStims/chef_punch_artist_r_no.jpg,audio/pikupumihoretosido.mp3,,,,,,,,,,,,,,,,,,,,,,,,,,,,,,,,,,,,,,,,,,,,,,,,,,,,,,,,,,,,,,,,
,,,,,,,,,R_UryUcXR5uIhqtCp,2022-07-15_10h40.27.289,jpn_C02,2022.1.2,MacIntel,59.95203837,,,space,2.5679,0,43,43,15,1,トマ　ピク　ルピン　ピポ,,,CartoonStims/burglar_point_doctor_r_no.jpg,audio/tomapikulupinpipo.mp3,,,,,,,,,,,,,,,,,,,,,,,,,,,,,,,,,,,,,,,,,,,,,,,,,,,,,,,,,,,,,,,,
,,,,,,,,,R_UryUcXR5uIhqtCp,2022-07-15_10h40.27.289,jpn_C02,2022.1.2,MacIntel,59.95203837,,,space,2.0378,0,44,44,25,1,パツ　ピク　シド　ピポ,,,CartoonStims/artist_shoot_doctor_r_no.jpg,audio/patsupikusidopipo.mp3,,,,,,,,,,,,,,,,,,,,,,,,,,,,,,,,,,,,,,,,,,,,,,,,,,,,,,,,,,,,,,,,
,,,,,,,,,R_UryUcXR5uIhqtCp,2022-07-15_10h40.27.289,jpn_C02,2022.1.2,MacIntel,59.95203837,,,space,2.5238,0,45,45,32,1,ピク　パツ　ピポ　ルピン,,,CartoonStims/doctor_shoot_burglar_r_no.jpg,audio/pikupatsupipolupin.mp3,,,,,,,,,,,,,,,,,,,,,,,,,,,,,,,,,,,,,,,,,,,,,,,,,,,,,,,,,,,,,,,,
,,,,,,,,,R_UryUcXR5uIhqtCp,2022-07-15_10h40.27.289,jpn_C02,2022.1.2,MacIntel,59.95203837,,,space,2.0639,0,46,46,39,1,ピク　プミ　ルピン　シド,,,CartoonStims/burglar_punch_artist_r_no.jpg,audio/pikupumilupinsido.mp3,,,,,,,,,,,,,,,,,,,,,,,,,,,,,,,,,,,,,,,,,,,,,,,,,,,,,,,,,,,,,,,,
,,,,,,,,,R_UryUcXR5uIhqtCp,2022-07-15_10h40.27.289,jpn_C02,2022.1.2,MacIntel,59.95203837,,,space,2.5138,0,47,47,22,1,ピク　トマ　ドキ　ルピン,,,CartoonStims/boxer_point_burglar_r_no.jpg,audio/pikutomadokilupin.mp3,,,,,,,,,,,,,,,,,,,,,,,,,,,,,,,,,,,,,,,,,,,,,,,,,,,,,,,,,,,,,,,,
,,,,,,,,,R_UryUcXR5uIhqtCp,2022-07-15_10h40.27.289,jpn_C02,2022.1.2,MacIntel,59.95203837,,,,,,,,,,,,,,,space,7.0051,right,1,9.4584,0,0,0,0,1,,,,,,,,,,,,,,,,,,,,,,,,,,,,,,,,,,,,,,,,,,,,,,,,,,,,,,
,,,,,,,,,R_UryUcXR5uIhqtCp,2022-07-15_10h40.27.289,jpn_C02,2022.1.2,MacIntel,59.95203837,,,,,,,,,,,,,,,,,,,,,,,,,0,0,0,9,1,CartoonStims/boxer_shoot_doctor_r.jpg,ピク　パツ　ドキ　ピポ,CartoonStims/boxer_point_doctor_r.jpg,right,CartoonStims/boxer_point_doctor_r.jpg,audio/pikupatsudokipipo.mp3,"残念！ こちらが正しい画像です。

否定文は起きていないことを示しているのを思い出してください。",,,,,,,,,,,,,,,,,,,,,,,,,,,,,,,,,,,,,,,,,,
,,,,,,,,,R_UryUcXR5uIhqtCp,2022-07-15_10h40.27.289,jpn_C02,2022.1.2,MacIntel,59.95203837,,,,,,,,,,,,,,,,,left,1,4.687,,,,,,,,,,,,,,,,,,0,0,0,0,1,,,,,,,,,,,,,,,,,,,,,,,,,,,,,,,,,,,,,
,,,,,,,,,R_UryUcXR5uIhqtCp,2022-07-15_10h40.27.289,jpn_C02,2022.1.2,MacIntel,59.95203837,,,,,,,,,,,,,,,,,,,,,,,,,0,1,1,8,1,CartoonStims/burglar_punch_artist_r.jpg,ピク　トマ　ルピン　シド,CartoonStims/burglar_point_artist_r.jpg,left,CartoonStims/burglar_punch_artist_r.jpg,audio/pikutomalupinsido.mp3,"残念！ こちらが正しい画像です。

否定文は起きていないことを示しているのを思い出してください。",,,,,,,,,,,,,,,,,,,,,,,,,,,,,,,,,,,,,,,,,,
,,,,,,,,,R_UryUcXR5uIhqtCp,2022-07-15_10h40.27.289,jpn_C02,2022.1.2,MacIntel,59.95203837,,,,,,,,,,,,,,,,,left,1,4.3236,,,,,,,,,,,,,,,,,,0,0,0,0,1,,,,,,,,,,,,,,,,,,,,,,,,,,,,,,,,,,,,,
,,,,,,,,,R_UryUcXR5uIhqtCp,2022-07-15_10h40.27.289,jpn_C02,2022.1.2,MacIntel,59.95203837,,,,,,,,,,,,,,,,,,,,,,,,,0,2,2,0,1,CartoonStims/artist_shoot_burglar_r.jpg,プミ　ピク　シド　ルピン,CartoonStims/artist_punch_burglar_r.jpg,left,CartoonStims/artist_shoot_burglar_r.jpg,audio/pumipikusidolupin.mp3,"残念！ こちらが正しい画像です。

否定文は起きていないことを示しているのを思い出してください。",,,,,,,,,,,,,,,,,,,,,,,,,,,,,,,,,,,,,,,,,,
,,,,,,,,,R_UryUcXR5uIhqtCp,2022-07-15_10h40.27.289,jpn_C02,2022.1.2,MacIntel,59.95203837,,,,,,,,,,,,,,,,,left,1,2.3742,,,,,,,,,,,,,,,,,,0,0,0,0,1,,,,,,,,,,,,,,,,,,,,,,,,,,,,,,,,,,,,,
,,,,,,,,,R_UryUcXR5uIhqtCp,2022-07-15_10h40.27.289,jpn_C02,2022.1.2,MacIntel,59.95203837,,,,,,,,,,,,,,,,,,,,,,,,,0,3,3,4,1,CartoonStims/burglar_shoot_doctor_r.jpg,ピク　セル　ルピン　ピポ,CartoonStims/burglar_kick_doctor_r.jpg,left,CartoonStims/burglar_shoot_doctor_r.jpg,audio/pikuserulupinpipo.mp3,"残念！ こちらが正しい画像です。

否定文は起きていないことを示しているのを思い出してください。",,,,,,,,,,,,,,,,,,,,,,,,,,,,,,,,,,,,,,,,,,
,,,,,,,,,R_UryUcXR5uIhqtCp,2022-07-15_10h40.27.289,jpn_C02,2022.1.2,MacIntel,59.95203837,,,,,,,,,,,,,,,,,left,1,3.3665,,,,,,,,,,,,,,,,,,0,0,0,0,1,,,,,,,,,,,,,,,,,,,,,,,,,,,,,,,,,,,,,
,,,,,,,,,R_UryUcXR5uIhqtCp,2022-07-15_10h40.27.289,jpn_C02,2022.1.2,MacIntel,59.95203837,,,,,,,,,,,,,,,,,,,,,,,,,0,4,4,6,1,CartoonStims/artist_shoot_boxer_r.jpg,ピク　トマ　シド　ドキ,CartoonStims/artist_point_boxer_r.jpg,left,CartoonStims/artist_shoot_boxer_r.jpg,audio/pikutomasidodoki.mp3,"残念！ こちらが正しい画像です。

否定文は起きていないことを示しているのを思い出してください。",,,,,,,,,,,,,,,,,,,,,,,,,,,,,,,,,,,,,,,,,,
,,,,,,,,,R_UryUcXR5uIhqtCp,2022-07-15_10h40.27.289,jpn_C02,2022.1.2,MacIntel,59.95203837,,,,,,,,,,,,,,,,,right,1,17.3205,0,0,0,0,1,,,,,,,,,,,,,,,,,,,,,,,,,,,,,,,,,,,,,,,,,,,,,,,,,,,,,,
,,,,,,,,,R_UryUcXR5uIhqtCp,2022-07-15_10h40.27.289,jpn_C02,2022.1.2,MacIntel,59.95203837,,,,,,,,,,,,,,,,,,,,,,,,,0,5,5,7,1,CartoonStims/cowboy_point_chef_r.jpg,トマ　ピク　ムク　ホレト,CartoonStims/cowboy_kick_chef_r.jpg,right,CartoonStims/cowboy_kick_chef_r.jpg,audio/tomapikumukuhoreto.mp3,"残念！ こちらが正しい画像です。

否定文は起きていないことを示しているのを思い出してください。",,,,,,,,,,,,,,,,,,,,,,,,,,,,,,,,,,,,,,,,,,
,,,,,,,,,R_UryUcXR5uIhqtCp,2022-07-15_10h40.27.289,jpn_C02,2022.1.2,MacIntel,59.95203837,,,,,,,,,,,,,,,,,right,1,1.4941,0,0,0,0,1,,,,,,,,,,,,,,,,,,,,,,,,,,,,,,,,,,,,,,,,,,,,,,,,,,,,,,
,,,,,,,,,R_UryUcXR5uIhqtCp,2022-07-15_10h40.27.289,jpn_C02,2022.1.2,MacIntel,59.95203837,,,,,,,,,,,,,,,,,,,,,,,,,0,6,6,11,1,CartoonStims/chef_shoot_burglar_r.jpg,ピク　パツ　ホレト　ルピン,CartoonStims/chef_kick_burglar_r.jpg,right,CartoonStims/chef_kick_burglar_r.jpg,audio/pikupatsuhoretolupin.mp3,"残念！ こちらが正しい画像です。

否定文は起きていないことを示しているのを思い出してください。",,,,,,,,,,,,,,,,,,,,,,,,,,,,,,,,,,,,,,,,,,
,,,,,,,,,R_UryUcXR5uIhqtCp,2022-07-15_10h40.27.289,jpn_C02,2022.1.2,MacIntel,59.95203837,,,,,,,,,,,,,,,,,left,1,9.8105,,,,,,,,,,,,,,,,,,0,0,0,0,1,,,,,,,,,,,,,,,,,,,,,,,,,,,,,,,,,,,,,
,,,,,,,,,R_UryUcXR5uIhqtCp,2022-07-15_10h40.27.289,jpn_C02,2022.1.2,MacIntel,59.95203837,,,,,,,,,,,,,,,,,,,,,,,,,0,7,7,2,1,CartoonStims/doctor_point_boxer_r.jpg,ピク　プミ　ピポ　ドキ,CartoonStims/doctor_punch_boxer_r.jpg,left,CartoonStims/doctor_point_boxer_r.jpg,audio/pikupumipipodoki.mp3,"残念！ こちらが正しい画像です。

否定文は起きていないことを示しているのを思い出してください。",,,,,,,,,,,,,,,,,,,,,,,,,,,,,,,,,,,,,,,,,,
,,,,,,,,,R_UryUcXR5uIhqtCp,2022-07-15_10h40.27.289,jpn_C02,2022.1.2,MacIntel,59.95203837,,,,,,,,,,,,,,,,,right,1,3.4496,0,0,0,0,1,,,,,,,,,,,,,,,,,,,,,,,,,,,,,,,,,,,,,,,,,,,,,,,,,,,,,,
,,,,,,,,,R_UryUcXR5uIhqtCp,2022-07-15_10h40.27.289,jpn_C02,2022.1.2,MacIntel,59.95203837,,,,,,,,,,,,,,,,,,,,,,,,,0,8,8,1,1,CartoonStims/chef_punch_cowboy_r.jpg,ピク　プミ　ホレト　ムク,CartoonStims/chef_kick_cowboy_r.jpg,right,CartoonStims/chef_kick_cowboy_r.jpg,audio/pikupumihoretomuku.mp3,"残念！ こちらが正しい画像です。

否定文は起きていないことを示しているのを思い出してください。",,,,,,,,,,,,,,,,,,,,,,,,,,,,,,,,,,,,,,,,,,
,,,,,,,,,R_UryUcXR5uIhqtCp,2022-07-15_10h40.27.289,jpn_C02,2022.1.2,MacIntel,59.95203837,,,,,,,,,,,,,,,,,right,1,4.7936,0,0,0,0,1,,,,,,,,,,,,,,,,,,,,,,,,,,,,,,,,,,,,,,,,,,,,,,,,,,,,,,
,,,,,,,,,R_UryUcXR5uIhqtCp,2022-07-15_10h40.27.289,jpn_C02,2022.1.2,MacIntel,59.95203837,,,,,,,,,,,,,,,,,,,,,,,,,0,9,9,5,1,CartoonStims/boxer_kick_cowboy_r.jpg,ピク　セル　ドキ　ムク,CartoonStims/boxer_punch_cowboy_r.jpg,right,CartoonStims/boxer_punch_cowboy_r.jpg,audio/pikuserudokimuku.mp3,"残念！ こちらが正しい画像です。

否定文は起きていないことを示しているのを思い出してください。",,,,,,,,,,,,,,,,,,,,,,,,,,,,,,,,,,,,,,,,,,
,,,,,,,,,R_UryUcXR5uIhqtCp,2022-07-15_10h40.27.289,jpn_C02,2022.1.2,MacIntel,59.95203837,,,,,,,,,,,,,,,,,right,1,9.6833,0,0,0,0,1,,,,,,,,,,,,,,,,,,,,,,,,,,,,,,,,,,,,,,,,,,,,,,,,,,,,,,
,,,,,,,,,R_UryUcXR5uIhqtCp,2022-07-15_10h40.27.289,jpn_C02,2022.1.2,MacIntel,59.95203837,,,,,,,,,,,,,,,,,,,,,,,,,0,10,10,3,1,CartoonStims/chef_kick_artist_r.jpg,セル　ピク　ホレト　シド,CartoonStims/chef_point_artist_r.jpg,right,CartoonStims/chef_point_artist_r.jpg,audio/serupikuhoretosido.mp3,"残念！ こちらが正しい画像です。

否定文は起きていないことを示しているのを思い出してください。",,,,,,,,,,,,,,,,,,,,,,,,,,,,,,,,,,,,,,,,,,
,,,,,,,,,R_UryUcXR5uIhqtCp,2022-07-15_10h40.27.289,jpn_C02,2022.1.2,MacIntel,59.95203837,,,,,,,,,,,,,,,,,left,1,9.2257,,,,,,,,,,,,,,,,,,0,0,0,0,1,,,,,,,,,,,,,,,,,,,,,,,,,,,,,,,,,,,,,
,,,,,,,,,R_UryUcXR5uIhqtCp,2022-07-15_10h40.27.289,jpn_C02,2022.1.2,MacIntel,59.95203837,,,,,,,,,,,,,,,,,,,,,,,,,0,11,11,10,1,CartoonStims/doctor_punch_cowboy_r.jpg,パツ　ピク　ピポ　ムク,CartoonStims/doctor_shoot_cowboy_r.jpg,left,CartoonStims/doctor_punch_cowboy_r.jpg,audio/patsupikupipomuku.mp3,"残念！ こちらが正しい画像です。

否定文は起きていないことを示しているのを思い出してください。",,,,,,,,,,,,,,,,,,,,,,,,,,,,,,,,,,,,,,,,,,
,,,,,,,,,R_UryUcXR5uIhqtCp,2022-07-15_10h40.27.289,jpn_C02,2022.1.2,MacIntel,59.95203837,,,,,,,,,,,,,CartoonStims/artist_punch_burglar_r.jpg,,,,,,,,,,,,,,,,,,,,,,,,,,,,,space,4.8383,ピク　プミ　ムク　ルピン,right,16.931,,,,,,0,0,0,33,1,,,,,,,,,,,,,,,,,,,,プミ　シド　ルピン,プミ　シド　ルピン,0
,,,,,,,,,R_UryUcXR5uIhqtCp,2022-07-15_10h40.27.289,jpn_C02,2022.1.2,MacIntel,59.95203837,,,,,,,,,,,,,CartoonStims/doctor_shoot_artist_r_no.jpg,,,,,,,,,,,,,,,,,,,,,,,,,,,,,,,ピク　ピポ,right,14.4422,,,,,,0,1,1,16,1,,,,,,,,,,,,,,,,,,,,ピク　パツ　ピポ　シド,パツ　ピク　ピポ　シド,1
,,,,,,,,,R_UryUcXR5uIhqtCp,2022-07-15_10h40.27.289,jpn_C02,2022.1.2,MacIntel,59.95203837,,,,,,,,,,,,,CartoonStims/cowboy_shoot_boxer_r_no.jpg,,,,,,,,,,,,,,,,,,,,,,,,,,,,,,,ピク　パツ　ムク　ドキ,right,22.0874,,,,,,0,2,2,15,1,,,,,,,,,,,,,,,,,,,,ピク　パツ　ムク　ドキ,パツ　ピク　ムク　ドキ,1
,,,,,,,,,R_UryUcXR5uIhqtCp,2022-07-15_10h40.27.289,jpn_C02,2022.1.2,MacIntel,59.95203837,,,,,,,,,,,,,CartoonStims/burglar_point_artist_r.jpg,,,,,,,,,,,,,,,,,,,,,,,,,,,,,,,トマ　ルピン　シド,right,13.3002,,,,,,0,3,3,28,1,,,,,,,,,,,,,,,,,,,,トマ　ルピン　シド,トマ　ルピン　シド,0
,,,,,,,,,R_UryUcXR5uIhqtCp,2022-07-15_10h40.27.289,jpn_C02,2022.1.2,MacIntel,59.95203837,,,,,,,,,,,,,CartoonStims/boxer_kick_doctor_r_no.jpg,,,,,,,,,,,,,,,,,,,,,,,,,,,,,,,ピク　セル　ドキ　ピポ,right,14.6997,,,,,,0,4,4,5,1,,,,,,,,,,,,,,,,,,,,ピク　セル　ドキ　ピポ,セル　ピク　ドキ　ピポ,1
,,,,,,,,,R_UryUcXR5uIhqtCp,2022-07-15_10h40.27.289,jpn_C02,2022.1.2,MacIntel,59.95203837,,,,,,,,,,,,,CartoonStims/artist_point_boxer_r.jpg,,,,,,,,,,,,,,,,,,,,,,,,,,,,,,,トマ　シド　ドキ,right,8.2574,,,,,,0,5,5,27,1,,,,,,,,,,,,,,,,,,,,トマ　シド　ドキ,トマ　シド　ドキ,0
,,,,,,,,,R_UryUcXR5uIhqtCp,2022-07-15_10h40.27.289,jpn_C02,2022.1.2,MacIntel,59.95203837,,,,,,,,,,,,,CartoonStims/chef_shoot_cowboy_r.jpg,,,,,,,,,,,,,,,,,,,,,,,,,,,,,,,パツ　ホレト　ムク,right,16.148,,,,,,0,6,6,31,1,,,,,,,,,,,,,,,,,,,,パツ　ホレト　ムク,パツ　ホレト　ムク,0
,,,,,,,,,R_UryUcXR5uIhqtCp,2022-07-15_10h40.27.289,jpn_C02,2022.1.2,MacIntel,59.95203837,,,,,,,,,,,,,CartoonStims/doctor_kick_cowboy_r_no.jpg,,,,,,,,,,,,,,,,,,,,,,,,,,,,,,,ピク　ピポ　ムク,right,8.5127,,,,,,0,7,7,4,1,,,,,,,,,,,,,,,,,,,,ピク　セル　ピポ　ムク,セル　ピク　ピポ　ムク,1
,,,,,,,,,R_UryUcXR5uIhqtCp,2022-07-15_10h40.27.289,jpn_C02,2022.1.2,MacIntel,59.95203837,,,,,,,,,,,,,CartoonStims/cowboy_kick_burglar_r.jpg,,,,,,,,,,,,,,,,,,,,,,,,,,,,,,,セル　ムク　ルピン,right,13.1862,,,,,,0,8,8,24,1,,,,,,,,,,,,,,,,,,,,セル　ムク　ルピン,セル　ムク　ルピン,0
,,,,,,,,,R_UryUcXR5uIhqtCp,2022-07-15_10h40.27.289,jpn_C02,2022.1.2,MacIntel,59.95203837,,,,,,,,,,,,,CartoonStims/burglar_shoot_chef_r.jpg,,,,,,,,,,,,,,,,,,,,,,,,,,,,,,,パツ　ルピン　ホレト,right,11.4472,,,,,,0,9,9,30,1,,,,,,,,,,,,,,,,,,,,パツ　ルピン　ホレト,パツ　ルピン　ホレト,0
,,,,,,,,,R_UryUcXR5uIhqtCp,2022-07-15_10h40.27.289,jpn_C02,2022.1.2,MacIntel,59.95203837,,,,,,,,,,,,,CartoonStims/cowboy_point_doctor_r_no.jpg,,,,,,,,,,,,,,,,,,,,,,,,,,,,,,,ピク　トマ　ムク,right,11.3967,,,,,,0,10,10,9,1,,,,,,,,,,,,,,,,,,,,ピク　トマ　ムク　ピポ,トマ　ピク　ムク　ピポ,1
,,,,,,,,,R_UryUcXR5uIhqtCp,2022-07-15_10h40.27.289,jpn_C02,2022.1.2,MacIntel,59.95203837,,,,,,,,,,,,,CartoonStims/cowboy_shoot_doctor_r.jpg,,,,,,,,,,,,,,,,,,,,,,,,,,,,,,,パツ　ムク　ピポ,right,28.0143,,,,,,0,11,11,32,1,,,,,,,,,,,,,,,,,,,,パツ　ムク　ピポ,パツ　ムク　ピポ,0
,,,,,,,,,R_UryUcXR5uIhqtCp,2022-07-15_10h40.27.289,jpn_C02,2022.1.2,MacIntel,59.95203837,,,,,,,,,,,,,CartoonStims/burglar_point_chef_r_no.jpg,,,,,,,,,,,,,,,,,,,,,,,,,,,,,,,ピク　ルピン　ホレト,right,9.2114,,,,,,0,12,12,7,1,,,,,,,,,,,,,,,,,,,,ピク　トマ　ルピン　ホレト,トマ　ピク　ルピン　ホレト,1
,,,,,,,,,R_UryUcXR5uIhqtCp,2022-07-15_10h40.27.289,jpn_C02,2022.1.2,MacIntel,59.95203837,,,,,,,,,,,,,CartoonStims/doctor_punch_burglar_r_no.jpg,,,,,,,,,,,,,,,,,,,,,,,,,,,,,,,ピク　ピポ　ルピン,right,8.8845,,,,,,0,13,13,22,1,,,,,,,,,,,,,,,,,,,,ピク　プミ　ピポ　ルピン,プミ　ピク　ピポ　ルピン,1
,,,,,,,,,R_UryUcXR5uIhqtCp,2022-07-15_10h40.27.289,jpn_C02,2022.1.2,MacIntel,59.95203837,,,,,,,,,,,,,CartoonStims/doctor_kick_chef_r.jpg,,,,,,,,,,,,,,,,,,,,,,,,,,,,,,,セル　ピポ　ホレト,right,9.4285,,,,,,0,14,14,25,1,,,,,,,,,,,,,,,,,,,,セル　ピポ　ホレト,セル　ピポ　ホレト,0
,,,,,,,,,R_UryUcXR5uIhqtCp,2022-07-15_10h40.27.289,jpn_C02,2022.1.2,MacIntel,59.95203837,,,,,,,,,,,,,CartoonStims/chef_punch_boxer_r_no.jpg,,,,,,,,,,,,,,,,,,,,,,,,,,,,,,,ピク　ピポ　ドキ,right,8.0002,,,,,,0,15,15,20,1,,,,,,,,,,,,,,,,,,,,ピク　プミ　ホレト　ドキ,プミ　ピク　ホレト　ドキ,1
,,,,,,,,,R_UryUcXR5uIhqtCp,2022-07-15_10h40.27.289,jpn_C02,2022.1.2,MacIntel,59.95203837,,,,,,,,,,,,,CartoonStims/artist_kick_boxer_r_no.jpg,,,,,,,,,,,,,,,,,,,,,,,,,,,,,,,ピク　セル　シド　ドキ,right,19.2834,,,,,,0,16,16,0,1,,,,,,,,,,,,,,,,,,,,ピク　セル　シド　ドキ,セル　ピク　シド　ドキ,1
,,,,,,,,,R_UryUcXR5uIhqtCp,2022-07-15_10h40.27.289,jpn_C02,2022.1.2,MacIntel,59.95203837,,,,,,,,,,,,,CartoonStims/burglar_kick_artist_r_no.jpg,,,,,,,,,,,,,,,,,,,,,,,,,,,,,,,ピク　セル　ルピン　シド,right,14.097,,,,,,0,17,17,1,1,,,,,,,,,,,,,,,,,,,,ピク　セル　ルピン　シド,セル　ピク　ルピン　シド,1
,,,,,,,,,R_UryUcXR5uIhqtCp,2022-07-15_10h40.27.289,jpn_C02,2022.1.2,MacIntel,59.95203837,,,,,,,,,,,,,CartoonStims/burglar_shoot_cowboy_r_no.jpg,,,,,,,,,,,,,,,,,,,,,,,,,,,,,,,ピク　パツ　ルピン　ムク,right,15.6307,,,,,,0,18,18,13,1,,,,,,,,,,,,,,,,,,,,ピク　パツ　ルピン　ムク,パツ　ピク　ルピン　ムク,1
,,,,,,,,,R_UryUcXR5uIhqtCp,2022-07-15_10h40.27.289,jpn_C02,2022.1.2,MacIntel,59.95203837,,,,,,,,,,,,,CartoonStims/chef_point_burglar_r.jpg,,,,,,,,,,,,,,,,,,,,,,,,,,,,,,,トマ　ホレト　ルピン,right,7.8239,,,,,,0,19,19,29,1,,,,,,,,,,,,,,,,,,,,トマ　ホレト　ルピン,トマ　ホレト　ルピン,0
,,,,,,,,,R_UryUcXR5uIhqtCp,2022-07-15_10h40.27.289,jpn_C02,2022.1.2,MacIntel,59.95203837,,,,,,,,,,,,,CartoonStims/cowboy_punch_artist_r_no.jpg,,,,,,,,,,,,,,,,,,,,,,,,,,,,,,,ピク　プミ　ムク　シド,right,25.9721,,,,,,0,20,20,21,1,,,,,,,,,,,,,,,,,,,,ピク　プミ　ムク　シド,プミ　ピク　ムク　シド,1
,,,,,,,,,R_UryUcXR5uIhqtCp,2022-07-15_10h40.27.289,jpn_C02,2022.1.2,MacIntel,59.95203837,,,,,,,,,,,,,CartoonStims/boxer_punch_chef_r_no.jpg,,,,,,,,,,,,,,,,,,,,,,,,,,,,,,,ピク　プミ　ドキ　ホレト,right,23.3723,,,,,,0,21,21,23,1,,,,,,,,,,,,,,,,,,,,ピク　プミ　ドキ　ホレト,プミ　ピク　ドキ　ホレト,1
,,,,,,,,,R_UryUcXR5uIhqtCp,2022-07-15_10h40.27.289,jpn_C02,2022.1.2,MacIntel,59.95203837,,,,,,,,,,,,,CartoonStims/burglar_punch_doctor_r_no.jpg,,,,,,,,,,,,,,,,,,,,,,,,,,,,,,,ピク　プミ　ルピン　ピポ,right,17.6791,,,,,,0,22,22,19,1,,,,,,,,,,,,,,,,,,,,ピク　プミ　ルピン　ピポ,プミ　ピク　ルピン　ピポ,1
,,,,,,,,,R_UryUcXR5uIhqtCp,2022-07-15_10h40.27.289,jpn_C02,2022.1.2,MacIntel,59.95203837,,,,,,,,,,,,,CartoonStims/artist_shoot_chef_r_no.jpg,,,,,,,,,,,,,,,,,,,,,,,,,,,,,,,ピク　パツ　シド　ホレト,right,12.6985,,,,,,0,23,23,12,1,,,,,,,,,,,,,,,,,,,,ピク　パツ　シド　ホレト,パツ　ピク　シド　ホレト,1
,,,,,,,,,R_UryUcXR5uIhqtCp,2022-07-15_10h40.27.289,jpn_C02,2022.1.2,MacIntel,59.95203837,,,,,,,,,,,,,CartoonStims/boxer_shoot_burglar_r_no.jpg,,,,,,,,,,,,,,,,,,,,,,,,,,,,,,,ピク　パツ　ドキ　ルピン,right,10.9475,,,,,,0,24,24,17,1,,,,,,,,,,,,,,,,,,,,ピク　パツ　ドキ　ルピン,パツ　ピク　ドキ　ルピン,1
,,,,,,,,,R_UryUcXR5uIhqtCp,2022-07-15_10h40.27.289,jpn_C02,2022.1.2,MacIntel,59.95203837,,,,,,,,,,,,,CartoonStims/chef_point_cowboy_r_no.jpg,,,,,,,,,,,,,,,,,,,,,,,,,,,,,,,ピク　トマ　ホレト　ムク,right,10.0731,,,,,,0,25,25,8,1,,,,,,,,,,,,,,,,,,,,ピク　トマ　ホレト　ムク,トマ　ピク　ホレト　ムク,1
,,,,,,,,,R_UryUcXR5uIhqtCp,2022-07-15_10h40.27.289,jpn_C02,2022.1.2,MacIntel,59.95203837,,,,,,,,,,,,,CartoonStims/chef_shoot_doctor_r_no.jpg,,,,,,,,,,,,,,,,,,,,,,,,,,,,,,,ピク　パツ　ホレト　ピポ,right,9.9135,,,,,,0,26,26,14,1,,,,,,,,,,,,,,,,,,,,ピク　パツ　ホレト　ピポ,パツ　ピク　ホレト　ピポ,1
,,,,,,,,,R_UryUcXR5uIhqtCp,2022-07-15_10h40.27.289,jpn_C02,2022.1.2,MacIntel,59.95203837,,,,,,,,,,,,,CartoonStims/boxer_punch_artist_r.jpg,,,,,,,,,,,,,,,,,,,,,,,,,,,,,,,プミ　ドキ　シド,right,10.3249,,,,,,0,27,27,35,1,,,,,,,,,,,,,,,,,,,,プミ　ドキ　シド,プミ　ドキ　シド,0
,,,,,,,,,R_UryUcXR5uIhqtCp,2022-07-15_10h40.27.289,jpn_C02,2022.1.2,MacIntel,59.95203837,,,,,,,,,,,,,CartoonStims/doctor_punch_boxer_r.jpg,,,,,,,,,,,,,,,,,,,,,,,,,,,,,,,プミ　ピポ　ドキ,right,5.7962,,,,,,0,28,28,34,1,,,,,,,,,,,,,,,,,,,,プミ　ピポ　ドキ,プミ　ピポ　ドキ,0
,,,,,,,,,R_UryUcXR5uIhqtCp,2022-07-15_10h40.27.289,jpn_C02,2022.1.2,MacIntel,59.95203837,,,,,,,,,,,,,CartoonStims/artist_punch_cowboy_r_no.jpg,,,,,,,,,,,,,,,,,,,,,,,,,,,,,,,ピク　プミ　ピポ　ムク,right,13.7407,,,,,,0,29,29,18,1,,,,,,,,,,,,,,,,,,,,ピク　プミ　シド　ムク,プミ　ピク　シド　ムク,1
,,,,,,,,,R_UryUcXR5uIhqtCp,2022-07-15_10h40.27.289,jpn_C02,2022.1.2,MacIntel,59.95203837,,,,,,,,,,,,,CartoonStims/cowboy_kick_chef_r_no.jpg,,,,,,,,,,,,,,,,,,,,,,,,,,,,,,,ピク　セル　ムク　ホレト,right,15.4458,,,,,,0,30,30,3,1,,,,,,,,,,,,,,,,,,,,ピク　セル　ムク　ホレト,セル　ピク　ムク　ホレト,1
,,,,,,,,,R_UryUcXR5uIhqtCp,2022-07-15_10h40.27.289,jpn_C02,2022.1.2,MacIntel,59.95203837,,,,,,,,,,,,,CartoonStims/doctor_point_boxer_r_no.jpg,,,,,,,,,,,,,,,,,,,,,,,,,,,,,,,ピク　トマ　ピポ　ドキ,right,6.8746,,,,,,0,31,31,10,1,,,,,,,,,,,,,,,,,,,,ピク　トマ　ピポ　ドキ,トマ　ピク　ピポ　ドキ,1
,,,,,,,,,R_UryUcXR5uIhqtCp,2022-07-15_10h40.27.289,jpn_C02,2022.1.2,MacIntel,59.95203837,,,,,,,,,,,,,CartoonStims/boxer_point_artist_r_no.jpg,,,,,,,,,,,,,,,,,,,,,,,,,,,,,,,ピク　トマ　ドキ　シド,right,9.5052,,,,,,0,32,32,11,1,,,,,,,,,,,,,,,,,,,,ピク　トマ　ドキ　シド,トマ　ピク　ドキ　シド,1
,,,,,,,,,R_UryUcXR5uIhqtCp,2022-07-15_10h40.27.289,jpn_C02,2022.1.2,MacIntel,59.95203837,,,,,,,,,,,,,CartoonStims/boxer_kick_cowboy_r.jpg,,,,,,,,,,,,,,,,,,,,,,,,,,,,,,,セル　ドキ　ムク,right,6.3299,,,,,,0,33,33,26,1,,,,,,,,,,,,,,,,,,,,セル　ドキ　ムク,セル　ドキ　ムク,0
,,,,,,,,,R_UryUcXR5uIhqtCp,2022-07-15_10h40.27.289,jpn_C02,2022.1.2,MacIntel,59.95203837,,,,,,,,,,,,,CartoonStims/artist_point_burglar_r_no.jpg,,,,,,,,,,,,,,,,,,,,,,,,,,,,,,,ピク　トマ　シド　ルピン,right,9.183,,,,,,0,34,34,6,1,,,,,,,,,,,,,,,,,,,,ピク　トマ　シド　ルピン,トマ　ピク　シド　ルピン,1
,,,,,,,,,R_UryUcXR5uIhqtCp,2022-07-15_10h40.27.289,jpn_C02,2022.1.2,MacIntel,59.95203837,,,,,,,,,,,,,CartoonStims/chef_kick_burglar_r_no.jpg,,,,,,,,,,,,,,,,,,,,,,,,,,,,,,,ピク　セル　ホレト　ルピン,right,9.4887,,,,,,0,35,35,2,1,,,,,,,,,,,,,,,,,,,,ピク　セル　ホレト　ルピン,セル　ピク　ホレト　ルピン,1
,,,,,,,,,R_UryUcXR5uIhqtCp,2022-07-15_10h40.27.289,jpn_C02,2022.1.2,MacIntel,59.95203837,,,,,,,,,,,,,,,,,,,,,,,,,,,,,,,,,,,,,,,,,,,,,,,,,,,,,,,,,,,space,11.362,0,2,2,2,1,NegVCondition.xlsx,"ここではこの言語における否定の文を学習していただきます。引き続き注意して、 聞こえた音を復唱してください。

スペースキーを押してください。",1,NegVFCT.xlsx,ここからクイズが始まります。 スクリーンに表示されるテキストに合うイメージを選んでください。,NegTest.xlsx,1,最後にここまで学んだことをアウトプットしていただきます。 テキストボックスにあるイメージを描写するテキストを入力してください。 このタスクでは、 答え合わせは行いません。,0,これですべての実験が終わりました。 お疲れさまです。 この後はアンケートに答えていただきます。,,,