key_resp_instr_a.keys,key_resp_instr_a.rt,key_resp_instr_b.keys,key_resp_instr_b.rt,dummy.thisRepN,dummy.thisTrialN,dummy.thisN,dummy.thisIndex,dummy.ran,participant,date,expName,psychopyVersion,OS,frameRate,key_resp_instr1.keys,key_resp_instr1.rt,key_resp.keys,key_resp.rt,exp_loop.thisRepN,exp_loop.thisTrialN,exp_loop.thisN,exp_loop.thisIndex,exp_loop.ran,Word,English,Flip,Path,Audio,key_resp_instr2.keys,key_resp_instr2.rt,key_resp_fct.keys,key_resp_fct.corr,key_resp_fct.rt,trials_2.thisRepN,trials_2.thisTrialN,trials_2.thisN,trials_2.thisIndex,trials_2.ran,fct_loop.thisRepN,fct_loop.thisTrialN,fct_loop.thisN,fct_loop.thisIndex,fct_loop.ran,left_img,word,right_img,correctans,correct_img,audio,incorrect_feedback,trials.thisRepN,trials.thisTrialN,trials.thisN,trials.thisIndex,trials.ran,key_resp_instr3.keys,key_resp_instr3.rt,textbox.text,key_resp_2.keys,key_resp_2.rt,fb_yn.thisRepN,fb_yn.thisTrialN,fb_yn.thisN,fb_yn.thisIndex,fb_yn.ran,gather_loop.thisRepN,gather_loop.thisTrialN,gather_loop.thisN,gather_loop.thisIndex,gather_loop.ran,Text,Wordbank,key_resp_instr4.keys,key_resp_instr4.rt,master_loop.thisRepN,master_loop.thisTrialN,master_loop.thisN,master_loop.thisIndex,master_loop.ran,exposure_file,instr_1,exp_reps,fct_file,instr_2,gather_file,gather_reps,instr_3,fReps,instr_4,trials_4.thisRepN,trials_4.thisTrialN,trials_4.thisN,trials_4.thisIndex,trials_4.ran,NegVSentence,VNegSentence,NegTF
space,11.32,space,20.1392,0,0,0,0,1,R_3CUu4ShV1RZM5Kj,2022-06-27_23h12.53.694,jpn_C01,2022.1.2,Win32,59.88382538,,,,,,,,,,,,,,,,,,,,,,,,,,,,,,,,,,,,,,,,,,,,,,,,,,,,,,,,,,,,,,,,,,,,,,,,,,,,,,,,,,,
,,,,,,,,,R_3CUu4ShV1RZM5Kj,2022-06-27_23h12.53.694,jpn_C01,2022.1.2,Win32,59.88382538,space,15.8402,space,7.6267,0,0,0,2,1,ホレト,chef,,CartoonStims/chef_r.jpg,audio/horeto.mp3,,,,,,,,,,,,,,,,,,,,,,,,,,,,,,,,,,,,,,,,,,,,,,,,,,,,,,,,,,,,,,,,,,,,,
,,,,,,,,,R_3CUu4ShV1RZM5Kj,2022-06-27_23h12.53.694,jpn_C01,2022.1.2,Win32,59.88382538,,,space,11.2096,0,1,1,0,1,シド,artist,,CartoonStims/artist_r.jpg,audio/sido.mp3,,,,,,,,,,,,,,,,,,,,,,,,,,,,,,,,,,,,,,,,,,,,,,,,,,,,,,,,,,,,,,,,,,,,,
,,,,,,,,,R_3CUu4ShV1RZM5Kj,2022-06-27_23h12.53.694,jpn_C01,2022.1.2,Win32,59.88382538,,,space,5.2308,0,2,2,3,1,ムク,cowboy,,CartoonStims/cowboy_r.jpg,audio/muku.mp3,,,,,,,,,,,,,,,,,,,,,,,,,,,,,,,,,,,,,,,,,,,,,,,,,,,,,,,,,,,,,,,,,,,,,
,,,,,,,,,R_3CUu4ShV1RZM5Kj,2022-06-27_23h12.53.694,jpn_C01,2022.1.2,Win32,59.88382538,,,space,14.8229,0,3,3,5,1,ドキ,boxer,,CartoonStims/boxer_r.jpg,audio/doki.mp3,,,,,,,,,,,,,,,,,,,,,,,,,,,,,,,,,,,,,,,,,,,,,,,,,,,,,,,,,,,,,,,,,,,,,
,,,,,,,,,R_3CUu4ShV1RZM5Kj,2022-06-27_23h12.53.694,jpn_C01,2022.1.2,Win32,59.88382538,,,space,7.8593,0,4,4,1,1,ルピン,burglar,,CartoonStims/burglar_r.jpg,audio/lupin.mp3,,,,,,,,,,,,,,,,,,,,,,,,,,,,,,,,,,,,,,,,,,,,,,,,,,,,,,,,,,,,,,,,,,,,,
,,,,,,,,,R_3CUu4ShV1RZM5Kj,2022-06-27_23h12.53.694,jpn_C01,2022.1.2,Win32,59.88382538,,,space,5.097,0,5,5,4,1,ピポ,doctor,,CartoonStims/doctor_r.jpg,audio/pipo.mp3,,,,,,,,,,,,,,,,,,,,,,,,,,,,,,,,,,,,,,,,,,,,,,,,,,,,,,,,,,,,,,,,,,,,,
,,,,,,,,,R_3CUu4ShV1RZM5Kj,2022-06-27_23h12.53.694,jpn_C01,2022.1.2,Win32,59.88382538,,,space,2.6654,1,0,6,5,1,ドキ,boxer,,CartoonStims/boxer_r.jpg,audio/doki.mp3,,,,,,,,,,,,,,,,,,,,,,,,,,,,,,,,,,,,,,,,,,,,,,,,,,,,,,,,,,,,,,,,,,,,,
,,,,,,,,,R_3CUu4ShV1RZM5Kj,2022-06-27_23h12.53.694,jpn_C01,2022.1.2,Win32,59.88382538,,,space,2.6984,1,1,7,0,1,シド,artist,,CartoonStims/artist_r.jpg,audio/sido.mp3,,,,,,,,,,,,,,,,,,,,,,,,,,,,,,,,,,,,,,,,,,,,,,,,,,,,,,,,,,,,,,,,,,,,,
,,,,,,,,,R_3CUu4ShV1RZM5Kj,2022-06-27_23h12.53.694,jpn_C01,2022.1.2,Win32,59.88382538,,,space,2.2508,1,2,8,4,1,ピポ,doctor,,CartoonStims/doctor_r.jpg,audio/pipo.mp3,,,,,,,,,,,,,,,,,,,,,,,,,,,,,,,,,,,,,,,,,,,,,,,,,,,,,,,,,,,,,,,,,,,,,
,,,,,,,,,R_3CUu4ShV1RZM5Kj,2022-06-27_23h12.53.694,jpn_C01,2022.1.2,Win32,59.88382538,,,space,2.65,1,3,9,1,1,ルピン,burglar,,CartoonStims/burglar_r.jpg,audio/lupin.mp3,,,,,,,,,,,,,,,,,,,,,,,,,,,,,,,,,,,,,,,,,,,,,,,,,,,,,,,,,,,,,,,,,,,,,
,,,,,,,,,R_3CUu4ShV1RZM5Kj,2022-06-27_23h12.53.694,jpn_C01,2022.1.2,Win32,59.88382538,,,space,1.9191,1,4,10,3,1,ムク,cowboy,,CartoonStims/cowboy_r.jpg,audio/muku.mp3,,,,,,,,,,,,,,,,,,,,,,,,,,,,,,,,,,,,,,,,,,,,,,,,,,,,,,,,,,,,,,,,,,,,,
,,,,,,,,,R_3CUu4ShV1RZM5Kj,2022-06-27_23h12.53.694,jpn_C01,2022.1.2,Win32,59.88382538,,,space,1.7834,1,5,11,2,1,ホレト,chef,,CartoonStims/chef_r.jpg,audio/horeto.mp3,,,,,,,,,,,,,,,,,,,,,,,,,,,,,,,,,,,,,,,,,,,,,,,,,,,,,,,,,,,,,,,,,,,,,
,,,,,,,,,R_3CUu4ShV1RZM5Kj,2022-06-27_23h12.53.694,jpn_C01,2022.1.2,Win32,59.88382538,,,space,2.1518,2,0,12,5,1,ドキ,boxer,,CartoonStims/boxer_r.jpg,audio/doki.mp3,,,,,,,,,,,,,,,,,,,,,,,,,,,,,,,,,,,,,,,,,,,,,,,,,,,,,,,,,,,,,,,,,,,,,
,,,,,,,,,R_3CUu4ShV1RZM5Kj,2022-06-27_23h12.53.694,jpn_C01,2022.1.2,Win32,59.88382538,,,space,1.9173,2,1,13,4,1,ピポ,doctor,,CartoonStims/doctor_r.jpg,audio/pipo.mp3,,,,,,,,,,,,,,,,,,,,,,,,,,,,,,,,,,,,,,,,,,,,,,,,,,,,,,,,,,,,,,,,,,,,,
,,,,,,,,,R_3CUu4ShV1RZM5Kj,2022-06-27_23h12.53.694,jpn_C01,2022.1.2,Win32,59.88382538,,,space,2.1013,2,2,14,2,1,ホレト,chef,,CartoonStims/chef_r.jpg,audio/horeto.mp3,,,,,,,,,,,,,,,,,,,,,,,,,,,,,,,,,,,,,,,,,,,,,,,,,,,,,,,,,,,,,,,,,,,,,
,,,,,,,,,R_3CUu4ShV1RZM5Kj,2022-06-27_23h12.53.694,jpn_C01,2022.1.2,Win32,59.88382538,,,space,2.3158,2,3,15,3,1,ムク,cowboy,,CartoonStims/cowboy_r.jpg,audio/muku.mp3,,,,,,,,,,,,,,,,,,,,,,,,,,,,,,,,,,,,,,,,,,,,,,,,,,,,,,,,,,,,,,,,,,,,,
,,,,,,,,,R_3CUu4ShV1RZM5Kj,2022-06-27_23h12.53.694,jpn_C01,2022.1.2,Win32,59.88382538,,,space,1.7353,2,4,16,0,1,シド,artist,,CartoonStims/artist_r.jpg,audio/sido.mp3,,,,,,,,,,,,,,,,,,,,,,,,,,,,,,,,,,,,,,,,,,,,,,,,,,,,,,,,,,,,,,,,,,,,,
,,,,,,,,,R_3CUu4ShV1RZM5Kj,2022-06-27_23h12.53.694,jpn_C01,2022.1.2,Win32,59.88382538,,,space,1.5167,2,5,17,1,1,ルピン,burglar,,CartoonStims/burglar_r.jpg,audio/lupin.mp3,,,,,,,,,,,,,,,,,,,,,,,,,,,,,,,,,,,,,,,,,,,,,,,,,,,,,,,,,,,,,,,,,,,,,
,,,,,,,,,R_3CUu4ShV1RZM5Kj,2022-06-27_23h12.53.694,jpn_C01,2022.1.2,Win32,59.88382538,,,,,,,,,,,,,,,space,5.7342,right,1,1.0349,0,0,0,0,1,,,,,,,,,,,,,,,,,,,,,,,,,,,,,,,,,,,,,,,,,,,,,,,,,,,,,,,,,,,
,,,,,,,,,R_3CUu4ShV1RZM5Kj,2022-06-27_23h12.53.694,jpn_C01,2022.1.2,Win32,59.88382538,,,,,,,,,,,,,,,,,,,,,,,,,0,0,0,10,1,CartoonStims/artist_r.jpg,ピポ,CartoonStims/doctor_r.jpg,right,CartoonStims/doctor_r.jpg,audio/pipo.mp3,残念！ こちらが正しい画像です。,,,,,,,,,,,,,,,,,,,,,,,,,,,,,,,,,,,,,,,,,,,,,,,
,,,,,,,,,R_3CUu4ShV1RZM5Kj,2022-06-27_23h12.53.694,jpn_C01,2022.1.2,Win32,59.88382538,,,,,,,,,,,,,,,,,left,1,0.6055,,,,,,,,,,,,,,,,,,0,0,0,0,1,,,,,,,,,,,,,,,,,,,,,,,,,,,,,,,,,,,,,,,,,,
,,,,,,,,,R_3CUu4ShV1RZM5Kj,2022-06-27_23h12.53.694,jpn_C01,2022.1.2,Win32,59.88382538,,,,,,,,,,,,,,,,,,,,,,,,,0,1,1,1,1,CartoonStims/burglar_r.jpg,ルピン,CartoonStims/chef_r.jpg,left,CartoonStims/burglar_r.jpg,audio/lupin.mp3,残念！ こちらが正しい画像です。,,,,,,,,,,,,,,,,,,,,,,,,,,,,,,,,,,,,,,,,,,,,,,,
,,,,,,,,,R_3CUu4ShV1RZM5Kj,2022-06-27_23h12.53.694,jpn_C01,2022.1.2,Win32,59.88382538,,,,,,,,,,,,,,,,,right,1,0.6707,0,0,0,0,1,,,,,,,,,,,,,,,,,,,,,,,,,,,,,,,,,,,,,,,,,,,,,,,,,,,,,,,,,,,
,,,,,,,,,R_3CUu4ShV1RZM5Kj,2022-06-27_23h12.53.694,jpn_C01,2022.1.2,Win32,59.88382538,,,,,,,,,,,,,,,,,,,,,,,,,0,2,2,9,1,CartoonStims/boxer_r.jpg,ムク,CartoonStims/cowboy_r.jpg,right,CartoonStims/cowboy_r.jpg,audio/muku.mp3,残念！ こちらが正しい画像です。,,,,,,,,,,,,,,,,,,,,,,,,,,,,,,,,,,,,,,,,,,,,,,,
,,,,,,,,,R_3CUu4ShV1RZM5Kj,2022-06-27_23h12.53.694,jpn_C01,2022.1.2,Win32,59.88382538,,,,,,,,,,,,,,,,,right,1,0.6532,0,0,0,0,1,,,,,,,,,,,,,,,,,,,,,,,,,,,,,,,,,,,,,,,,,,,,,,,,,,,,,,,,,,,
,,,,,,,,,R_3CUu4ShV1RZM5Kj,2022-06-27_23h12.53.694,jpn_C01,2022.1.2,Win32,59.88382538,,,,,,,,,,,,,,,,,,,,,,,,,0,3,3,6,1,CartoonStims/chef_r.jpg,シド,CartoonStims/artist_r.jpg,right,CartoonStims/artist_r.jpg,audio/sido.mp3,残念！ こちらが正しい画像です。,,,,,,,,,,,,,,,,,,,,,,,,,,,,,,,,,,,,,,,,,,,,,,,
,,,,,,,,,R_3CUu4ShV1RZM5Kj,2022-06-27_23h12.53.694,jpn_C01,2022.1.2,Win32,59.88382538,,,,,,,,,,,,,,,,,right,1,0.7673,0,0,0,0,1,,,,,,,,,,,,,,,,,,,,,,,,,,,,,,,,,,,,,,,,,,,,,,,,,,,,,,,,,,,
,,,,,,,,,R_3CUu4ShV1RZM5Kj,2022-06-27_23h12.53.694,jpn_C01,2022.1.2,Win32,59.88382538,,,,,,,,,,,,,,,,,,,,,,,,,0,4,4,8,1,CartoonStims/doctor_r.jpg,ホレト,CartoonStims/chef_r.jpg,right,CartoonStims/chef_r.jpg,audio/horeto.mp3,残念！ こちらが正しい画像です。,,,,,,,,,,,,,,,,,,,,,,,,,,,,,,,,,,,,,,,,,,,,,,,
,,,,,,,,,R_3CUu4ShV1RZM5Kj,2022-06-27_23h12.53.694,jpn_C01,2022.1.2,Win32,59.88382538,,,,,,,,,,,,,,,,,left,1,0.4853,,,,,,,,,,,,,,,,,,0,0,0,0,1,,,,,,,,,,,,,,,,,,,,,,,,,,,,,,,,,,,,,,,,,,
,,,,,,,,,R_3CUu4ShV1RZM5Kj,2022-06-27_23h12.53.694,jpn_C01,2022.1.2,Win32,59.88382538,,,,,,,,,,,,,,,,,,,,,,,,,0,5,5,5,1,CartoonStims/boxer_r.jpg,ドキ,CartoonStims/artist_r.jpg,left,CartoonStims/boxer_r.jpg,audio/doki.mp3,残念！ こちらが正しい画像です。,,,,,,,,,,,,,,,,,,,,,,,,,,,,,,,,,,,,,,,,,,,,,,,
,,,,,,,,,R_3CUu4ShV1RZM5Kj,2022-06-27_23h12.53.694,jpn_C01,2022.1.2,Win32,59.88382538,,,,,,,,,,,,,,,,,left,1,0.9009,,,,,,,,,,,,,,,,,,0,0,0,0,1,,,,,,,,,,,,,,,,,,,,,,,,,,,,,,,,,,,,,,,,,,
,,,,,,,,,R_3CUu4ShV1RZM5Kj,2022-06-27_23h12.53.694,jpn_C01,2022.1.2,Win32,59.88382538,,,,,,,,,,,,,,,,,,,,,,,,,0,6,6,0,1,CartoonStims/artist_r.jpg,シド,CartoonStims/burglar_r.jpg,left,CartoonStims/artist_r.jpg,audio/sido.mp3,残念！ こちらが正しい画像です。,,,,,,,,,,,,,,,,,,,,,,,,,,,,,,,,,,,,,,,,,,,,,,,
,,,,,,,,,R_3CUu4ShV1RZM5Kj,2022-06-27_23h12.53.694,jpn_C01,2022.1.2,Win32,59.88382538,,,,,,,,,,,,,,,,,left,1,0.6848,,,,,,,,,,,,,,,,,,0,0,0,0,1,,,,,,,,,,,,,,,,,,,,,,,,,,,,,,,,,,,,,,,,,,
,,,,,,,,,R_3CUu4ShV1RZM5Kj,2022-06-27_23h12.53.694,jpn_C01,2022.1.2,Win32,59.88382538,,,,,,,,,,,,,,,,,,,,,,,,,0,7,7,2,1,CartoonStims/chef_r.jpg,ホレト,CartoonStims/cowboy_r.jpg,left,CartoonStims/chef_r.jpg,audio/horeto.mp3,残念！ こちらが正しい画像です。,,,,,,,,,,,,,,,,,,,,,,,,,,,,,,,,,,,,,,,,,,,,,,,
,,,,,,,,,R_3CUu4ShV1RZM5Kj,2022-06-27_23h12.53.694,jpn_C01,2022.1.2,Win32,59.88382538,,,,,,,,,,,,,,,,,left,1,0.8668,,,,,,,,,,,,,,,,,,0,0,0,0,1,,,,,,,,,,,,,,,,,,,,,,,,,,,,,,,,,,,,,,,,,,
,,,,,,,,,R_3CUu4ShV1RZM5Kj,2022-06-27_23h12.53.694,jpn_C01,2022.1.2,Win32,59.88382538,,,,,,,,,,,,,,,,,,,,,,,,,0,8,8,4,1,CartoonStims/doctor_r.jpg,ピポ,CartoonStims/boxer_r.jpg,left,CartoonStims/doctor_r.jpg,audio/pipo.mp3,残念！ こちらが正しい画像です。,,,,,,,,,,,,,,,,,,,,,,,,,,,,,,,,,,,,,,,,,,,,,,,
,,,,,,,,,R_3CUu4ShV1RZM5Kj,2022-06-27_23h12.53.694,jpn_C01,2022.1.2,Win32,59.88382538,,,,,,,,,,,,,,,,,right,1,0.5006,0,0,0,0,1,,,,,,,,,,,,,,,,,,,,,,,,,,,,,,,,,,,,,,,,,,,,,,,,,,,,,,,,,,,
,,,,,,,,,R_3CUu4ShV1RZM5Kj,2022-06-27_23h12.53.694,jpn_C01,2022.1.2,Win32,59.88382538,,,,,,,,,,,,,,,,,,,,,,,,,0,9,9,11,1,CartoonStims/burglar_r.jpg,ドキ,CartoonStims/boxer_r.jpg,right,CartoonStims/boxer_r.jpg,audio/doki.mp3,残念！ こちらが正しい画像です。,,,,,,,,,,,,,,,,,,,,,,,,,,,,,,,,,,,,,,,,,,,,,,,
,,,,,,,,,R_3CUu4ShV1RZM5Kj,2022-06-27_23h12.53.694,jpn_C01,2022.1.2,Win32,59.88382538,,,,,,,,,,,,,,,,,left,1,0.7879,,,,,,,,,,,,,,,,,,0,0,0,0,1,,,,,,,,,,,,,,,,,,,,,,,,,,,,,,,,,,,,,,,,,,
,,,,,,,,,R_3CUu4ShV1RZM5Kj,2022-06-27_23h12.53.694,jpn_C01,2022.1.2,Win32,59.88382538,,,,,,,,,,,,,,,,,,,,,,,,,0,10,10,3,1,CartoonStims/cowboy_r.jpg,ムク,CartoonStims/doctor_r.jpg,left,CartoonStims/cowboy_r.jpg,audio/muku.mp3,残念！ こちらが正しい画像です。,,,,,,,,,,,,,,,,,,,,,,,,,,,,,,,,,,,,,,,,,,,,,,,
,,,,,,,,,R_3CUu4ShV1RZM5Kj,2022-06-27_23h12.53.694,jpn_C01,2022.1.2,Win32,59.88382538,,,,,,,,,,,,,,,,,right,1,0.7698,0,0,0,0,1,,,,,,,,,,,,,,,,,,,,,,,,,,,,,,,,,,,,,,,,,,,,,,,,,,,,,,,,,,,
,,,,,,,,,R_3CUu4ShV1RZM5Kj,2022-06-27_23h12.53.694,jpn_C01,2022.1.2,Win32,59.88382538,,,,,,,,,,,,,,,,,,,,,,,,,0,11,11,7,1,CartoonStims/cowboy_r.jpg,ルピン,CartoonStims/burglar_r.jpg,right,CartoonStims/burglar_r.jpg,audio/lupin.mp3,残念！ こちらが正しい画像です。,,,,,,,,,,,,,,,,,,,,,,,,,,,,,,,,,,,,,,,,,,,,,,,
,,,,,,,,,R_3CUu4ShV1RZM5Kj,2022-06-27_23h12.53.694,jpn_C01,2022.1.2,Win32,59.88382538,,,,,,,,,,,,,,,,,,,,,,,,,,,,,,,,,,,,,,,,,,space,4.4489,ムク,right,14.694,0,0,0,0,1,,,,,,,,,,,,,,,,,,,,,,,,,,,,,,,,
,,,,,,,,,R_3CUu4ShV1RZM5Kj,2022-06-27_23h12.53.694,jpn_C01,2022.1.2,Win32,59.88382538,,,,,,,,,,,,,CartoonStims/cowboy_r.jpg,audio/muku.mp3,,,,,,,,,,,,,,,,,,,,,,,,,,,,,,,,,,,,,,0,0,0,3,1,ムク,,,,,,,,,,,,,,,,,,,,,,,,,,
,,,,,,,,,R_3CUu4ShV1RZM5Kj,2022-06-27_23h12.53.694,jpn_C01,2022.1.2,Win32,59.88382538,,,,,,,,,,,,,,,,,,,,,,,,,,,,,,,,,,,,,,,,,,,,ピポ,right,7.237,0,0,0,0,1,,,,,,,,,,,,,,,,,,,,,,,,,,,,,,,,
,,,,,,,,,R_3CUu4ShV1RZM5Kj,2022-06-27_23h12.53.694,jpn_C01,2022.1.2,Win32,59.88382538,,,,,,,,,,,,,CartoonStims/doctor_r.jpg,audio/pipo.mp3,,,,,,,,,,,,,,,,,,,,,,,,,,,,,,,,,,,,,,0,1,1,4,1,ピポ,,,,,,,,,,,,,,,,,,,,,,,,,,
,,,,,,,,,R_3CUu4ShV1RZM5Kj,2022-06-27_23h12.53.694,jpn_C01,2022.1.2,Win32,59.88382538,,,,,,,,,,,,,,,,,,,,,,,,,,,,,,,,,,,,,,,,,,,,ホレト,right,4.2287,0,0,0,0,1,,,,,,,,,,,,,,,,,,,,,,,,,,,,,,,,
,,,,,,,,,R_3CUu4ShV1RZM5Kj,2022-06-27_23h12.53.694,jpn_C01,2022.1.2,Win32,59.88382538,,,,,,,,,,,,,CartoonStims/chef_r.jpg,audio/horeto.mp3,,,,,,,,,,,,,,,,,,,,,,,,,,,,,,,,,,,,,,0,2,2,2,1,ホレト,,,,,,,,,,,,,,,,,,,,,,,,,,
,,,,,,,,,R_3CUu4ShV1RZM5Kj,2022-06-27_23h12.53.694,jpn_C01,2022.1.2,Win32,59.88382538,,,,,,,,,,,,,,,,,,,,,,,,,,,,,,,,,,,,,,,,,,,,ドキ,right,3.9532,0,0,0,0,1,,,,,,,,,,,,,,,,,,,,,,,,,,,,,,,,
,,,,,,,,,R_3CUu4ShV1RZM5Kj,2022-06-27_23h12.53.694,jpn_C01,2022.1.2,Win32,59.88382538,,,,,,,,,,,,,CartoonStims/boxer_r.jpg,audio/doki.mp3,,,,,,,,,,,,,,,,,,,,,,,,,,,,,,,,,,,,,,0,3,3,5,1,ドキ,,,,,,,,,,,,,,,,,,,,,,,,,,
,,,,,,,,,R_3CUu4ShV1RZM5Kj,2022-06-27_23h12.53.694,jpn_C01,2022.1.2,Win32,59.88382538,,,,,,,,,,,,,,,,,,,,,,,,,,,,,,,,,,,,,,,,,,,,ルピン,right,4.6447,0,0,0,0,1,,,,,,,,,,,,,,,,,,,,,,,,,,,,,,,,
,,,,,,,,,R_3CUu4ShV1RZM5Kj,2022-06-27_23h12.53.694,jpn_C01,2022.1.2,Win32,59.88382538,,,,,,,,,,,,,CartoonStims/burglar_r.jpg,audio/lupin.mp3,,,,,,,,,,,,,,,,,,,,,,,,,,,,,,,,,,,,,,0,4,4,1,1,ルピン,,,,,,,,,,,,,,,,,,,,,,,,,,
,,,,,,,,,R_3CUu4ShV1RZM5Kj,2022-06-27_23h12.53.694,jpn_C01,2022.1.2,Win32,59.88382538,,,,,,,,,,,,,,,,,,,,,,,,,,,,,,,,,,,,,,,,,,,,シド,right,4.8481,0,0,0,0,1,,,,,,,,,,,,,,,,,,,,,,,,,,,,,,,,
,,,,,,,,,R_3CUu4ShV1RZM5Kj,2022-06-27_23h12.53.694,jpn_C01,2022.1.2,Win32,59.88382538,,,,,,,,,,,,,CartoonStims/artist_r.jpg,audio/sido.mp3,,,,,,,,,,,,,,,,,,,,,,,,,,,,,,,,,,,,,,0,5,5,0,1,シド,,,,,,,,,,,,,,,,,,,,,,,,,,
,,,,,,,,,R_3CUu4ShV1RZM5Kj,2022-06-27_23h12.53.694,jpn_C01,2022.1.2,Win32,59.88382538,,,,,,,,,,,,,,,,,,,,,,,,,,,,,,,,,,,,,,,,,,,,ムク,right,4.3306,0,0,0,0,1,,,,,,,,,,,,,,,,,,,,,,,,,,,,,,,,
,,,,,,,,,R_3CUu4ShV1RZM5Kj,2022-06-27_23h12.53.694,jpn_C01,2022.1.2,Win32,59.88382538,,,,,,,,,,,,,CartoonStims/cowboy_r.jpg,audio/muku.mp3,,,,,,,,,,,,,,,,,,,,,,,,,,,,,,,,,,,,,,1,0,6,3,1,ムク,,,,,,,,,,,,,,,,,,,,,,,,,,
,,,,,,,,,R_3CUu4ShV1RZM5Kj,2022-06-27_23h12.53.694,jpn_C01,2022.1.2,Win32,59.88382538,,,,,,,,,,,,,,,,,,,,,,,,,,,,,,,,,,,,,,,,,,,,ドキ,right,3.4709,0,0,0,0,1,,,,,,,,,,,,,,,,,,,,,,,,,,,,,,,,
,,,,,,,,,R_3CUu4ShV1RZM5Kj,2022-06-27_23h12.53.694,jpn_C01,2022.1.2,Win32,59.88382538,,,,,,,,,,,,,CartoonStims/boxer_r.jpg,audio/doki.mp3,,,,,,,,,,,,,,,,,,,,,,,,,,,,,,,,,,,,,,1,1,7,5,1,ドキ,,,,,,,,,,,,,,,,,,,,,,,,,,
,,,,,,,,,R_3CUu4ShV1RZM5Kj,2022-06-27_23h12.53.694,jpn_C01,2022.1.2,Win32,59.88382538,,,,,,,,,,,,,,,,,,,,,,,,,,,,,,,,,,,,,,,,,,,,ピポ,right,4.0614,0,0,0,0,1,,,,,,,,,,,,,,,,,,,,,,,,,,,,,,,,
,,,,,,,,,R_3CUu4ShV1RZM5Kj,2022-06-27_23h12.53.694,jpn_C01,2022.1.2,Win32,59.88382538,,,,,,,,,,,,,CartoonStims/doctor_r.jpg,audio/pipo.mp3,,,,,,,,,,,,,,,,,,,,,,,,,,,,,,,,,,,,,,1,2,8,4,1,ピポ,,,,,,,,,,,,,,,,,,,,,,,,,,
,,,,,,,,,R_3CUu4ShV1RZM5Kj,2022-06-27_23h12.53.694,jpn_C01,2022.1.2,Win32,59.88382538,,,,,,,,,,,,,,,,,,,,,,,,,,,,,,,,,,,,,,,,,,,,ホレト,right,5.3443,0,0,0,0,1,,,,,,,,,,,,,,,,,,,,,,,,,,,,,,,,
,,,,,,,,,R_3CUu4ShV1RZM5Kj,2022-06-27_23h12.53.694,jpn_C01,2022.1.2,Win32,59.88382538,,,,,,,,,,,,,CartoonStims/chef_r.jpg,audio/horeto.mp3,,,,,,,,,,,,,,,,,,,,,,,,,,,,,,,,,,,,,,1,3,9,2,1,ホレト,,,,,,,,,,,,,,,,,,,,,,,,,,
,,,,,,,,,R_3CUu4ShV1RZM5Kj,2022-06-27_23h12.53.694,jpn_C01,2022.1.2,Win32,59.88382538,,,,,,,,,,,,,,,,,,,,,,,,,,,,,,,,,,,,,,,,,,,,シド,right,5.0529,0,0,0,0,1,,,,,,,,,,,,,,,,,,,,,,,,,,,,,,,,
,,,,,,,,,R_3CUu4ShV1RZM5Kj,2022-06-27_23h12.53.694,jpn_C01,2022.1.2,Win32,59.88382538,,,,,,,,,,,,,CartoonStims/artist_r.jpg,audio/sido.mp3,,,,,,,,,,,,,,,,,,,,,,,,,,,,,,,,,,,,,,1,4,10,0,1,シド,,,,,,,,,,,,,,,,,,,,,,,,,,
,,,,,,,,,R_3CUu4ShV1RZM5Kj,2022-06-27_23h12.53.694,jpn_C01,2022.1.2,Win32,59.88382538,,,,,,,,,,,,,,,,,,,,,,,,,,,,,,,,,,,,,,,,,,,,ルピン,right,4.3116,0,0,0,0,1,,,,,,,,,,,,,,,,,,,,,,,,,,,,,,,,
,,,,,,,,,R_3CUu4ShV1RZM5Kj,2022-06-27_23h12.53.694,jpn_C01,2022.1.2,Win32,59.88382538,,,,,,,,,,,,,CartoonStims/burglar_r.jpg,audio/lupin.mp3,,,,,,,,,,,,,,,,,,,,,,,,,,,,,,,,,,,,,,1,5,11,1,1,ルピン,,,,,,,,,,,,,,,,,,,,,,,,,,
,,,,,,,,,R_3CUu4ShV1RZM5Kj,2022-06-27_23h12.53.694,jpn_C01,2022.1.2,Win32,59.88382538,,,,,,,,,,,,,,,,,,,,,,,,,,,,,,,,,,,,,,,,,,,,,,,,,,,,,,,,,,,space,8.016,0,0,0,0,1,NounExposure.xlsx,"最初のトライアルでは、 画像が表示され、 その画像の下に単語が出てきます。 またこの単語の音も聞くことができます。 この音を大きな声で復唱してください。 そしてこの画像がどのような単語を示しているのか, 考えてみてください。 その後、 続きのボタンを押すと次の単語の学習が始まります。

スペースキーを押して、学習を始めましょう。",3,NounFCT.xlsx,ここから語彙のクイズが始まります。スクリーンに表示される単語に合う画像をキーボードの右と左の矢印キーを使って選択してください。,NounTest.xlsx,2,次に、これまで学習してきたことをアウトプットしていただきます。 表示される画像を描写していると思う単語を、テキストボックスにタイプしてください。,1,"ここまでが最初のトライアルです。ここで休憩をとっても構いません。

休憩が済みましたら、スペースキーを押して続きを始めましょう。",,,,,,,,
,,,,,,,,,R_3CUu4ShV1RZM5Kj,2022-06-27_23h12.53.694,jpn_C01,2022.1.2,Win32,59.88382538,space,6.9829,space,14.988,0,0,0,37,1,プミ　シド　ドキ,,,CartoonStims/artist_punch_boxer_r.jpg,audio/pumisidodoki.mp3,,,,,,,,,,,,,,,,,,,,,,,,,,,,,,,,,,,,,,,,,,,,,,,,,,,,,,,,,,,,,,,,,,,,,
,,,,,,,,,R_3CUu4ShV1RZM5Kj,2022-06-27_23h12.53.694,jpn_C01,2022.1.2,Win32,59.88382538,,,space,18.8388,0,1,1,23,1,トマ　ドキ　ホレト,,,CartoonStims/boxer_point_chef_r.jpg,audio/tomadokihoreto.mp3,,,,,,,,,,,,,,,,,,,,,,,,,,,,,,,,,,,,,,,,,,,,,,,,,,,,,,,,,,,,,,,,,,,,,
,,,,,,,,,R_3CUu4ShV1RZM5Kj,2022-06-27_23h12.53.694,jpn_C01,2022.1.2,Win32,59.88382538,,,space,19.2249,0,2,2,26,1,パツ　ルピン　ピポ,,,CartoonStims/burglar_shoot_doctor_r.jpg,audio/patsulupinpipo.mp3,,,,,,,,,,,,,,,,,,,,,,,,,,,,,,,,,,,,,,,,,,,,,,,,,,,,,,,,,,,,,,,,,,,,,
,,,,,,,,,R_3CUu4ShV1RZM5Kj,2022-06-27_23h12.53.694,jpn_C01,2022.1.2,Win32,59.88382538,,,space,44.362,0,3,3,22,1,トマ　ドキ　ルピン,,,CartoonStims/boxer_point_burglar_r.jpg,audio/tomadokilupin.mp3,,,,,,,,,,,,,,,,,,,,,,,,,,,,,,,,,,,,,,,,,,,,,,,,,,,,,,,,,,,,,,,,,,,,,
,,,,,,,,,R_3CUu4ShV1RZM5Kj,2022-06-27_23h12.53.694,jpn_C01,2022.1.2,Win32,59.88382538,,,space,6.8011,0,4,4,25,1,パツ　シド　ピポ,,,CartoonStims/artist_shoot_doctor_r.jpg,audio/patsusidopipo.mp3,,,,,,,,,,,,,,,,,,,,,,,,,,,,,,,,,,,,,,,,,,,,,,,,,,,,,,,,,,,,,,,,,,,,,
,,,,,,,,,R_3CUu4ShV1RZM5Kj,2022-06-27_23h12.53.694,jpn_C01,2022.1.2,Win32,59.88382538,,,space,3.7704,0,5,5,32,1,パツ　ピポ　ルピン,,,CartoonStims/doctor_shoot_burglar_r.jpg,audio/patsupipolupin.mp3,,,,,,,,,,,,,,,,,,,,,,,,,,,,,,,,,,,,,,,,,,,,,,,,,,,,,,,,,,,,,,,,,,,,,
,,,,,,,,,R_3CUu4ShV1RZM5Kj,2022-06-27_23h12.53.694,jpn_C01,2022.1.2,Win32,59.88382538,,,space,8.4015,0,6,6,44,1,プミ　ピポ　ホレト,,,CartoonStims/doctor_punch_chef_r.jpg,audio/pumipipohoreto.mp3,,,,,,,,,,,,,,,,,,,,,,,,,,,,,,,,,,,,,,,,,,,,,,,,,,,,,,,,,,,,,,,,,,,,,
,,,,,,,,,R_3CUu4ShV1RZM5Kj,2022-06-27_23h12.53.694,jpn_C01,2022.1.2,Win32,59.88382538,,,space,5.813,0,7,7,11,1,セル　ドキ　ルピン,,,CartoonStims/boxer_kick_burglar_r.jpg,audio/serudokilupin.mp3,,,,,,,,,,,,,,,,,,,,,,,,,,,,,,,,,,,,,,,,,,,,,,,,,,,,,,,,,,,,,,,,,,,,,
,,,,,,,,,R_3CUu4ShV1RZM5Kj,2022-06-27_23h12.53.694,jpn_C01,2022.1.2,Win32,59.88382538,,,space,3.8818,0,8,8,46,1,プミ　ドキ　ムク,,,CartoonStims/boxer_punch_cowboy_r.jpg,audio/pumidokimuku.mp3,,,,,,,,,,,,,,,,,,,,,,,,,,,,,,,,,,,,,,,,,,,,,,,,,,,,,,,,,,,,,,,,,,,,,
,,,,,,,,,R_3CUu4ShV1RZM5Kj,2022-06-27_23h12.53.694,jpn_C01,2022.1.2,Win32,59.88382538,,,space,3.6646,0,9,9,9,1,セル　ピポ　シド,,,CartoonStims/doctor_kick_artist_r.jpg,audio/serupiposido.mp3,,,,,,,,,,,,,,,,,,,,,,,,,,,,,,,,,,,,,,,,,,,,,,,,,,,,,,,,,,,,,,,,,,,,,
,,,,,,,,,R_3CUu4ShV1RZM5Kj,2022-06-27_23h12.53.694,jpn_C01,2022.1.2,Win32,59.88382538,,,space,5.2691,0,10,10,43,1,プミ　ムク　ホレト,,,CartoonStims/cowboy_punch_chef_r.jpg,audio/pumimukuhoreto.mp3,,,,,,,,,,,,,,,,,,,,,,,,,,,,,,,,,,,,,,,,,,,,,,,,,,,,,,,,,,,,,,,,,,,,,
,,,,,,,,,R_3CUu4ShV1RZM5Kj,2022-06-27_23h12.53.694,jpn_C01,2022.1.2,Win32,59.88382538,,,space,3.433,0,11,11,15,1,トマ　ルピン　ピポ,,,CartoonStims/burglar_point_doctor_r.jpg,audio/tomalupinpipo.mp3,,,,,,,,,,,,,,,,,,,,,,,,,,,,,,,,,,,,,,,,,,,,,,,,,,,,,,,,,,,,,,,,,,,,,
,,,,,,,,,R_3CUu4ShV1RZM5Kj,2022-06-27_23h12.53.694,jpn_C01,2022.1.2,Win32,59.88382538,,,space,2.9395,0,12,12,30,1,パツ　ムク　シド,,,CartoonStims/cowboy_shoot_artist_r.jpg,audio/patsumukusido.mp3,,,,,,,,,,,,,,,,,,,,,,,,,,,,,,,,,,,,,,,,,,,,,,,,,,,,,,,,,,,,,,,,,,,,,
,,,,,,,,,R_3CUu4ShV1RZM5Kj,2022-06-27_23h12.53.694,jpn_C01,2022.1.2,Win32,59.88382538,,,space,2.9739,0,13,13,13,1,トマ　シド　ムク,,,CartoonStims/artist_point_cowboy_r.jpg,audio/tomasidomuku.mp3,,,,,,,,,,,,,,,,,,,,,,,,,,,,,,,,,,,,,,,,,,,,,,,,,,,,,,,,,,,,,,,,,,,,,
,,,,,,,,,R_3CUu4ShV1RZM5Kj,2022-06-27_23h12.53.694,jpn_C01,2022.1.2,Win32,59.88382538,,,space,2.8206,0,14,14,20,1,トマ　ピポ　シド,,,CartoonStims/doctor_point_artist_r.jpg,audio/tomapiposido.mp3,,,,,,,,,,,,,,,,,,,,,,,,,,,,,,,,,,,,,,,,,,,,,,,,,,,,,,,,,,,,,,,,,,,,,
,,,,,,,,,R_3CUu4ShV1RZM5Kj,2022-06-27_23h12.53.694,jpn_C01,2022.1.2,Win32,59.88382538,,,space,6.601,0,15,15,33,1,パツ　ピポ　ホレト,,,CartoonStims/doctor_shoot_chef_r.jpg,audio/patsupipohoreto.mp3,,,,,,,,,,,,,,,,,,,,,,,,,,,,,,,,,,,,,,,,,,,,,,,,,,,,,,,,,,,,,,,,,,,,,
,,,,,,,,,R_3CUu4ShV1RZM5Kj,2022-06-27_23h12.53.694,jpn_C01,2022.1.2,Win32,59.88382538,,,space,3.4564,0,16,16,2,1,セル 　ルピン 　ホレト,,,CartoonStims/burglar_kick_chef_r.jpg,audio/serulupinhoreto.mp3,,,,,,,,,,,,,,,,,,,,,,,,,,,,,,,,,,,,,,,,,,,,,,,,,,,,,,,,,,,,,,,,,,,,,
,,,,,,,,,R_3CUu4ShV1RZM5Kj,2022-06-27_23h12.53.694,jpn_C01,2022.1.2,Win32,59.88382538,,,space,3.7813,0,17,17,4,1,セル　ホレト　ムク,,,CartoonStims/chef_kick_cowboy_r.jpg,audio/seruhoretomuku.mp3,,,,,,,,,,,,,,,,,,,,,,,,,,,,,,,,,,,,,,,,,,,,,,,,,,,,,,,,,,,,,,,,,,,,,
,,,,,,,,,R_3CUu4ShV1RZM5Kj,2022-06-27_23h12.53.694,jpn_C01,2022.1.2,Win32,59.88382538,,,space,2.9374,0,18,18,21,1,トマ　ピポ　ルピン,,,CartoonStims/doctor_point_burglar_r.jpg,audio/tomapipolupin.mp3,,,,,,,,,,,,,,,,,,,,,,,,,,,,,,,,,,,,,,,,,,,,,,,,,,,,,,,,,,,,,,,,,,,,,
,,,,,,,,,R_3CUu4ShV1RZM5Kj,2022-06-27_23h12.53.694,jpn_C01,2022.1.2,Win32,59.88382538,,,space,5.431,0,19,19,40,1,プミ　ホレト　シド,,,CartoonStims/chef_punch_artist_r.jpg,audio/pumihoretosido.mp3,,,,,,,,,,,,,,,,,,,,,,,,,,,,,,,,,,,,,,,,,,,,,,,,,,,,,,,,,,,,,,,,,,,,,
,,,,,,,,,R_3CUu4ShV1RZM5Kj,2022-06-27_23h12.53.694,jpn_C01,2022.1.2,Win32,59.88382538,,,space,3.5505,0,20,20,19,1,トマ　ムク　シド,,,CartoonStims/cowboy_point_artist_r.jpg,audio/tomamukusido.mp3,,,,,,,,,,,,,,,,,,,,,,,,,,,,,,,,,,,,,,,,,,,,,,,,,,,,,,,,,,,,,,,,,,,,,
,,,,,,,,,R_3CUu4ShV1RZM5Kj,2022-06-27_23h12.53.694,jpn_C01,2022.1.2,Win32,59.88382538,,,space,5.7676,0,21,21,3,1,セル　ルピン　ムク,,,CartoonStims/burglar_kick_cowboy_r.jpg,audio/serulupinmuku.mp3,,,,,,,,,,,,,,,,,,,,,,,,,,,,,,,,,,,,,,,,,,,,,,,,,,,,,,,,,,,,,,,,,,,,,
,,,,,,,,,R_3CUu4ShV1RZM5Kj,2022-06-27_23h12.53.694,jpn_C01,2022.1.2,Win32,59.88382538,,,space,3.0214,0,22,22,47,1,プミ　ドキ　ピポ,,,CartoonStims/boxer_punch_doctor_r.jpg,audio/pumidokipipo.mp3,,,,,,,,,,,,,,,,,,,,,,,,,,,,,,,,,,,,,,,,,,,,,,,,,,,,,,,,,,,,,,,,,,,,,
,,,,,,,,,R_3CUu4ShV1RZM5Kj,2022-06-27_23h12.53.694,jpn_C01,2022.1.2,Win32,59.88382538,,,space,3.1045,0,23,23,16,1,トマ　ホレト　ピポ,,,CartoonStims/chef_point_doctor_r.jpg,audio/tomahoretopipo.mp3,,,,,,,,,,,,,,,,,,,,,,,,,,,,,,,,,,,,,,,,,,,,,,,,,,,,,,,,,,,,,,,,,,,,,
,,,,,,,,,R_3CUu4ShV1RZM5Kj,2022-06-27_23h12.53.694,jpn_C01,2022.1.2,Win32,59.88382538,,,space,2.2704,0,24,24,14,1,トマ　ルピン　ムク,,,CartoonStims/burglar_point_cowboy_r.jpg,audio/tomalupinmuku.mp3,,,,,,,,,,,,,,,,,,,,,,,,,,,,,,,,,,,,,,,,,,,,,,,,,,,,,,,,,,,,,,,,,,,,,
,,,,,,,,,R_3CUu4ShV1RZM5Kj,2022-06-27_23h12.53.694,jpn_C01,2022.1.2,Win32,59.88382538,,,space,3.52,0,25,25,28,1,パツ　ホレト　ドキ,,,CartoonStims/chef_shoot_boxer_r.jpg,audio/patsuhoretodoki.mp3,,,,,,,,,,,,,,,,,,,,,,,,,,,,,,,,,,,,,,,,,,,,,,,,,,,,,,,,,,,,,,,,,,,,,
,,,,,,,,,R_3CUu4ShV1RZM5Kj,2022-06-27_23h12.53.694,jpn_C01,2022.1.2,Win32,59.88382538,,,space,3.4311,0,26,26,38,1,プミ　ルピン　ドキ,,,CartoonStims/burglar_punch_boxer_r.jpg,audio/pumilupindoki.mp3,,,,,,,,,,,,,,,,,,,,,,,,,,,,,,,,,,,,,,,,,,,,,,,,,,,,,,,,,,,,,,,,,,,,,
,,,,,,,,,R_3CUu4ShV1RZM5Kj,2022-06-27_23h12.53.694,jpn_C01,2022.1.2,Win32,59.88382538,,,space,3.4181,0,27,27,29,1,パツ　ホレト　シド,,,CartoonStims/chef_shoot_artist_r.jpg,audio/patsuhoretosido.mp3,,,,,,,,,,,,,,,,,,,,,,,,,,,,,,,,,,,,,,,,,,,,,,,,,,,,,,,,,,,,,,,,,,,,,
,,,,,,,,,R_3CUu4ShV1RZM5Kj,2022-06-27_23h12.53.694,jpn_C01,2022.1.2,Win32,59.88382538,,,space,2.6293,0,28,28,45,1,プミ　ピポ　ムク,,,CartoonStims/doctor_punch_cowboy_r.jpg,audio/pumipipomuku.mp3,,,,,,,,,,,,,,,,,,,,,,,,,,,,,,,,,,,,,,,,,,,,,,,,,,,,,,,,,,,,,,,,,,,,,
,,,,,,,,,R_3CUu4ShV1RZM5Kj,2022-06-27_23h12.53.694,jpn_C01,2022.1.2,Win32,59.88382538,,,space,3.7153,0,29,29,6,1,セル　ムク　ピポ,,,CartoonStims/cowboy_kick_doctor_r.jpg,audio/serumukupipo.mp3,,,,,,,,,,,,,,,,,,,,,,,,,,,,,,,,,,,,,,,,,,,,,,,,,,,,,,,,,,,,,,,,,,,,,
,,,,,,,,,R_3CUu4ShV1RZM5Kj,2022-06-27_23h12.53.694,jpn_C01,2022.1.2,Win32,59.88382538,,,space,2.6673,0,30,30,36,1,プミ　シド　ピポ,,,CartoonStims/artist_punch_doctor_r.jpg,audio/pumisidopipo.mp3,,,,,,,,,,,,,,,,,,,,,,,,,,,,,,,,,,,,,,,,,,,,,,,,,,,,,,,,,,,,,,,,,,,,,
,,,,,,,,,R_3CUu4ShV1RZM5Kj,2022-06-27_23h12.53.694,jpn_C01,2022.1.2,Win32,59.88382538,,,space,5.8291,0,31,31,1,1,セル 　シド 　ホレト,,,CartoonStims/artist_kick_chef_r.jpg,audio/serusidohoreto.mp3,,,,,,,,,,,,,,,,,,,,,,,,,,,,,,,,,,,,,,,,,,,,,,,,,,,,,,,,,,,,,,,,,,,,,
,,,,,,,,,R_3CUu4ShV1RZM5Kj,2022-06-27_23h12.53.694,jpn_C01,2022.1.2,Win32,59.88382538,,,space,1.9665,0,32,32,39,1,プミ　ルピン　シド,,,CartoonStims/burglar_punch_artist_r.jpg,audio/pumilupinsido.mp3,,,,,,,,,,,,,,,,,,,,,,,,,,,,,,,,,,,,,,,,,,,,,,,,,,,,,,,,,,,,,,,,,,,,,
,,,,,,,,,R_3CUu4ShV1RZM5Kj,2022-06-27_23h12.53.694,jpn_C01,2022.1.2,Win32,59.88382538,,,space,2.4651,0,33,33,0,1,セル　シド　ルピン,,,CartoonStims/artist_kick_burglar_r.jpg,audio/serusidolupin.mp3,,,,,,,,,,,,,,,,,,,,,,,,,,,,,,,,,,,,,,,,,,,,,,,,,,,,,,,,,,,,,,,,,,,,,
,,,,,,,,,R_3CUu4ShV1RZM5Kj,2022-06-27_23h12.53.694,jpn_C01,2022.1.2,Win32,59.88382538,,,space,2.455,0,34,34,8,1,セル　ピポ　ドキ,,,CartoonStims/doctor_kick_boxer_r.jpg,audio/serupipodoki.mp3,,,,,,,,,,,,,,,,,,,,,,,,,,,,,,,,,,,,,,,,,,,,,,,,,,,,,,,,,,,,,,,,,,,,,
,,,,,,,,,R_3CUu4ShV1RZM5Kj,2022-06-27_23h12.53.694,jpn_C01,2022.1.2,Win32,59.88382538,,,space,2.2222,0,35,35,10,1,セル　ドキ　シド,,,CartoonStims/boxer_kick_artist_r.jpg,audio/serudokisido.mp3,,,,,,,,,,,,,,,,,,,,,,,,,,,,,,,,,,,,,,,,,,,,,,,,,,,,,,,,,,,,,,,,,,,,,
,,,,,,,,,R_3CUu4ShV1RZM5Kj,2022-06-27_23h12.53.694,jpn_C01,2022.1.2,Win32,59.88382538,,,space,3.9545,0,36,36,24,1,パツ　シド　ムク,,,CartoonStims/artist_shoot_cowboy_r.jpg,audio/patsusidomuku.mp3,,,,,,,,,,,,,,,,,,,,,,,,,,,,,,,,,,,,,,,,,,,,,,,,,,,,,,,,,,,,,,,,,,,,,
,,,,,,,,,R_3CUu4ShV1RZM5Kj,2022-06-27_23h12.53.694,jpn_C01,2022.1.2,Win32,59.88382538,,,space,2.8569,0,37,37,18,1,トマ　ムク　ドキ,,,CartoonStims/cowboy_point_boxer_r.jpg,audio/tomamukudoki.mp3,,,,,,,,,,,,,,,,,,,,,,,,,,,,,,,,,,,,,,,,,,,,,,,,,,,,,,,,,,,,,,,,,,,,,
,,,,,,,,,R_3CUu4ShV1RZM5Kj,2022-06-27_23h12.53.694,jpn_C01,2022.1.2,Win32,59.88382538,,,space,3.2803,0,38,38,41,1,プミ　ホレト　ルピン,,,CartoonStims/chef_punch_burglar_r.jpg,audio/pumihoretolupin.mp3,,,,,,,,,,,,,,,,,,,,,,,,,,,,,,,,,,,,,,,,,,,,,,,,,,,,,,,,,,,,,,,,,,,,,
,,,,,,,,,R_3CUu4ShV1RZM5Kj,2022-06-27_23h12.53.694,jpn_C01,2022.1.2,Win32,59.88382538,,,space,3.7152,0,39,39,35,1,パツ　ドキ　ムク,,,CartoonStims/boxer_shoot_cowboy_r.jpg,audio/patsudokimuku.mp3,,,,,,,,,,,,,,,,,,,,,,,,,,,,,,,,,,,,,,,,,,,,,,,,,,,,,,,,,,,,,,,,,,,,,
,,,,,,,,,R_3CUu4ShV1RZM5Kj,2022-06-27_23h12.53.694,jpn_C01,2022.1.2,Win32,59.88382538,,,space,2.3868,0,40,40,34,1,パツ　ドキ　ホレト,,,CartoonStims/boxer_shoot_chef_r.jpg,audio/patsudokihoreto.mp3,,,,,,,,,,,,,,,,,,,,,,,,,,,,,,,,,,,,,,,,,,,,,,,,,,,,,,,,,,,,,,,,,,,,,
,,,,,,,,,R_3CUu4ShV1RZM5Kj,2022-06-27_23h12.53.694,jpn_C01,2022.1.2,Win32,59.88382538,,,space,2.3319,0,41,41,7,1,セル　ムク　ドキ,,,CartoonStims/cowboy_kick_boxer_r.jpg,audio/serumukudoki.mp3,,,,,,,,,,,,,,,,,,,,,,,,,,,,,,,,,,,,,,,,,,,,,,,,,,,,,,,,,,,,,,,,,,,,,
,,,,,,,,,R_3CUu4ShV1RZM5Kj,2022-06-27_23h12.53.694,jpn_C01,2022.1.2,Win32,59.88382538,,,space,2.9489,0,42,42,42,1,プミ　ムク　ルピン,,,CartoonStims/cowboy_punch_burglar_r.jpg,audio/pumimukulupin.mp3,,,,,,,,,,,,,,,,,,,,,,,,,,,,,,,,,,,,,,,,,,,,,,,,,,,,,,,,,,,,,,,,,,,,,
,,,,,,,,,R_3CUu4ShV1RZM5Kj,2022-06-27_23h12.53.694,jpn_C01,2022.1.2,Win32,59.88382538,,,space,2.9497,0,43,43,17,1,トマ　ホレト　ドキ,,,CartoonStims/chef_point_boxer_r.jpg,audio/tomahoretodoki.mp3,,,,,,,,,,,,,,,,,,,,,,,,,,,,,,,,,,,,,,,,,,,,,,,,,,,,,,,,,,,,,,,,,,,,,
,,,,,,,,,R_3CUu4ShV1RZM5Kj,2022-06-27_23h12.53.694,jpn_C01,2022.1.2,Win32,59.88382538,,,space,2.755,0,44,44,12,1,トマ　シド　ホレト,,,CartoonStims/artist_point_chef_r.jpg,audio/tomasidohoreto.mp3,,,,,,,,,,,,,,,,,,,,,,,,,,,,,,,,,,,,,,,,,,,,,,,,,,,,,,,,,,,,,,,,,,,,,
,,,,,,,,,R_3CUu4ShV1RZM5Kj,2022-06-27_23h12.53.694,jpn_C01,2022.1.2,Win32,59.88382538,,,space,4.6552,0,45,45,5,1,セル　ホレト　ピポ,,,CartoonStims/chef_kick_doctor_r.jpg,audio/seruhoretopipo.mp3,,,,,,,,,,,,,,,,,,,,,,,,,,,,,,,,,,,,,,,,,,,,,,,,,,,,,,,,,,,,,,,,,,,,,
,,,,,,,,,R_3CUu4ShV1RZM5Kj,2022-06-27_23h12.53.694,jpn_C01,2022.1.2,Win32,59.88382538,,,space,2.4488,0,46,46,27,1,パツ　ルピン　ドキ,,,CartoonStims/burglar_shoot_boxer_r.jpg,audio/patsulupindoki.mp3,,,,,,,,,,,,,,,,,,,,,,,,,,,,,,,,,,,,,,,,,,,,,,,,,,,,,,,,,,,,,,,,,,,,,
,,,,,,,,,R_3CUu4ShV1RZM5Kj,2022-06-27_23h12.53.694,jpn_C01,2022.1.2,Win32,59.88382538,,,space,3.1716,0,47,47,31,1,パツ　ムク　ルピン,,,CartoonStims/cowboy_shoot_burglar_r.jpg,audio/patsumukulupin.mp3,,,,,,,,,,,,,,,,,,,,,,,,,,,,,,,,,,,,,,,,,,,,,,,,,,,,,,,,,,,,,,,,,,,,,
,,,,,,,,,R_3CUu4ShV1RZM5Kj,2022-06-27_23h12.53.694,jpn_C01,2022.1.2,Win32,59.88382538,,,,,,,,,,,,,,,space,3.4536,left,1,4.0794,,,,,,,,,,,,,,,,,,0,0,0,0,1,,,,,,,,,,,,,,,,,,,,,,,,,,,,,,,,,,,,,,,,,,
,,,,,,,,,R_3CUu4ShV1RZM5Kj,2022-06-27_23h12.53.694,jpn_C01,2022.1.2,Win32,59.88382538,,,,,,,,,,,,,,,,,,,,,,,,,0,0,0,0,1,CartoonStims/doctor_kick_burglar_r.jpg,セル　ピポ　ルピン,CartoonStims/doctor_kick_chef_r.jpg,left,CartoonStims/doctor_kick_burglar_r.jpg,audio/serupipolupin.mp3,残念！ こちらが正しい画像です。,,,,,,,,,,,,,,,,,,,,,,,,,,,,,,,,,,,,,,,,,,,,,,,
,,,,,,,,,R_3CUu4ShV1RZM5Kj,2022-06-27_23h12.53.694,jpn_C01,2022.1.2,Win32,59.88382538,,,,,,,,,,,,,,,,,right,1,4.6641,0,0,0,0,1,,,,,,,,,,,,,,,,,,,,,,,,,,,,,,,,,,,,,,,,,,,,,,,,,,,,,,,,,,,
,,,,,,,,,R_3CUu4ShV1RZM5Kj,2022-06-27_23h12.53.694,jpn_C01,2022.1.2,Win32,59.88382538,,,,,,,,,,,,,,,,,,,,,,,,,0,1,1,1,1,CartoonStims/chef_point_burglar_r.jpg,トマ　ホレト　シド,CartoonStims/chef_point_artist_r.jpg,right,CartoonStims/chef_point_artist_r.jpg,audio/tomahoretosido.mp3,残念！ こちらが正しい画像です。,,,,,,,,,,,,,,,,,,,,,,,,,,,,,,,,,,,,,,,,,,,,,,,
,,,,,,,,,R_3CUu4ShV1RZM5Kj,2022-06-27_23h12.53.694,jpn_C01,2022.1.2,Win32,59.88382538,,,,,,,,,,,,,,,,,left,1,3.4721,,,,,,,,,,,,,,,,,,0,0,0,0,1,,,,,,,,,,,,,,,,,,,,,,,,,,,,,,,,,,,,,,,,,,
,,,,,,,,,R_3CUu4ShV1RZM5Kj,2022-06-27_23h12.53.694,jpn_C01,2022.1.2,Win32,59.88382538,,,,,,,,,,,,,,,,,,,,,,,,,0,2,2,2,1,CartoonStims/boxer_shoot_doctor_r.jpg,パツ　ドキ　ピポ,CartoonStims/boxer_shoot_artist_r.jpg,left,CartoonStims/boxer_shoot_doctor_r.jpg,audio/patsudokipipo.mp3,残念！ こちらが正しい画像です。,,,,,,,,,,,,,,,,,,,,,,,,,,,,,,,,,,,,,,,,,,,,,,,
,,,,,,,,,R_3CUu4ShV1RZM5Kj,2022-06-27_23h12.53.694,jpn_C01,2022.1.2,Win32,59.88382538,,,,,,,,,,,,,,,,,right,1,3.2543,0,0,0,0,1,,,,,,,,,,,,,,,,,,,,,,,,,,,,,,,,,,,,,,,,,,,,,,,,,,,,,,,,,,,
,,,,,,,,,R_3CUu4ShV1RZM5Kj,2022-06-27_23h12.53.694,jpn_C01,2022.1.2,Win32,59.88382538,,,,,,,,,,,,,,,,,,,,,,,,,0,3,3,3,1,CartoonStims/cowboy_punch_doctor_r.jpg,プミ　ムク　ドキ,CartoonStims/cowboy_punch_boxer_r.jpg,right,CartoonStims/cowboy_punch_boxer_r.jpg,audio/pumimukudoki.mp3,残念！ こちらが正しい画像です。,,,,,,,,,,,,,,,,,,,,,,,,,,,,,,,,,,,,,,,,,,,,,,,
,,,,,,,,,R_3CUu4ShV1RZM5Kj,2022-06-27_23h12.53.694,jpn_C01,2022.1.2,Win32,59.88382538,,,,,,,,,,,,,,,,,left,1,3.4487,,,,,,,,,,,,,,,,,,0,0,0,0,1,,,,,,,,,,,,,,,,,,,,,,,,,,,,,,,,,,,,,,,,,,
,,,,,,,,,R_3CUu4ShV1RZM5Kj,2022-06-27_23h12.53.694,jpn_C01,2022.1.2,Win32,59.88382538,,,,,,,,,,,,,,,,,,,,,,,,,0,4,4,4,1,CartoonStims/burglar_point_boxer_r.jpg,トマ　ルピン　ドキ,CartoonStims/burglar_kick_boxer_r.jpg,left,CartoonStims/burglar_point_boxer_r.jpg,audio/tomalupindoki.mp3,残念！ こちらが正しい画像です。,,,,,,,,,,,,,,,,,,,,,,,,,,,,,,,,,,,,,,,,,,,,,,,
,,,,,,,,,R_3CUu4ShV1RZM5Kj,2022-06-27_23h12.53.694,jpn_C01,2022.1.2,Win32,59.88382538,,,,,,,,,,,,,,,,,right,1,5.4326,0,0,0,0,1,,,,,,,,,,,,,,,,,,,,,,,,,,,,,,,,,,,,,,,,,,,,,,,,,,,,,,,,,,,
,,,,,,,,,R_3CUu4ShV1RZM5Kj,2022-06-27_23h12.53.694,jpn_C01,2022.1.2,Win32,59.88382538,,,,,,,,,,,,,,,,,,,,,,,,,0,5,5,5,1,CartoonStims/cowboy_point_chef_r.jpg,パツ　ムク　ホレト,CartoonStims/cowboy_shoot_chef_r.jpg,right,CartoonStims/cowboy_shoot_chef_r.jpg,audio/patsumukuhoreto.mp3,残念！ こちらが正しい画像です。,,,,,,,,,,,,,,,,,,,,,,,,,,,,,,,,,,,,,,,,,,,,,,,
,,,,,,,,,R_3CUu4ShV1RZM5Kj,2022-06-27_23h12.53.694,jpn_C01,2022.1.2,Win32,59.88382538,,,,,,,,,,,,,,,,,right,1,1.4555,0,0,0,0,1,,,,,,,,,,,,,,,,,,,,,,,,,,,,,,,,,,,,,,,,,,,,,,,,,,,,,,,,,,,
,,,,,,,,,R_3CUu4ShV1RZM5Kj,2022-06-27_23h12.53.694,jpn_C01,2022.1.2,Win32,59.88382538,,,,,,,,,,,,,,,,,,,,,,,,,0,6,6,7,1,CartoonStims/artist_punch_cowboy_r.jpg,セル　シド　ムク,CartoonStims/artist_kick_cowboy_r.jpg,right,CartoonStims/artist_kick_cowboy_r.jpg,audio/serusidomuku.mp3,残念！ こちらが正しい画像です。,,,,,,,,,,,,,,,,,,,,,,,,,,,,,,,,,,,,,,,,,,,,,,,
,,,,,,,,,R_3CUu4ShV1RZM5Kj,2022-06-27_23h12.53.694,jpn_C01,2022.1.2,Win32,59.88382538,,,,,,,,,,,,,,,,,left,1,3.3825,,,,,,,,,,,,,,,,,,0,0,0,0,1,,,,,,,,,,,,,,,,,,,,,,,,,,,,,,,,,,,,,,,,,,
,,,,,,,,,R_3CUu4ShV1RZM5Kj,2022-06-27_23h12.53.694,jpn_C01,2022.1.2,Win32,59.88382538,,,,,,,,,,,,,,,,,,,,,,,,,0,7,7,8,1,CartoonStims/doctor_point_cowboy_r.jpg,トマ　ピポ　ムク,CartoonStims/boxer_point_cowboy_r.jpg,left,CartoonStims/doctor_point_cowboy_r.jpg,audio/tomapipomuku.mp3,残念！ こちらが正しい画像です。,,,,,,,,,,,,,,,,,,,,,,,,,,,,,,,,,,,,,,,,,,,,,,,
,,,,,,,,,R_3CUu4ShV1RZM5Kj,2022-06-27_23h12.53.694,jpn_C01,2022.1.2,Win32,59.88382538,,,,,,,,,,,,,,,,,right,1,2.0822,0,0,0,0,1,,,,,,,,,,,,,,,,,,,,,,,,,,,,,,,,,,,,,,,,,,,,,,,,,,,,,,,,,,,
,,,,,,,,,R_3CUu4ShV1RZM5Kj,2022-06-27_23h12.53.694,jpn_C01,2022.1.2,Win32,59.88382538,,,,,,,,,,,,,,,,,,,,,,,,,0,8,8,11,1,CartoonStims/burglar_punch_cowboy_r.jpg,プミ　ホレト　ムク,CartoonStims/chef_punch_cowboy_r.jpg,right,CartoonStims/chef_punch_cowboy_r.jpg,audio/pumihoretomuku.mp3,残念！ こちらが正しい画像です。,,,,,,,,,,,,,,,,,,,,,,,,,,,,,,,,,,,,,,,,,,,,,,,
,,,,,,,,,R_3CUu4ShV1RZM5Kj,2022-06-27_23h12.53.694,jpn_C01,2022.1.2,Win32,59.88382538,,,,,,,,,,,,,,,,,left,1,3.6158,,,,,,,,,,,,,,,,,,0,0,0,0,1,,,,,,,,,,,,,,,,,,,,,,,,,,,,,,,,,,,,,,,,,,
,,,,,,,,,R_3CUu4ShV1RZM5Kj,2022-06-27_23h12.53.694,jpn_C01,2022.1.2,Win32,59.88382538,,,,,,,,,,,,,,,,,,,,,,,,,0,9,9,6,1,CartoonStims/doctor_punch_boxer_r.jpg,プミ　ピポ　ドキ,CartoonStims/doctor_shoot_boxer_r.jpg,left,CartoonStims/doctor_punch_boxer_r.jpg,audio/pumipipodoki.mp3,残念！ こちらが正しい画像です。,,,,,,,,,,,,,,,,,,,,,,,,,,,,,,,,,,,,,,,,,,,,,,,
,,,,,,,,,R_3CUu4ShV1RZM5Kj,2022-06-27_23h12.53.694,jpn_C01,2022.1.2,Win32,59.88382538,,,,,,,,,,,,,,,,,left,1,2.5837,,,,,,,,,,,,,,,,,,0,0,0,0,1,,,,,,,,,,,,,,,,,,,,,,,,,,,,,,,,,,,,,,,,,,
,,,,,,,,,R_3CUu4ShV1RZM5Kj,2022-06-27_23h12.53.694,jpn_C01,2022.1.2,Win32,59.88382538,,,,,,,,,,,,,,,,,,,,,,,,,0,10,10,10,1,CartoonStims/artist_shoot_burglar_r.jpg,パツ　シド　ルピン,CartoonStims/chef_shoot_burglar_r.jpg,left,CartoonStims/artist_shoot_burglar_r.jpg,audio/patsusidolupin.mp3,残念！ こちらが正しい画像です。,,,,,,,,,,,,,,,,,,,,,,,,,,,,,,,,,,,,,,,,,,,,,,,
,,,,,,,,,R_3CUu4ShV1RZM5Kj,2022-06-27_23h12.53.694,jpn_C01,2022.1.2,Win32,59.88382538,,,,,,,,,,,,,,,,,right,1,3.1702,0,0,0,0,1,,,,,,,,,,,,,,,,,,,,,,,,,,,,,,,,,,,,,,,,,,,,,,,,,,,,,,,,,,,
,,,,,,,,,R_3CUu4ShV1RZM5Kj,2022-06-27_23h12.53.694,jpn_C01,2022.1.2,Win32,59.88382538,,,,,,,,,,,,,,,,,,,,,,,,,0,11,11,9,1,CartoonStims/chef_kick_artist_r.jpg,セル　ムク　シド,CartoonStims/cowboy_kick_artist_r.jpg,right,CartoonStims/cowboy_kick_artist_r.jpg,audio/serumukusido.mp3,残念！ こちらが正しい画像です。,,,,,,,,,,,,,,,,,,,,,,,,,,,,,,,,,,,,,,,,,,,,,,,
,,,,,,,,,R_3CUu4ShV1RZM5Kj,2022-06-27_23h12.53.694,jpn_C01,2022.1.2,Win32,59.88382538,,,,,,,,,,,,,,,,,,,,,,,,,,,,,,,,,,,,,,,,,,space,8.6926,プミ　シド　ルピン,right,22.9843,0,0,0,0,1,,,,,,,,,,,,,,,,,,,,,,,,,,,,,,,,
,,,,,,,,,R_3CUu4ShV1RZM5Kj,2022-06-27_23h12.53.694,jpn_C01,2022.1.2,Win32,59.88382538,,,,,,,,,,,,,CartoonStims/artist_punch_burglar_r.jpg,audio/pumisidolupin.mp3,,,,,,,,,,,,,,,,,,,,,,,,,,,,,,,,,,,,,,0,0,0,9,1,プミ　シド　ルピン,,,,,,,,,,,,,,,,,,,,,,,,,,
,,,,,,,,,R_3CUu4ShV1RZM5Kj,2022-06-27_23h12.53.694,jpn_C01,2022.1.2,Win32,59.88382538,,,,,,,,,,,,,,,,,,,,,,,,,,,,,,,,,,,,,,,,,,,,パツ　ムク　ピポ,right,14.4676,0,0,0,0,1,,,,,,,,,,,,,,,,,,,,,,,,,,,,,,,,
,,,,,,,,,R_3CUu4ShV1RZM5Kj,2022-06-27_23h12.53.694,jpn_C01,2022.1.2,Win32,59.88382538,,,,,,,,,,,,,CartoonStims/cowboy_shoot_doctor_r.jpg,audio/patsumukupipo.mp3,,,,,,,,,,,,,,,,,,,,,,,,,,,,,,,,,,,,,,0,1,1,8,1,パツ　ムク　ピポ,,,,,,,,,,,,,,,,,,,,,,,,,,
,,,,,,,,,R_3CUu4ShV1RZM5Kj,2022-06-27_23h12.53.694,jpn_C01,2022.1.2,Win32,59.88382538,,,,,,,,,,,,,,,,,,,,,,,,,,,,,,,,,,,,,,,,,,,,パツ　ルピン　ホレト,right,9.8536,0,0,0,0,1,,,,,,,,,,,,,,,,,,,,,,,,,,,,,,,,
,,,,,,,,,R_3CUu4ShV1RZM5Kj,2022-06-27_23h12.53.694,jpn_C01,2022.1.2,Win32,59.88382538,,,,,,,,,,,,,CartoonStims/burglar_shoot_chef_r.jpg,audio/patsulupinhoreto.mp3,,,,,,,,,,,,,,,,,,,,,,,,,,,,,,,,,,,,,,0,2,2,6,1,パツ　ルピン　ホレト,,,,,,,,,,,,,,,,,,,,,,,,,,
,,,,,,,,,R_3CUu4ShV1RZM5Kj,2022-06-27_23h12.53.694,jpn_C01,2022.1.2,Win32,59.88382538,,,,,,,,,,,,,,,,,,,,,,,,,,,,,,,,,,,,,,,,,,,,セル　ムク　ルピン,right,10.3152,0,0,0,0,1,,,,,,,,,,,,,,,,,,,,,,,,,,,,,,,,
,,,,,,,,,R_3CUu4ShV1RZM5Kj,2022-06-27_23h12.53.694,jpn_C01,2022.1.2,Win32,59.88382538,,,,,,,,,,,,,CartoonStims/cowboy_kick_burglar_r.jpg,audio/serumukulupin.mp3,,,,,,,,,,,,,,,,,,,,,,,,,,,,,,,,,,,,,,0,3,3,0,1,セル　ムク　ルピン,,,,,,,,,,,,,,,,,,,,,,,,,,
,,,,,,,,,R_3CUu4ShV1RZM5Kj,2022-06-27_23h12.53.694,jpn_C01,2022.1.2,Win32,59.88382538,,,,,,,,,,,,,,,,,,,,,,,,,,,,,,,,,,,,,,,,,,,,トマ　シド　ドキ,right,14.7993,0,0,0,0,1,,,,,,,,,,,,,,,,,,,,,,,,,,,,,,,,
,,,,,,,,,R_3CUu4ShV1RZM5Kj,2022-06-27_23h12.53.694,jpn_C01,2022.1.2,Win32,59.88382538,,,,,,,,,,,,,CartoonStims/artist_point_boxer_r.jpg,audio/tomasidodoki.mp3,,,,,,,,,,,,,,,,,,,,,,,,,,,,,,,,,,,,,,0,4,4,3,1,トマ　シド　ドキ,,,,,,,,,,,,,,,,,,,,,,,,,,
,,,,,,,,,R_3CUu4ShV1RZM5Kj,2022-06-27_23h12.53.694,jpn_C01,2022.1.2,Win32,59.88382538,,,,,,,,,,,,,,,,,,,,,,,,,,,,,,,,,,,,,,,,,,,,パツ　ドキ　シド,right,9.1908,0,0,0,0,1,,,,,,,,,,,,,,,,,,,,,,,,,,,,,,,,
,,,,,,,,,R_3CUu4ShV1RZM5Kj,2022-06-27_23h12.53.694,jpn_C01,2022.1.2,Win32,59.88382538,,,,,,,,,,,,,CartoonStims/boxer_punch_artist_r.jpg,audio/pumidokisido.mp3,,,,,,,,,,,,,,,,,,,,,,,,,,,,,,,,,,,,,,0,5,5,11,1,プミ　ドキ　シド,,,,,,,,,,,,,,,,,,,,,,,,,,
,,,,,,,,,R_3CUu4ShV1RZM5Kj,2022-06-27_23h12.53.694,jpn_C01,2022.1.2,Win32,59.88382538,,,,,,,,,,,,,,,,,,,,,,,,,,,,,,,,,,,,,,,,,,,,トマ　ルピン　シド,right,8.9042,0,0,0,0,1,,,,,,,,,,,,,,,,,,,,,,,,,,,,,,,,
,,,,,,,,,R_3CUu4ShV1RZM5Kj,2022-06-27_23h12.53.694,jpn_C01,2022.1.2,Win32,59.88382538,,,,,,,,,,,,,CartoonStims/burglar_point_artist_r.jpg,audio/tomalupinsido.mp3,,,,,,,,,,,,,,,,,,,,,,,,,,,,,,,,,,,,,,0,6,6,4,1,トマ　ルピン　シド,,,,,,,,,,,,,,,,,,,,,,,,,,
,,,,,,,,,R_3CUu4ShV1RZM5Kj,2022-06-27_23h12.53.694,jpn_C01,2022.1.2,Win32,59.88382538,,,,,,,,,,,,,,,,,,,,,,,,,,,,,,,,,,,,,,,,,,,,セル　ピポ　ホレト,right,8.8896,0,0,0,0,1,,,,,,,,,,,,,,,,,,,,,,,,,,,,,,,,
,,,,,,,,,R_3CUu4ShV1RZM5Kj,2022-06-27_23h12.53.694,jpn_C01,2022.1.2,Win32,59.88382538,,,,,,,,,,,,,CartoonStims/doctor_kick_chef_r.jpg,audio/serupipohoreto.mp3,,,,,,,,,,,,,,,,,,,,,,,,,,,,,,,,,,,,,,0,7,7,1,1,セル　ピポ　ホレト,,,,,,,,,,,,,,,,,,,,,,,,,,
,,,,,,,,,R_3CUu4ShV1RZM5Kj,2022-06-27_23h12.53.694,jpn_C01,2022.1.2,Win32,59.88382538,,,,,,,,,,,,,,,,,,,,,,,,,,,,,,,,,,,,,,,,,,,,セル　ドキ　ムク,right,7.4899,0,0,0,0,1,,,,,,,,,,,,,,,,,,,,,,,,,,,,,,,,
,,,,,,,,,R_3CUu4ShV1RZM5Kj,2022-06-27_23h12.53.694,jpn_C01,2022.1.2,Win32,59.88382538,,,,,,,,,,,,,CartoonStims/boxer_kick_cowboy_r.jpg,audio/serudokimuku.mp3,,,,,,,,,,,,,,,,,,,,,,,,,,,,,,,,,,,,,,0,8,8,2,1,セル　ドキ　ムク,,,,,,,,,,,,,,,,,,,,,,,,,,
,,,,,,,,,R_3CUu4ShV1RZM5Kj,2022-06-27_23h12.53.694,jpn_C01,2022.1.2,Win32,59.88382538,,,,,,,,,,,,,,,,,,,,,,,,,,,,,,,,,,,,,,,,,,,,プミ　ピポ　ドキ,right,10.635,0,0,0,0,1,,,,,,,,,,,,,,,,,,,,,,,,,,,,,,,,
,,,,,,,,,R_3CUu4ShV1RZM5Kj,2022-06-27_23h12.53.694,jpn_C01,2022.1.2,Win32,59.88382538,,,,,,,,,,,,,CartoonStims/doctor_punch_boxer_r.jpg,audio/pumipipodoki.mp3,,,,,,,,,,,,,,,,,,,,,,,,,,,,,,,,,,,,,,0,9,9,10,1,プミ　ピポ　ドキ,,,,,,,,,,,,,,,,,,,,,,,,,,
,,,,,,,,,R_3CUu4ShV1RZM5Kj,2022-06-27_23h12.53.694,jpn_C01,2022.1.2,Win32,59.88382538,,,,,,,,,,,,,,,,,,,,,,,,,,,,,,,,,,,,,,,,,,,,トマ　ホレト　ルピン,right,11.7158,0,0,0,0,1,,,,,,,,,,,,,,,,,,,,,,,,,,,,,,,,
,,,,,,,,,R_3CUu4ShV1RZM5Kj,2022-06-27_23h12.53.694,jpn_C01,2022.1.2,Win32,59.88382538,,,,,,,,,,,,,CartoonStims/chef_point_burglar_r.jpg,audio/tomahoretolupin.mp3,,,,,,,,,,,,,,,,,,,,,,,,,,,,,,,,,,,,,,0,10,10,5,1,トマ　ホレト　ルピン,,,,,,,,,,,,,,,,,,,,,,,,,,
,,,,,,,,,R_3CUu4ShV1RZM5Kj,2022-06-27_23h12.53.694,jpn_C01,2022.1.2,Win32,59.88382538,,,,,,,,,,,,,,,,,,,,,,,,,,,,,,,,,,,,,,,,,,,,パツ　ホレト　ムク,right,8.5712,0,0,0,0,1,,,,,,,,,,,,,,,,,,,,,,,,,,,,,,,,
,,,,,,,,,R_3CUu4ShV1RZM5Kj,2022-06-27_23h12.53.694,jpn_C01,2022.1.2,Win32,59.88382538,,,,,,,,,,,,,CartoonStims/chef_shoot_cowboy_r.jpg,audio/patsuhoretomuku.mp3,,,,,,,,,,,,,,,,,,,,,,,,,,,,,,,,,,,,,,0,11,11,7,1,パツ　ホレト　ムク,,,,,,,,,,,,,,,,,,,,,,,,,,
,,,,,,,,,R_3CUu4ShV1RZM5Kj,2022-06-27_23h12.53.694,jpn_C01,2022.1.2,Win32,59.88382538,,,,,,,,,,,,,,,,,,,,,,,,,,,,,,,,,,,,,,,,,,,,,,,,,,,,,,,,,,,space,42.7478,0,1,1,1,1,AffExposure.xlsx,"第二のトライアルの学習では、この言語で書かれた文を見ていただきます。引き続き注意して、 聞こえた音を復唱してください。


スペースキーを押してください。",1,AffFCT.xlsx,ここからクイズが始まります。 スクリーンに表示されるテキストに合う画像を選んでください。,AffTest.xlsx,1,次にここまで学んだことをアウトプットしていただきます。 表示される画像を描写していると思う単語を、テキストボックスにタイプしてください。 答えを提出したあとに正しい正解が少しの間画面に写ります。,1,"これで第二のトライアルが終了しました。 ここで休憩をとっていただいても構いません。

休憩が終わりましたら、 スペースキーを押して続きの学習を行いましょう。",,,,,,,,
,,,,,,,,,R_3CUu4ShV1RZM5Kj,2022-06-27_23h12.53.694,jpn_C01,2022.1.2,Win32,59.88382538,space,5.3146,space,7.7798,0,0,0,11,1,セル　ピク　ドキ　ルピン,,,CartoonStims/boxer_kick_burglar_r_no.jpg,audio/serupikudokilupin.mp3,,,,,,,,,,,,,,,,,,,,,,,,,,,,,,,,,,,,,,,,,,,,,,,,,,,,,,,,,,,,,,,,,,,,,
,,,,,,,,,R_3CUu4ShV1RZM5Kj,2022-06-27_23h12.53.694,jpn_C01,2022.1.2,Win32,59.88382538,,,space,9.0171,0,1,1,17,1,ピク　トマ　ホレト　ドキ,,,CartoonStims/chef_point_boxer_r_no.jpg,audio/pikutomahoretodoki.mp3,,,,,,,,,,,,,,,,,,,,,,,,,,,,,,,,,,,,,,,,,,,,,,,,,,,,,,,,,,,,,,,,,,,,,
,,,,,,,,,R_3CUu4ShV1RZM5Kj,2022-06-27_23h12.53.694,jpn_C01,2022.1.2,Win32,59.88382538,,,space,5.7535,0,2,2,16,1,トマ　ピク　ホレト　ピポ,,,CartoonStims/chef_point_doctor_r_no.jpg,audio/tomapikuhoretopipo.mp3,,,,,,,,,,,,,,,,,,,,,,,,,,,,,,,,,,,,,,,,,,,,,,,,,,,,,,,,,,,,,,,,,,,,,
,,,,,,,,,R_3CUu4ShV1RZM5Kj,2022-06-27_23h12.53.694,jpn_C01,2022.1.2,Win32,59.88382538,,,space,5.618,0,3,3,37,1,プミ　ピク　シド　ドキ,,,CartoonStims/artist_punch_boxer_r_no.jpg,audio/pumipikusidodoki.mp3,,,,,,,,,,,,,,,,,,,,,,,,,,,,,,,,,,,,,,,,,,,,,,,,,,,,,,,,,,,,,,,,,,,,,
,,,,,,,,,R_3CUu4ShV1RZM5Kj,2022-06-27_23h12.53.694,jpn_C01,2022.1.2,Win32,59.88382538,,,space,4.4497,0,4,4,33,1,ピク　パツ　ピポ　ホレト,,,CartoonStims/doctor_shoot_chef_r_no.jpg,audio/pikupatsupipohoreto.mp3,,,,,,,,,,,,,,,,,,,,,,,,,,,,,,,,,,,,,,,,,,,,,,,,,,,,,,,,,,,,,,,,,,,,,
,,,,,,,,,R_3CUu4ShV1RZM5Kj,2022-06-27_23h12.53.694,jpn_C01,2022.1.2,Win32,59.88382538,,,space,4.0662,0,5,5,44,1,ピク　プミ　ピポ　ホレト,,,CartoonStims/doctor_punch_chef_r_no.jpg,audio/pikupumipipohoreto.mp3,,,,,,,,,,,,,,,,,,,,,,,,,,,,,,,,,,,,,,,,,,,,,,,,,,,,,,,,,,,,,,,,,,,,,
,,,,,,,,,R_3CUu4ShV1RZM5Kj,2022-06-27_23h12.53.694,jpn_C01,2022.1.2,Win32,59.88382538,,,space,4.2349,0,6,6,12,1,トマ　ピク　シド　ホレト,,,CartoonStims/artist_point_chef_r_no.jpg,audio/tomapikusidohoreto.mp3,,,,,,,,,,,,,,,,,,,,,,,,,,,,,,,,,,,,,,,,,,,,,,,,,,,,,,,,,,,,,,,,,,,,,
,,,,,,,,,R_3CUu4ShV1RZM5Kj,2022-06-27_23h12.53.694,jpn_C01,2022.1.2,Win32,59.88382538,,,space,5.6806,0,7,7,31,1,ピク　パツ　ムク　ルピン,,,CartoonStims/cowboy_shoot_burglar_r_no.jpg,audio/pikupatsumukulupin.mp3,,,,,,,,,,,,,,,,,,,,,,,,,,,,,,,,,,,,,,,,,,,,,,,,,,,,,,,,,,,,,,,,,,,,,
,,,,,,,,,R_3CUu4ShV1RZM5Kj,2022-06-27_23h12.53.694,jpn_C01,2022.1.2,Win32,59.88382538,,,space,14.8929,0,8,8,43,1,プミ　ピク　ムク　ホレト,,,CartoonStims/cowboy_punch_chef_r_no.jpg,audio/pumipikumukuhoreto.mp3,,,,,,,,,,,,,,,,,,,,,,,,,,,,,,,,,,,,,,,,,,,,,,,,,,,,,,,,,,,,,,,,,,,,,
,,,,,,,,,R_3CUu4ShV1RZM5Kj,2022-06-27_23h12.53.694,jpn_C01,2022.1.2,Win32,59.88382538,,,space,3.9702,0,9,9,18,1,トマ　ピク　ムク　ドキ,,,CartoonStims/cowboy_point_boxer_r_no.jpg,audio/tomapikumukudoki.mp3,,,,,,,,,,,,,,,,,,,,,,,,,,,,,,,,,,,,,,,,,,,,,,,,,,,,,,,,,,,,,,,,,,,,,
,,,,,,,,,R_3CUu4ShV1RZM5Kj,2022-06-27_23h12.53.694,jpn_C01,2022.1.2,Win32,59.88382538,,,space,3.6313,0,10,10,42,1,ピク　プミ　ムク　ルピン,,,CartoonStims/cowboy_punch_burglar_r_no.jpg,audio/pikupumimukulupin.mp3,,,,,,,,,,,,,,,,,,,,,,,,,,,,,,,,,,,,,,,,,,,,,,,,,,,,,,,,,,,,,,,,,,,,,
,,,,,,,,,R_3CUu4ShV1RZM5Kj,2022-06-27_23h12.53.694,jpn_C01,2022.1.2,Win32,59.88382538,,,space,2.8383,0,11,11,36,1,ピク　プミ　シド　ピポ,,,CartoonStims/artist_punch_doctor_r_no.jpg,audio/pikupumisidopipo.mp3,,,,,,,,,,,,,,,,,,,,,,,,,,,,,,,,,,,,,,,,,,,,,,,,,,,,,,,,,,,,,,,,,,,,,
,,,,,,,,,R_3CUu4ShV1RZM5Kj,2022-06-27_23h12.53.694,jpn_C01,2022.1.2,Win32,59.88382538,,,space,5.4699,0,12,12,1,1,セル　ピク　シド　ホレト,,,CartoonStims/artist_kick_chef_r_no.jpg,audio/serupikusidohoreto.mp3,,,,,,,,,,,,,,,,,,,,,,,,,,,,,,,,,,,,,,,,,,,,,,,,,,,,,,,,,,,,,,,,,,,,,
,,,,,,,,,R_3CUu4ShV1RZM5Kj,2022-06-27_23h12.53.694,jpn_C01,2022.1.2,Win32,59.88382538,,,space,5.2789,0,13,13,34,1,パツ　ピク　ドキ　ホレト,,,CartoonStims/boxer_shoot_chef_r_no.jpg,audio/patsupikudokihoreto.mp3,,,,,,,,,,,,,,,,,,,,,,,,,,,,,,,,,,,,,,,,,,,,,,,,,,,,,,,,,,,,,,,,,,,,,
,,,,,,,,,R_3CUu4ShV1RZM5Kj,2022-06-27_23h12.53.694,jpn_C01,2022.1.2,Win32,59.88382538,,,space,3.7693,0,14,14,15,1,ピク　トマ　ルピン　ピポ,,,CartoonStims/burglar_point_doctor_r_no.jpg,audio/pikutomalupinpipo.mp3,,,,,,,,,,,,,,,,,,,,,,,,,,,,,,,,,,,,,,,,,,,,,,,,,,,,,,,,,,,,,,,,,,,,,
,,,,,,,,,R_3CUu4ShV1RZM5Kj,2022-06-27_23h12.53.694,jpn_C01,2022.1.2,Win32,59.88382538,,,space,3.0987,0,15,15,19,1,ピク　トマ　ムク　シド,,,CartoonStims/cowboy_point_artist_r_no.jpg,audio/pikutomamukusido.mp3,,,,,,,,,,,,,,,,,,,,,,,,,,,,,,,,,,,,,,,,,,,,,,,,,,,,,,,,,,,,,,,,,,,,,
,,,,,,,,,R_3CUu4ShV1RZM5Kj,2022-06-27_23h12.53.694,jpn_C01,2022.1.2,Win32,59.88382538,,,space,3.4827,0,16,16,30,1,パツ　ピク　ムク　シド,,,CartoonStims/cowboy_shoot_artist_r_no.jpg,audio/patsupikumukusido.mp3,,,,,,,,,,,,,,,,,,,,,,,,,,,,,,,,,,,,,,,,,,,,,,,,,,,,,,,,,,,,,,,,,,,,,
,,,,,,,,,R_3CUu4ShV1RZM5Kj,2022-06-27_23h12.53.694,jpn_C01,2022.1.2,Win32,59.88382538,,,space,3.6871,0,17,17,47,1,プミ　ピク　ドキ　ピポ,,,CartoonStims/boxer_punch_doctor_r_no.jpg,audio/pumipikudokipipo.mp3,,,,,,,,,,,,,,,,,,,,,,,,,,,,,,,,,,,,,,,,,,,,,,,,,,,,,,,,,,,,,,,,,,,,,
,,,,,,,,,R_3CUu4ShV1RZM5Kj,2022-06-27_23h12.53.694,jpn_C01,2022.1.2,Win32,59.88382538,,,space,3.0805,0,18,18,13,1,ピク　トマ　シド　ムク,,,CartoonStims/artist_point_cowboy_r_no.jpg,audio/pikutomasidomuku.mp3,,,,,,,,,,,,,,,,,,,,,,,,,,,,,,,,,,,,,,,,,,,,,,,,,,,,,,,,,,,,,,,,,,,,,
,,,,,,,,,R_3CUu4ShV1RZM5Kj,2022-06-27_23h12.53.694,jpn_C01,2022.1.2,Win32,59.88382538,,,space,3.5821,0,19,19,8,1,ピク　セル　ピポ　ドキ,,,CartoonStims/doctor_kick_boxer_r_no.jpg,audio/pikuserupipodoki.mp3,,,,,,,,,,,,,,,,,,,,,,,,,,,,,,,,,,,,,,,,,,,,,,,,,,,,,,,,,,,,,,,,,,,,,
,,,,,,,,,R_3CUu4ShV1RZM5Kj,2022-06-27_23h12.53.694,jpn_C01,2022.1.2,Win32,59.88382538,,,space,10.6301,0,20,20,14,1,トマ　ピク　ルピン　ムク,,,CartoonStims/burglar_point_cowboy_r_no.jpg,audio/tomapikulupinmuku.mp3,,,,,,,,,,,,,,,,,,,,,,,,,,,,,,,,,,,,,,,,,,,,,,,,,,,,,,,,,,,,,,,,,,,,,
,,,,,,,,,R_3CUu4ShV1RZM5Kj,2022-06-27_23h12.53.694,jpn_C01,2022.1.2,Win32,59.88382538,,,space,4.949,0,21,21,35,1,ピク　パツ　ドキ　ムク,,,CartoonStims/boxer_shoot_cowboy_r_no.jpg,audio/pikupatsudokimuku.mp3,,,,,,,,,,,,,,,,,,,,,,,,,,,,,,,,,,,,,,,,,,,,,,,,,,,,,,,,,,,,,,,,,,,,,
,,,,,,,,,R_3CUu4ShV1RZM5Kj,2022-06-27_23h12.53.694,jpn_C01,2022.1.2,Win32,59.88382538,,,space,5.6359,0,22,22,6,1,ピク　セル　ムク　ピポ,,,CartoonStims/cowboy_kick_doctor_r_no.jpg,audio/pikuserumukupipo.mp3,,,,,,,,,,,,,,,,,,,,,,,,,,,,,,,,,,,,,,,,,,,,,,,,,,,,,,,,,,,,,,,,,,,,,
,,,,,,,,,R_3CUu4ShV1RZM5Kj,2022-06-27_23h12.53.694,jpn_C01,2022.1.2,Win32,59.88382538,,,space,11.4236,0,23,23,5,1,セル　ピク　ホレト　ピポ,,,CartoonStims/chef_kick_doctor_r_no.jpg,audio/serupikuhoretopipo.mp3,,,,,,,,,,,,,,,,,,,,,,,,,,,,,,,,,,,,,,,,,,,,,,,,,,,,,,,,,,,,,,,,,,,,,
,,,,,,,,,R_3CUu4ShV1RZM5Kj,2022-06-27_23h12.53.694,jpn_C01,2022.1.2,Win32,59.88382538,,,space,8.0307,0,24,24,41,1,プミ　ピク　ホレト　ルピン,,,CartoonStims/chef_punch_burglar_r_no.jpg,audio/pumipikuhoretolupin.mp3,,,,,,,,,,,,,,,,,,,,,,,,,,,,,,,,,,,,,,,,,,,,,,,,,,,,,,,,,,,,,,,,,,,,,
,,,,,,,,,R_3CUu4ShV1RZM5Kj,2022-06-27_23h12.53.694,jpn_C01,2022.1.2,Win32,59.88382538,,,space,3.8381,0,25,25,21,1,ピク　トマ　ピポ　ルピン,,,CartoonStims/doctor_point_burglar_r_no.jpg,audio/pikutomapipolupin.mp3,,,,,,,,,,,,,,,,,,,,,,,,,,,,,,,,,,,,,,,,,,,,,,,,,,,,,,,,,,,,,,,,,,,,,
,,,,,,,,,R_3CUu4ShV1RZM5Kj,2022-06-27_23h12.53.694,jpn_C01,2022.1.2,Win32,59.88382538,,,space,4.0203,0,26,26,2,1,ピク　セル　ルピン　ホレト,,,CartoonStims/burglar_kick_chef_r_no.jpg,audio/pikuserulupinhoreto.mp3,,,,,,,,,,,,,,,,,,,,,,,,,,,,,,,,,,,,,,,,,,,,,,,,,,,,,,,,,,,,,,,,,,,,,
,,,,,,,,,R_3CUu4ShV1RZM5Kj,2022-06-27_23h12.53.694,jpn_C01,2022.1.2,Win32,59.88382538,,,space,2.9851,0,27,27,22,1,トマ　ピク　ドキ　ルピン,,,CartoonStims/boxer_point_burglar_r_no.jpg,audio/tomapikudokilupin.mp3,,,,,,,,,,,,,,,,,,,,,,,,,,,,,,,,,,,,,,,,,,,,,,,,,,,,,,,,,,,,,,,,,,,,,
,,,,,,,,,R_3CUu4ShV1RZM5Kj,2022-06-27_23h12.53.694,jpn_C01,2022.1.2,Win32,59.88382538,,,space,4.8559,0,28,28,20,1,トマ　ピク　ピポ　シド,,,CartoonStims/doctor_point_artist_r_no.jpg,audio/tomapikupiposido.mp3,,,,,,,,,,,,,,,,,,,,,,,,,,,,,,,,,,,,,,,,,,,,,,,,,,,,,,,,,,,,,,,,,,,,,
,,,,,,,,,R_3CUu4ShV1RZM5Kj,2022-06-27_23h12.53.694,jpn_C01,2022.1.2,Win32,59.88382538,,,space,6.1332,0,29,29,45,1,プミ　ピク　ピポ　ムク,,,CartoonStims/doctor_punch_cowboy_r_no.jpg,audio/pumipikupipomuku.mp3,,,,,,,,,,,,,,,,,,,,,,,,,,,,,,,,,,,,,,,,,,,,,,,,,,,,,,,,,,,,,,,,,,,,,
,,,,,,,,,R_3CUu4ShV1RZM5Kj,2022-06-27_23h12.53.694,jpn_C01,2022.1.2,Win32,59.88382538,,,space,7.3775,0,30,30,3,1,セル　ピク　ルピン　ムク,,,CartoonStims/burglar_kick_cowboy_r_no.jpg,audio/serupikulupinmuku.mp3,,,,,,,,,,,,,,,,,,,,,,,,,,,,,,,,,,,,,,,,,,,,,,,,,,,,,,,,,,,,,,,,,,,,,
,,,,,,,,,R_3CUu4ShV1RZM5Kj,2022-06-27_23h12.53.694,jpn_C01,2022.1.2,Win32,59.88382538,,,space,2.7553,0,31,31,25,1,ピク　パツ　シド　ピポ,,,CartoonStims/artist_shoot_doctor_r_no.jpg,audio/pikupatsusidopipo.mp3,,,,,,,,,,,,,,,,,,,,,,,,,,,,,,,,,,,,,,,,,,,,,,,,,,,,,,,,,,,,,,,,,,,,,
,,,,,,,,,R_3CUu4ShV1RZM5Kj,2022-06-27_23h12.53.694,jpn_C01,2022.1.2,Win32,59.88382538,,,space,2.8497,0,32,32,40,1,ピク　プミ　ホレト　シド,,,CartoonStims/chef_punch_artist_r_no.jpg,audio/pikupumihoretosido.mp3,,,,,,,,,,,,,,,,,,,,,,,,,,,,,,,,,,,,,,,,,,,,,,,,,,,,,,,,,,,,,,,,,,,,,
,,,,,,,,,R_3CUu4ShV1RZM5Kj,2022-06-27_23h12.53.694,jpn_C01,2022.1.2,Win32,59.88382538,,,space,3.5147,0,33,33,7,1,セル　ピク　ムク　ドキ,,,CartoonStims/cowboy_kick_boxer_r_no.jpg,audio/serupikumukudoki.mp3,,,,,,,,,,,,,,,,,,,,,,,,,,,,,,,,,,,,,,,,,,,,,,,,,,,,,,,,,,,,,,,,,,,,,
,,,,,,,,,R_3CUu4ShV1RZM5Kj,2022-06-27_23h12.53.694,jpn_C01,2022.1.2,Win32,59.88382538,,,space,4.5634,0,34,34,28,1,パツ　ピク　ホレト　ドキ,,,CartoonStims/chef_shoot_boxer_r_no.jpg,audio/patsupikuhoretodoki.mp3,,,,,,,,,,,,,,,,,,,,,,,,,,,,,,,,,,,,,,,,,,,,,,,,,,,,,,,,,,,,,,,,,,,,,
,,,,,,,,,R_3CUu4ShV1RZM5Kj,2022-06-27_23h12.53.694,jpn_C01,2022.1.2,Win32,59.88382538,,,space,4.5876,0,35,35,38,1,ピク　プミ　ルピン　ドキ,,,CartoonStims/burglar_punch_boxer_r_no.jpg,audio/pikupumilupindoki.mp3,,,,,,,,,,,,,,,,,,,,,,,,,,,,,,,,,,,,,,,,,,,,,,,,,,,,,,,,,,,,,,,,,,,,,
,,,,,,,,,R_3CUu4ShV1RZM5Kj,2022-06-27_23h12.53.694,jpn_C01,2022.1.2,Win32,59.88382538,,,space,5.0137,0,36,36,9,1,セル　ピク　ピポ　シド,,,CartoonStims/doctor_kick_artist_r_no.jpg,audio/serupikupiposido.mp3,,,,,,,,,,,,,,,,,,,,,,,,,,,,,,,,,,,,,,,,,,,,,,,,,,,,,,,,,,,,,,,,,,,,,
,,,,,,,,,R_3CUu4ShV1RZM5Kj,2022-06-27_23h12.53.694,jpn_C01,2022.1.2,Win32,59.88382538,,,space,3.9325,0,37,37,26,1,パツ　ピク　ルピン　ピポ,,,CartoonStims/burglar_shoot_doctor_r_no.jpg,audio/patsupikulupinpipo.mp3,,,,,,,,,,,,,,,,,,,,,,,,,,,,,,,,,,,,,,,,,,,,,,,,,,,,,,,,,,,,,,,,,,,,,
,,,,,,,,,R_3CUu4ShV1RZM5Kj,2022-06-27_23h12.53.694,jpn_C01,2022.1.2,Win32,59.88382538,,,space,4.1455,0,38,38,39,1,プミ　ピク　ルピン　シド,,,CartoonStims/burglar_punch_artist_r_no.jpg,audio/pumipikulupinsido.mp3,,,,,,,,,,,,,,,,,,,,,,,,,,,,,,,,,,,,,,,,,,,,,,,,,,,,,,,,,,,,,,,,,,,,,
,,,,,,,,,R_3CUu4ShV1RZM5Kj,2022-06-27_23h12.53.694,jpn_C01,2022.1.2,Win32,59.88382538,,,space,3.8875,0,39,39,10,1,ピク　セル　ドキ　シド,,,CartoonStims/boxer_kick_artist_r_no.jpg,audio/pikuserudokisido.mp3,,,,,,,,,,,,,,,,,,,,,,,,,,,,,,,,,,,,,,,,,,,,,,,,,,,,,,,,,,,,,,,,,,,,,
,,,,,,,,,R_3CUu4ShV1RZM5Kj,2022-06-27_23h12.53.694,jpn_C01,2022.1.2,Win32,59.88382538,,,space,3.8543,0,40,40,0,1,ピク　セル　シド　ルピン,,,CartoonStims/artist_kick_burglar_r_no.jpg,audio/pikuserusidolupin.mp3,,,,,,,,,,,,,,,,,,,,,,,,,,,,,,,,,,,,,,,,,,,,,,,,,,,,,,,,,,,,,,,,,,,,,
,,,,,,,,,R_3CUu4ShV1RZM5Kj,2022-06-27_23h12.53.694,jpn_C01,2022.1.2,Win32,59.88382538,,,space,6.2633,0,41,41,4,1,ピク　セル　ホレト　ムク,,,CartoonStims/chef_kick_cowboy_r_no.jpg,audio/pikuseruhoretomuku.mp3,,,,,,,,,,,,,,,,,,,,,,,,,,,,,,,,,,,,,,,,,,,,,,,,,,,,,,,,,,,,,,,,,,,,,
,,,,,,,,,R_3CUu4ShV1RZM5Kj,2022-06-27_23h12.53.694,jpn_C01,2022.1.2,Win32,59.88382538,,,space,3.9014,0,42,42,23,1,ピク　トマ　ドキ　ホレト,,,CartoonStims/boxer_point_chef_r_no.jpg,audio/pikutomadokihoreto.mp3,,,,,,,,,,,,,,,,,,,,,,,,,,,,,,,,,,,,,,,,,,,,,,,,,,,,,,,,,,,,,,,,,,,,,
,,,,,,,,,R_3CUu4ShV1RZM5Kj,2022-06-27_23h12.53.694,jpn_C01,2022.1.2,Win32,59.88382538,,,space,4.7104,0,43,43,46,1,ピク　プミ　ドキ　ムク,,,CartoonStims/boxer_punch_cowboy_r_no.jpg,audio/pikupumidokimuku.mp3,,,,,,,,,,,,,,,,,,,,,,,,,,,,,,,,,,,,,,,,,,,,,,,,,,,,,,,,,,,,,,,,,,,,,
,,,,,,,,,R_3CUu4ShV1RZM5Kj,2022-06-27_23h12.53.694,jpn_C01,2022.1.2,Win32,59.88382538,,,space,7.0014,0,44,44,27,1,ピク　パツ　ルピン　ドキ,,,CartoonStims/burglar_shoot_boxer_r_no.jpg,audio/pikupatsulupindoki.mp3,,,,,,,,,,,,,,,,,,,,,,,,,,,,,,,,,,,,,,,,,,,,,,,,,,,,,,,,,,,,,,,,,,,,,
,,,,,,,,,R_3CUu4ShV1RZM5Kj,2022-06-27_23h12.53.694,jpn_C01,2022.1.2,Win32,59.88382538,,,space,4.1061,0,45,45,32,1,パツ　ピク　ピポ　ルピン,,,CartoonStims/doctor_shoot_burglar_r_no.jpg,audio/patsupikupipolupin.mp3,,,,,,,,,,,,,,,,,,,,,,,,,,,,,,,,,,,,,,,,,,,,,,,,,,,,,,,,,,,,,,,,,,,,,
,,,,,,,,,R_3CUu4ShV1RZM5Kj,2022-06-27_23h12.53.694,jpn_C01,2022.1.2,Win32,59.88382538,,,space,3.7501,0,46,46,29,1,ピク　パツ　ホレト　シド,,,CartoonStims/chef_shoot_artist_r_no.jpg,audio/pikupatsuhoretosido.mp3,,,,,,,,,,,,,,,,,,,,,,,,,,,,,,,,,,,,,,,,,,,,,,,,,,,,,,,,,,,,,,,,,,,,,
,,,,,,,,,R_3CUu4ShV1RZM5Kj,2022-06-27_23h12.53.694,jpn_C01,2022.1.2,Win32,59.88382538,,,space,3.6366,0,47,47,24,1,パツ　ピク　シド　ムク,,,CartoonStims/artist_shoot_cowboy_r_no.jpg,audio/patsupikusidomuku.mp3,,,,,,,,,,,,,,,,,,,,,,,,,,,,,,,,,,,,,,,,,,,,,,,,,,,,,,,,,,,,,,,,,,,,,
,,,,,,,,,R_3CUu4ShV1RZM5Kj,2022-06-27_23h12.53.694,jpn_C01,2022.1.2,Win32,59.88382538,,,,,,,,,,,,,,,space,2.2877,left,0,5.7926,,,,,,,,,,,,,,,,,,,,,,,,,,,,,,,,,,,,,,,,,,,,,,,,,,,,,,,,,0,0,0,0,1,,,
,,,,,,,,,R_3CUu4ShV1RZM5Kj,2022-06-27_23h12.53.694,jpn_C01,2022.1.2,Win32,59.88382538,,,,,,,,,,,,,,,,,,,,,,,,,0,0,0,5,1,CartoonStims/boxer_kick_cowboy_r.jpg,ピク　セル　ドキ　ムク,CartoonStims/boxer_punch_cowboy_r.jpg,right,CartoonStims/boxer_punch_cowboy_r.jpg,audio/pikuserudokimuku.mp3,"残念！ こちらが正しい画像です。

否定文は起きていないことを示しているのを思い出してください。",,,,,,,,,,,,,,,,,,,,,,,,,,,,,,,,,,,,,,,,,,,,,,,
,,,,,,,,,R_3CUu4ShV1RZM5Kj,2022-06-27_23h12.53.694,jpn_C01,2022.1.2,Win32,59.88382538,,,,,,,,,,,,,,,,,right,1,7.0134,0,0,0,0,1,,,,,,,,,,,,,,,,,,,,,,,,,,,,,,,,,,,,,,,,,,,,,,,,,,,,,,,,,,,
,,,,,,,,,R_3CUu4ShV1RZM5Kj,2022-06-27_23h12.53.694,jpn_C01,2022.1.2,Win32,59.88382538,,,,,,,,,,,,,,,,,,,,,,,,,0,1,1,11,1,CartoonStims/chef_shoot_burglar_r.jpg,パツ　ピク　ホレト　ルピン,CartoonStims/chef_kick_burglar_r.jpg,right,CartoonStims/chef_kick_burglar_r.jpg,audio/patsupikuhoretolupin.mp3,"残念！ こちらが正しい画像です。

否定文は起きていないことを示しているのを思い出してください。",,,,,,,,,,,,,,,,,,,,,,,,,,,,,,,,,,,,,,,,,,,,,,,
,,,,,,,,,R_3CUu4ShV1RZM5Kj,2022-06-27_23h12.53.694,jpn_C01,2022.1.2,Win32,59.88382538,,,,,,,,,,,,,,,,,left,1,4.1818,,,,,,,,,,,,,,,,,,0,0,0,0,1,,,,,,,,,,,,,,,,,,,,,,,,,,,,,,,,,,,,,,,,,,
,,,,,,,,,R_3CUu4ShV1RZM5Kj,2022-06-27_23h12.53.694,jpn_C01,2022.1.2,Win32,59.88382538,,,,,,,,,,,,,,,,,,,,,,,,,0,2,2,10,1,CartoonStims/doctor_punch_cowboy_r.jpg,ピク　パツ　ピポ　ムク,CartoonStims/doctor_shoot_cowboy_r.jpg,left,CartoonStims/doctor_punch_cowboy_r.jpg,audio/pikupatsupipomuku.mp3,"残念！ こちらが正しい画像です。

否定文は起きていないことを示しているのを思い出してください。",,,,,,,,,,,,,,,,,,,,,,,,,,,,,,,,,,,,,,,,,,,,,,,
,,,,,,,,,R_3CUu4ShV1RZM5Kj,2022-06-27_23h12.53.694,jpn_C01,2022.1.2,Win32,59.88382538,,,,,,,,,,,,,,,,,right,1,2.8993,0,0,0,0,1,,,,,,,,,,,,,,,,,,,,,,,,,,,,,,,,,,,,,,,,,,,,,,,,,,,,,,,,,,,
,,,,,,,,,R_3CUu4ShV1RZM5Kj,2022-06-27_23h12.53.694,jpn_C01,2022.1.2,Win32,59.88382538,,,,,,,,,,,,,,,,,,,,,,,,,0,3,3,9,1,CartoonStims/boxer_shoot_doctor_r.jpg,パツ　ピク　ドキ　ピポ,CartoonStims/boxer_point_doctor_r.jpg,right,CartoonStims/boxer_point_doctor_r.jpg,audio/patsupikudokipipo.mp3,"残念！ こちらが正しい画像です。

否定文は起きていないことを示しているのを思い出してください。",,,,,,,,,,,,,,,,,,,,,,,,,,,,,,,,,,,,,,,,,,,,,,,
,,,,,,,,,R_3CUu4ShV1RZM5Kj,2022-06-27_23h12.53.694,jpn_C01,2022.1.2,Win32,59.88382538,,,,,,,,,,,,,,,,,right,1,3.2349,0,0,0,0,1,,,,,,,,,,,,,,,,,,,,,,,,,,,,,,,,,,,,,,,,,,,,,,,,,,,,,,,,,,,
,,,,,,,,,R_3CUu4ShV1RZM5Kj,2022-06-27_23h12.53.694,jpn_C01,2022.1.2,Win32,59.88382538,,,,,,,,,,,,,,,,,,,,,,,,,0,4,4,7,1,CartoonStims/cowboy_point_chef_r.jpg,ピク　トマ　ムク　ホレト,CartoonStims/cowboy_kick_chef_r.jpg,right,CartoonStims/cowboy_kick_chef_r.jpg,audio/pikutomamukuhoreto.mp3,"残念！ こちらが正しい画像です。

否定文は起きていないことを示しているのを思い出してください。",,,,,,,,,,,,,,,,,,,,,,,,,,,,,,,,,,,,,,,,,,,,,,,
,,,,,,,,,R_3CUu4ShV1RZM5Kj,2022-06-27_23h12.53.694,jpn_C01,2022.1.2,Win32,59.88382538,,,,,,,,,,,,,,,,,right,1,1.5164,0,0,0,0,1,,,,,,,,,,,,,,,,,,,,,,,,,,,,,,,,,,,,,,,,,,,,,,,,,,,,,,,,,,,
,,,,,,,,,R_3CUu4ShV1RZM5Kj,2022-06-27_23h12.53.694,jpn_C01,2022.1.2,Win32,59.88382538,,,,,,,,,,,,,,,,,,,,,,,,,0,5,5,3,1,CartoonStims/chef_kick_artist_r.jpg,ピク　セル　ホレト　シド,CartoonStims/chef_point_artist_r.jpg,right,CartoonStims/chef_point_artist_r.jpg,audio/pikuseruhoretosido.mp3,"残念！ こちらが正しい画像です。

否定文は起きていないことを示しているのを思い出してください。",,,,,,,,,,,,,,,,,,,,,,,,,,,,,,,,,,,,,,,,,,,,,,,
,,,,,,,,,R_3CUu4ShV1RZM5Kj,2022-06-27_23h12.53.694,jpn_C01,2022.1.2,Win32,59.88382538,,,,,,,,,,,,,,,,,left,1,1.5195,,,,,,,,,,,,,,,,,,0,0,0,0,1,,,,,,,,,,,,,,,,,,,,,,,,,,,,,,,,,,,,,,,,,,
,,,,,,,,,R_3CUu4ShV1RZM5Kj,2022-06-27_23h12.53.694,jpn_C01,2022.1.2,Win32,59.88382538,,,,,,,,,,,,,,,,,,,,,,,,,0,6,6,8,1,CartoonStims/burglar_punch_artist_r.jpg,トマ　ピク　ルピン　シド,CartoonStims/burglar_point_artist_r.jpg,left,CartoonStims/burglar_punch_artist_r.jpg,audio/tomapikulupinsido.mp3,"残念！ こちらが正しい画像です。

否定文は起きていないことを示しているのを思い出してください。",,,,,,,,,,,,,,,,,,,,,,,,,,,,,,,,,,,,,,,,,,,,,,,
,,,,,,,,,R_3CUu4ShV1RZM5Kj,2022-06-27_23h12.53.694,jpn_C01,2022.1.2,Win32,59.88382538,,,,,,,,,,,,,,,,,left,1,3.5996,,,,,,,,,,,,,,,,,,0,0,0,0,1,,,,,,,,,,,,,,,,,,,,,,,,,,,,,,,,,,,,,,,,,,
,,,,,,,,,R_3CUu4ShV1RZM5Kj,2022-06-27_23h12.53.694,jpn_C01,2022.1.2,Win32,59.88382538,,,,,,,,,,,,,,,,,,,,,,,,,0,7,7,2,1,CartoonStims/doctor_point_boxer_r.jpg,ピク　プミ　ピポ　ドキ,CartoonStims/doctor_punch_boxer_r.jpg,left,CartoonStims/doctor_point_boxer_r.jpg,audio/pikupumipipodoki.mp3,"残念！ こちらが正しい画像です。

否定文は起きていないことを示しているのを思い出してください。",,,,,,,,,,,,,,,,,,,,,,,,,,,,,,,,,,,,,,,,,,,,,,,
,,,,,,,,,R_3CUu4ShV1RZM5Kj,2022-06-27_23h12.53.694,jpn_C01,2022.1.2,Win32,59.88382538,,,,,,,,,,,,,,,,,left,1,2.9809,,,,,,,,,,,,,,,,,,0,0,0,0,1,,,,,,,,,,,,,,,,,,,,,,,,,,,,,,,,,,,,,,,,,,
,,,,,,,,,R_3CUu4ShV1RZM5Kj,2022-06-27_23h12.53.694,jpn_C01,2022.1.2,Win32,59.88382538,,,,,,,,,,,,,,,,,,,,,,,,,0,8,8,0,1,CartoonStims/artist_shoot_burglar_r.jpg,ピク　プミ　シド　ルピン,CartoonStims/artist_punch_burglar_r.jpg,left,CartoonStims/artist_shoot_burglar_r.jpg,audio/pikupumisidolupin.mp3,"残念！ こちらが正しい画像です。

否定文は起きていないことを示しているのを思い出してください。",,,,,,,,,,,,,,,,,,,,,,,,,,,,,,,,,,,,,,,,,,,,,,,
,,,,,,,,,R_3CUu4ShV1RZM5Kj,2022-06-27_23h12.53.694,jpn_C01,2022.1.2,Win32,59.88382538,,,,,,,,,,,,,,,,,right,1,5.5983,0,0,0,0,1,,,,,,,,,,,,,,,,,,,,,,,,,,,,,,,,,,,,,,,,,,,,,,,,,,,,,,,,,,,
,,,,,,,,,R_3CUu4ShV1RZM5Kj,2022-06-27_23h12.53.694,jpn_C01,2022.1.2,Win32,59.88382538,,,,,,,,,,,,,,,,,,,,,,,,,0,9,9,1,1,CartoonStims/chef_punch_cowboy_r.jpg,プミ　ピク　ホレト　ムク,CartoonStims/chef_kick_cowboy_r.jpg,right,CartoonStims/chef_kick_cowboy_r.jpg,audio/pumipikuhoretomuku.mp3,"残念！ こちらが正しい画像です。

否定文は起きていないことを示しているのを思い出してください。",,,,,,,,,,,,,,,,,,,,,,,,,,,,,,,,,,,,,,,,,,,,,,,
,,,,,,,,,R_3CUu4ShV1RZM5Kj,2022-06-27_23h12.53.694,jpn_C01,2022.1.2,Win32,59.88382538,,,,,,,,,,,,,,,,,left,1,1.7975,,,,,,,,,,,,,,,,,,0,0,0,0,1,,,,,,,,,,,,,,,,,,,,,,,,,,,,,,,,,,,,,,,,,,
,,,,,,,,,R_3CUu4ShV1RZM5Kj,2022-06-27_23h12.53.694,jpn_C01,2022.1.2,Win32,59.88382538,,,,,,,,,,,,,,,,,,,,,,,,,0,10,10,6,1,CartoonStims/artist_shoot_boxer_r.jpg,トマ　ピク　シド　ドキ,CartoonStims/artist_point_boxer_r.jpg,left,CartoonStims/artist_shoot_boxer_r.jpg,audio/tomapikusidodoki.mp3,"残念！ こちらが正しい画像です。

否定文は起きていないことを示しているのを思い出してください。",,,,,,,,,,,,,,,,,,,,,,,,,,,,,,,,,,,,,,,,,,,,,,,
,,,,,,,,,R_3CUu4ShV1RZM5Kj,2022-06-27_23h12.53.694,jpn_C01,2022.1.2,Win32,59.88382538,,,,,,,,,,,,,,,,,left,1,2.0334,,,,,,,,,,,,,,,,,,0,0,0,0,1,,,,,,,,,,,,,,,,,,,,,,,,,,,,,,,,,,,,,,,,,,
,,,,,,,,,R_3CUu4ShV1RZM5Kj,2022-06-27_23h12.53.694,jpn_C01,2022.1.2,Win32,59.88382538,,,,,,,,,,,,,,,,,,,,,,,,,0,11,11,4,1,CartoonStims/burglar_shoot_doctor_r.jpg,セル　ピク　ルピン　ピポ,CartoonStims/burglar_kick_doctor_r.jpg,left,CartoonStims/burglar_shoot_doctor_r.jpg,audio/serupikulupinpipo.mp3,"残念！ こちらが正しい画像です。

否定文は起きていないことを示しているのを思い出してください。",,,,,,,,,,,,,,,,,,,,,,,,,,,,,,,,,,,,,,,,,,,,,,,
,,,,,,,,,R_3CUu4ShV1RZM5Kj,2022-06-27_23h12.53.694,jpn_C01,2022.1.2,Win32,59.88382538,,,,,,,,,,,,,CartoonStims/artist_point_burglar_r_no.jpg,,,,,,,,,,,,,,,,,,,,,,,,,,,,,space,14.1769,ピク　トマ　シド　ルピン,right,38.348,,,,,,0,0,0,6,1,,,,,,,,,,,,,,,,,,,,,,,,,ピク　トマ　シド　ルピン,トマ　ピク　シド　ルピン,1
,,,,,,,,,R_3CUu4ShV1RZM5Kj,2022-06-27_23h12.53.694,jpn_C01,2022.1.2,Win32,59.88382538,,,,,,,,,,,,,CartoonStims/burglar_point_artist_r.jpg,,,,,,,,,,,,,,,,,,,,,,,,,,,,,,,トマ　ルピン　シド,right,15.5876,,,,,,0,1,1,28,1,,,,,,,,,,,,,,,,,,,,,,,,,トマ　ルピン　シド,トマ　ルピン　シド,0
,,,,,,,,,R_3CUu4ShV1RZM5Kj,2022-06-27_23h12.53.694,jpn_C01,2022.1.2,Win32,59.88382538,,,,,,,,,,,,,CartoonStims/artist_punch_burglar_r.jpg,,,,,,,,,,,,,,,,,,,,,,,,,,,,,,,プミ　シド　ルピン,right,11.802,,,,,,0,2,2,33,1,,,,,,,,,,,,,,,,,,,,,,,,,プミ　シド　ルピン,プミ　シド　ルピン,0
,,,,,,,,,R_3CUu4ShV1RZM5Kj,2022-06-27_23h12.53.694,jpn_C01,2022.1.2,Win32,59.88382538,,,,,,,,,,,,,CartoonStims/doctor_kick_cowboy_r_no.jpg,,,,,,,,,,,,,,,,,,,,,,,,,,,,,,,ピク　セル　ピポ　ムク,right,16.9329,,,,,,0,3,3,4,1,,,,,,,,,,,,,,,,,,,,,,,,,ピク　セル　ピポ　ムク,セル　ピク　ピポ　ムク,1
,,,,,,,,,R_3CUu4ShV1RZM5Kj,2022-06-27_23h12.53.694,jpn_C01,2022.1.2,Win32,59.88382538,,,,,,,,,,,,,CartoonStims/cowboy_shoot_boxer_r_no.jpg,,,,,,,,,,,,,,,,,,,,,,,,,,,,,,,パツ　ピク　ムク　ドキ,right,19.7367,,,,,,0,4,4,15,1,,,,,,,,,,,,,,,,,,,,,,,,,ピク　パツ　ムク　ドキ,パツ　ピク　ムク　ドキ,1
,,,,,,,,,R_3CUu4ShV1RZM5Kj,2022-06-27_23h12.53.694,jpn_C01,2022.1.2,Win32,59.88382538,,,,,,,,,,,,,CartoonStims/chef_point_burglar_r.jpg,,,,,,,,,,,,,,,,,,,,,,,,,,,,,,,トマ　ホレト　ルピン,right,11.6553,,,,,,0,5,5,29,1,,,,,,,,,,,,,,,,,,,,,,,,,トマ　ホレト　ルピン,トマ　ホレト　ルピン,0
,,,,,,,,,R_3CUu4ShV1RZM5Kj,2022-06-27_23h12.53.694,jpn_C01,2022.1.2,Win32,59.88382538,,,,,,,,,,,,,CartoonStims/artist_shoot_chef_r_no.jpg,,,,,,,,,,,,,,,,,,,,,,,,,,,,,,,パツ　ピク　シド　ホレト,right,15.3678,,,,,,0,6,6,12,1,,,,,,,,,,,,,,,,,,,,,,,,,ピク　パツ　シド　ホレト,パツ　ピク　シド　ホレト,1
,,,,,,,,,R_3CUu4ShV1RZM5Kj,2022-06-27_23h12.53.694,jpn_C01,2022.1.2,Win32,59.88382538,,,,,,,,,,,,,CartoonStims/boxer_punch_artist_r.jpg,,,,,,,,,,,,,,,,,,,,,,,,,,,,,,,プミ　ドキ　シド,right,9.104,,,,,,0,7,7,35,1,,,,,,,,,,,,,,,,,,,,,,,,,プミ　ドキ　シド,プミ　ドキ　シド,0
,,,,,,,,,R_3CUu4ShV1RZM5Kj,2022-06-27_23h12.53.694,jpn_C01,2022.1.2,Win32,59.88382538,,,,,,,,,,,,,CartoonStims/chef_kick_burglar_r_no.jpg,,,,,,,,,,,,,,,,,,,,,,,,,,,,,,,ピク　セル　ホレト　ルピン,right,10.7306,,,,,,0,8,8,2,1,,,,,,,,,,,,,,,,,,,,,,,,,ピク　セル　ホレト　ルピン,セル　ピク　ホレト　ルピン,1
,,,,,,,,,R_3CUu4ShV1RZM5Kj,2022-06-27_23h12.53.694,jpn_C01,2022.1.2,Win32,59.88382538,,,,,,,,,,,,,CartoonStims/boxer_punch_chef_r_no.jpg,,,,,,,,,,,,,,,,,,,,,,,,,,,,,,,プミ　ピク　ドキ　ホレト,right,19.0149,,,,,,0,9,9,23,1,,,,,,,,,,,,,,,,,,,,,,,,,ピク　プミ　ドキ　ホレト,プミ　ピク　ドキ　ホレト,1
,,,,,,,,,R_3CUu4ShV1RZM5Kj,2022-06-27_23h12.53.694,jpn_C01,2022.1.2,Win32,59.88382538,,,,,,,,,,,,,CartoonStims/artist_kick_boxer_r_no.jpg,,,,,,,,,,,,,,,,,,,,,,,,,,,,,,,セル　ピク　シド　ドキ,right,10.7688,,,,,,0,10,10,0,1,,,,,,,,,,,,,,,,,,,,,,,,,ピク　セル　シド　ドキ,セル　ピク　シド　ドキ,1
,,,,,,,,,R_3CUu4ShV1RZM5Kj,2022-06-27_23h12.53.694,jpn_C01,2022.1.2,Win32,59.88382538,,,,,,,,,,,,,CartoonStims/boxer_kick_cowboy_r.jpg,,,,,,,,,,,,,,,,,,,,,,,,,,,,,,,セル　ドキ　ムク,right,6.6334,,,,,,0,11,11,26,1,,,,,,,,,,,,,,,,,,,,,,,,,セル　ドキ　ムク,セル　ドキ　ムク,0
,,,,,,,,,R_3CUu4ShV1RZM5Kj,2022-06-27_23h12.53.694,jpn_C01,2022.1.2,Win32,59.88382538,,,,,,,,,,,,,CartoonStims/chef_point_cowboy_r_no.jpg,,,,,,,,,,,,,,,,,,,,,,,,,,,,,,,トマ　ピク　ホレト　ムク,right,15.5379,,,,,,0,12,12,8,1,,,,,,,,,,,,,,,,,,,,,,,,,ピク　トマ　ホレト　ムク,トマ　ピク　ホレト　ムク,1
,,,,,,,,,R_3CUu4ShV1RZM5Kj,2022-06-27_23h12.53.694,jpn_C01,2022.1.2,Win32,59.88382538,,,,,,,,,,,,,CartoonStims/chef_punch_boxer_r_no.jpg,,,,,,,,,,,,,,,,,,,,,,,,,,,,,,,プミ　ピク　ホレト　ドキ,right,24.3792,,,,,,0,13,13,20,1,,,,,,,,,,,,,,,,,,,,,,,,,ピク　プミ　ホレト　ドキ,プミ　ピク　ホレト　ドキ,1
,,,,,,,,,R_3CUu4ShV1RZM5Kj,2022-06-27_23h12.53.694,jpn_C01,2022.1.2,Win32,59.88382538,,,,,,,,,,,,,CartoonStims/cowboy_punch_artist_r_no.jpg,,,,,,,,,,,,,,,,,,,,,,,,,,,,,,,プミ　ピク　ムク　シド,right,10.7376,,,,,,0,14,14,21,1,,,,,,,,,,,,,,,,,,,,,,,,,ピク　プミ　ムク　シド,プミ　ピク　ムク　シド,1
,,,,,,,,,R_3CUu4ShV1RZM5Kj,2022-06-27_23h12.53.694,jpn_C01,2022.1.2,Win32,59.88382538,,,,,,,,,,,,,CartoonStims/doctor_punch_burglar_r_no.jpg,,,,,,,,,,,,,,,,,,,,,,,,,,,,,,,プミ　ピク　ピポ　ルピン,right,12.5991,,,,,,0,15,15,22,1,,,,,,,,,,,,,,,,,,,,,,,,,ピク　プミ　ピポ　ルピン,プミ　ピク　ピポ　ルピン,1
,,,,,,,,,R_3CUu4ShV1RZM5Kj,2022-06-27_23h12.53.694,jpn_C01,2022.1.2,Win32,59.88382538,,,,,,,,,,,,,CartoonStims/doctor_point_boxer_r_no.jpg,,,,,,,,,,,,,,,,,,,,,,,,,,,,,,,トマ　ピク　ピポ　ドキ,right,17.7013,,,,,,0,16,16,10,1,,,,,,,,,,,,,,,,,,,,,,,,,ピク　トマ　ピポ　ドキ,トマ　ピク　ピポ　ドキ,1
,,,,,,,,,R_3CUu4ShV1RZM5Kj,2022-06-27_23h12.53.694,jpn_C01,2022.1.2,Win32,59.88382538,,,,,,,,,,,,,CartoonStims/burglar_shoot_cowboy_r_no.jpg,,,,,,,,,,,,,,,,,,,,,,,,,,,,,,,パツ　ピク　ルピン　ムク,right,9.5586,,,,,,0,17,17,13,1,,,,,,,,,,,,,,,,,,,,,,,,,ピク　パツ　ルピン　ムク,パツ　ピク　ルピン　ムク,1
,,,,,,,,,R_3CUu4ShV1RZM5Kj,2022-06-27_23h12.53.694,jpn_C01,2022.1.2,Win32,59.88382538,,,,,,,,,,,,,CartoonStims/doctor_kick_chef_r.jpg,,,,,,,,,,,,,,,,,,,,,,,,,,,,,,,セル　ピポ　ホレト,right,11.5404,,,,,,0,18,18,25,1,,,,,,,,,,,,,,,,,,,,,,,,,セル　ピポ　ホレト,セル　ピポ　ホレト,0
,,,,,,,,,R_3CUu4ShV1RZM5Kj,2022-06-27_23h12.53.694,jpn_C01,2022.1.2,Win32,59.88382538,,,,,,,,,,,,,CartoonStims/doctor_shoot_artist_r_no.jpg,,,,,,,,,,,,,,,,,,,,,,,,,,,,,,,パツ　ピク　ピポ　シド,right,13.4222,,,,,,0,19,19,16,1,,,,,,,,,,,,,,,,,,,,,,,,,ピク　パツ　ピポ　シド,パツ　ピク　ピポ　シド,1
,,,,,,,,,R_3CUu4ShV1RZM5Kj,2022-06-27_23h12.53.694,jpn_C01,2022.1.2,Win32,59.88382538,,,,,,,,,,,,,CartoonStims/artist_punch_cowboy_r_no.jpg,,,,,,,,,,,,,,,,,,,,,,,,,,,,,,,プミ　ピク　シド　ムク,right,8.4935,,,,,,0,20,20,18,1,,,,,,,,,,,,,,,,,,,,,,,,,ピク　プミ　シド　ムク,プミ　ピク　シド　ムク,1
,,,,,,,,,R_3CUu4ShV1RZM5Kj,2022-06-27_23h12.53.694,jpn_C01,2022.1.2,Win32,59.88382538,,,,,,,,,,,,,CartoonStims/cowboy_kick_burglar_r.jpg,,,,,,,,,,,,,,,,,,,,,,,,,,,,,,,セル　ムク　ルピン,right,7.7755,,,,,,0,21,21,24,1,,,,,,,,,,,,,,,,,,,,,,,,,セル　ムク　ルピン,セル　ムク　ルピン,0
,,,,,,,,,R_3CUu4ShV1RZM5Kj,2022-06-27_23h12.53.694,jpn_C01,2022.1.2,Win32,59.88382538,,,,,,,,,,,,,CartoonStims/burglar_point_chef_r_no.jpg,,,,,,,,,,,,,,,,,,,,,,,,,,,,,,,ピク　トマ　ルピン　ホレト,right,15.2056,,,,,,0,22,22,7,1,,,,,,,,,,,,,,,,,,,,,,,,,ピク　トマ　ルピン　ホレト,トマ　ピク　ルピン　ホレト,1
,,,,,,,,,R_3CUu4ShV1RZM5Kj,2022-06-27_23h12.53.694,jpn_C01,2022.1.2,Win32,59.88382538,,,,,,,,,,,,,CartoonStims/chef_shoot_doctor_r_no.jpg,,,,,,,,,,,,,,,,,,,,,,,,,,,,,,,パツ　ピク　ホレト　ピポ,right,26.6037,,,,,,0,23,23,14,1,,,,,,,,,,,,,,,,,,,,,,,,,ピク　パツ　ホレト　ピポ,パツ　ピク　ホレト　ピポ,1
,,,,,,,,,R_3CUu4ShV1RZM5Kj,2022-06-27_23h12.53.694,jpn_C01,2022.1.2,Win32,59.88382538,,,,,,,,,,,,,CartoonStims/doctor_punch_boxer_r.jpg,,,,,,,,,,,,,,,,,,,,,,,,,,,,,,,プミ　ピポ　ドキ,right,10.9923,,,,,,0,24,24,34,1,,,,,,,,,,,,,,,,,,,,,,,,,プミ　ピポ　ドキ,プミ　ピポ　ドキ,0
,,,,,,,,,R_3CUu4ShV1RZM5Kj,2022-06-27_23h12.53.694,jpn_C01,2022.1.2,Win32,59.88382538,,,,,,,,,,,,,CartoonStims/chef_shoot_cowboy_r.jpg,,,,,,,,,,,,,,,,,,,,,,,,,,,,,,,パツ　ホレト　ムク,right,12.6212,,,,,,0,25,25,31,1,,,,,,,,,,,,,,,,,,,,,,,,,パツ　ホレト　ムク,パツ　ホレト　ムク,0
,,,,,,,,,R_3CUu4ShV1RZM5Kj,2022-06-27_23h12.53.694,jpn_C01,2022.1.2,Win32,59.88382538,,,,,,,,,,,,,CartoonStims/cowboy_shoot_doctor_r.jpg,,,,,,,,,,,,,,,,,,,,,,,,,,,,,,,パツ　ムク　ピポ,right,11.9176,,,,,,0,26,26,32,1,,,,,,,,,,,,,,,,,,,,,,,,,パツ　ムク　ピポ,パツ　ムク　ピポ,0
,,,,,,,,,R_3CUu4ShV1RZM5Kj,2022-06-27_23h12.53.694,jpn_C01,2022.1.2,Win32,59.88382538,,,,,,,,,,,,,CartoonStims/boxer_point_artist_r_no.jpg,,,,,,,,,,,,,,,,,,,,,,,,,,,,,,,ピク　トマ　ドキ　シド,right,13.4882,,,,,,0,27,27,11,1,,,,,,,,,,,,,,,,,,,,,,,,,ピク　トマ　ドキ　シド,トマ　ピク　ドキ　シド,1
,,,,,,,,,R_3CUu4ShV1RZM5Kj,2022-06-27_23h12.53.694,jpn_C01,2022.1.2,Win32,59.88382538,,,,,,,,,,,,,CartoonStims/cowboy_point_doctor_r_no.jpg,,,,,,,,,,,,,,,,,,,,,,,,,,,,,,,ピク　トマ　ムク　ピポ,right,10.4183,,,,,,0,28,28,9,1,,,,,,,,,,,,,,,,,,,,,,,,,ピク　トマ　ムク　ピポ,トマ　ピク　ムク　ピポ,1
,,,,,,,,,R_3CUu4ShV1RZM5Kj,2022-06-27_23h12.53.694,jpn_C01,2022.1.2,Win32,59.88382538,,,,,,,,,,,,,CartoonStims/burglar_punch_doctor_r_no.jpg,,,,,,,,,,,,,,,,,,,,,,,,,,,,,,,プミ　ピク　ルピン　ピポ,right,21.6201,,,,,,0,29,29,19,1,,,,,,,,,,,,,,,,,,,,,,,,,ピク　プミ　ルピン　ピポ,プミ　ピク　ルピン　ピポ,1
,,,,,,,,,R_3CUu4ShV1RZM5Kj,2022-06-27_23h12.53.694,jpn_C01,2022.1.2,Win32,59.88382538,,,,,,,,,,,,,CartoonStims/burglar_kick_artist_r_no.jpg,,,,,,,,,,,,,,,,,,,,,,,,,,,,,,,トマ　ピク　ルピン　シド,right,15.0205,,,,,,0,30,30,1,1,,,,,,,,,,,,,,,,,,,,,,,,,ピク　セル　ルピン　シド,セル　ピク　ルピン　シド,1
,,,,,,,,,R_3CUu4ShV1RZM5Kj,2022-06-27_23h12.53.694,jpn_C01,2022.1.2,Win32,59.88382538,,,,,,,,,,,,,CartoonStims/boxer_kick_doctor_r_no.jpg,,,,,,,,,,,,,,,,,,,,,,,,,,,,,,,トマ　ピク　ドキ　ピポ,right,11.3406,,,,,,0,31,31,5,1,,,,,,,,,,,,,,,,,,,,,,,,,ピク　セル　ドキ　ピポ,セル　ピク　ドキ　ピポ,1
,,,,,,,,,R_3CUu4ShV1RZM5Kj,2022-06-27_23h12.53.694,jpn_C01,2022.1.2,Win32,59.88382538,,,,,,,,,,,,,CartoonStims/cowboy_kick_chef_r_no.jpg,,,,,,,,,,,,,,,,,,,,,,,,,,,,,,,ピク　セル　ムク　ホレト,right,18.3655,,,,,,0,32,32,3,1,,,,,,,,,,,,,,,,,,,,,,,,,ピク　セル　ムク　ホレト,セル　ピク　ムク　ホレト,1
,,,,,,,,,R_3CUu4ShV1RZM5Kj,2022-06-27_23h12.53.694,jpn_C01,2022.1.2,Win32,59.88382538,,,,,,,,,,,,,CartoonStims/artist_point_boxer_r.jpg,,,,,,,,,,,,,,,,,,,,,,,,,,,,,,,トマ　シド　ドキ,right,12.0591,,,,,,0,33,33,27,1,,,,,,,,,,,,,,,,,,,,,,,,,トマ　シド　ドキ,トマ　シド　ドキ,0
,,,,,,,,,R_3CUu4ShV1RZM5Kj,2022-06-27_23h12.53.694,jpn_C01,2022.1.2,Win32,59.88382538,,,,,,,,,,,,,CartoonStims/burglar_shoot_chef_r.jpg,,,,,,,,,,,,,,,,,,,,,,,,,,,,,,,パツ　ルピン　ホレト,right,8.2511,,,,,,0,34,34,30,1,,,,,,,,,,,,,,,,,,,,,,,,,パツ　ルピン　ホレト,パツ　ルピン　ホレト,0
,,,,,,,,,R_3CUu4ShV1RZM5Kj,2022-06-27_23h12.53.694,jpn_C01,2022.1.2,Win32,59.88382538,,,,,,,,,,,,,CartoonStims/boxer_shoot_burglar_r_no.jpg,,,,,,,,,,,,,,,,,,,,,,,,,,,,,,,パツ　ピク　ドキ　ルピン,right,14.1882,,,,,,0,35,35,17,1,,,,,,,,,,,,,,,,,,,,,,,,,ピク　パツ　ドキ　ルピン,パツ　ピク　ドキ　ルピン,1
,,,,,,,,,R_3CUu4ShV1RZM5Kj,2022-06-27_23h12.53.694,jpn_C01,2022.1.2,Win32,59.88382538,,,,,,,,,,,,,,,,,,,,,,,,,,,,,,,,,,,,,,,,,,,,,,,,,,,,,,,,,,,space,1.7351,0,2,2,2,1,EquiprobableCondition.xlsx,"ここではこの言語における否定の文を学習していただきます。引き続き注意して、 聞こえた音を復唱してください。

スペースキーを押してください。",1,EquiFCT.xlsx,ここからクイズが始まります。 スクリーンに表示されるテキストに合うイメージを選んでください。,NegTest.xlsx,1,最後にここまで学んだことをアウトプットしていただきます。 テキストボックスにあるイメージを描写するテキストを入力してください。 このタスクでは、 答え合わせは行いません。,0,これですべての実験が終わりました。 お疲れさまです。 この後はアンケートに答えていただきます。,,,,,,,,