key_resp_instr_a.keys,key_resp_instr_a.rt,key_resp_instr_b.keys,key_resp_instr_b.rt,dummy.thisRepN,dummy.thisTrialN,dummy.thisN,dummy.thisIndex,dummy.ran,participant,date,expName,psychopyVersion,OS,frameRate,key_resp_instr1.keys,key_resp_instr1.rt,key_resp.keys,key_resp.rt,exp_loop.thisRepN,exp_loop.thisTrialN,exp_loop.thisN,exp_loop.thisIndex,exp_loop.ran,Word,English,Flip,Path,Audio,key_resp_instr2.keys,key_resp_instr2.rt,key_resp_fct.keys,key_resp_fct.corr,key_resp_fct.rt,trials.thisRepN,trials.thisTrialN,trials.thisN,trials.thisIndex,trials.ran,fct_loop.thisRepN,fct_loop.thisTrialN,fct_loop.thisN,fct_loop.thisIndex,fct_loop.ran,left_img,word,right_img,correctans,correct_img,audio,incorrect_feedback,trials_2.thisRepN,trials_2.thisTrialN,trials_2.thisN,trials_2.thisIndex,trials_2.ran,key_resp_instr3.keys,key_resp_instr3.rt,textbox.text,key_resp_2.keys,key_resp_2.rt,fb_yn.thisRepN,fb_yn.thisTrialN,fb_yn.thisN,fb_yn.thisIndex,fb_yn.ran,gather_loop.thisRepN,gather_loop.thisTrialN,gather_loop.thisN,gather_loop.thisIndex,gather_loop.ran,Text,Wordbank,key_resp_instr4.keys,key_resp_instr4.rt,master_loop.thisRepN,master_loop.thisTrialN,master_loop.thisN,master_loop.thisIndex,master_loop.ran,exposure_file,instr_1,exp_reps,fct_file,instr_2,gather_file,gather_reps,instr_3,fReps,instr_4,trials_3.thisRepN,trials_3.thisTrialN,trials_3.thisN,trials_3.thisIndex,trials_3.ran,NegVSentence,VNegSentence,NegTF
space,6.2518,space,10.3222,0,0,0,0,1,R_1FCZLEFCbFnDxak,2022-07-09_17h00.05.591,jpn_C02,2022.1.2,Win32,59.44596362,,,,,,,,,,,,,,,,,,,,,,,,,,,,,,,,,,,,,,,,,,,,,,,,,,,,,,,,,,,,,,,,,,,,,,,,,,,,,,,,,,,
,,,,,,,,,R_1FCZLEFCbFnDxak,2022-07-09_17h00.05.591,jpn_C02,2022.1.2,Win32,59.44596362,space,5.125,space,2.7559,0,0,0,4,1,ピポ,doctor,,CartoonStims/doctor_r.jpg,audio/pipo.mp3,,,,,,,,,,,,,,,,,,,,,,,,,,,,,,,,,,,,,,,,,,,,,,,,,,,,,,,,,,,,,,,,,,,,,
,,,,,,,,,R_1FCZLEFCbFnDxak,2022-07-09_17h00.05.591,jpn_C02,2022.1.2,Win32,59.44596362,,,space,4.5872,0,1,1,1,1,ルピン,burglar,,CartoonStims/burglar_r.jpg,audio/lupin.mp3,,,,,,,,,,,,,,,,,,,,,,,,,,,,,,,,,,,,,,,,,,,,,,,,,,,,,,,,,,,,,,,,,,,,,
,,,,,,,,,R_1FCZLEFCbFnDxak,2022-07-09_17h00.05.591,jpn_C02,2022.1.2,Win32,59.44596362,,,space,4.928,0,2,2,3,1,ムク,cowboy,,CartoonStims/cowboy_r.jpg,audio/muku.mp3,,,,,,,,,,,,,,,,,,,,,,,,,,,,,,,,,,,,,,,,,,,,,,,,,,,,,,,,,,,,,,,,,,,,,
,,,,,,,,,R_1FCZLEFCbFnDxak,2022-07-09_17h00.05.591,jpn_C02,2022.1.2,Win32,59.44596362,,,space,8.7641,0,3,3,2,1,ホレト,chef,,CartoonStims/chef_r.jpg,audio/horeto.mp3,,,,,,,,,,,,,,,,,,,,,,,,,,,,,,,,,,,,,,,,,,,,,,,,,,,,,,,,,,,,,,,,,,,,,
,,,,,,,,,R_1FCZLEFCbFnDxak,2022-07-09_17h00.05.591,jpn_C02,2022.1.2,Win32,59.44596362,,,space,5.5723,0,4,4,0,1,シド,artist,,CartoonStims/artist_r.jpg,audio/sido.mp3,,,,,,,,,,,,,,,,,,,,,,,,,,,,,,,,,,,,,,,,,,,,,,,,,,,,,,,,,,,,,,,,,,,,,
,,,,,,,,,R_1FCZLEFCbFnDxak,2022-07-09_17h00.05.591,jpn_C02,2022.1.2,Win32,59.44596362,,,space,3.2497,0,5,5,5,1,ドキ,boxer,,CartoonStims/boxer_r.jpg,audio/doki.mp3,,,,,,,,,,,,,,,,,,,,,,,,,,,,,,,,,,,,,,,,,,,,,,,,,,,,,,,,,,,,,,,,,,,,,
,,,,,,,,,R_1FCZLEFCbFnDxak,2022-07-09_17h00.05.591,jpn_C02,2022.1.2,Win32,59.44596362,,,space,5.5812,1,0,6,4,1,ピポ,doctor,,CartoonStims/doctor_r.jpg,audio/pipo.mp3,,,,,,,,,,,,,,,,,,,,,,,,,,,,,,,,,,,,,,,,,,,,,,,,,,,,,,,,,,,,,,,,,,,,,
,,,,,,,,,R_1FCZLEFCbFnDxak,2022-07-09_17h00.05.591,jpn_C02,2022.1.2,Win32,59.44596362,,,space,2.2193,1,1,7,5,1,ドキ,boxer,,CartoonStims/boxer_r.jpg,audio/doki.mp3,,,,,,,,,,,,,,,,,,,,,,,,,,,,,,,,,,,,,,,,,,,,,,,,,,,,,,,,,,,,,,,,,,,,,
,,,,,,,,,R_1FCZLEFCbFnDxak,2022-07-09_17h00.05.591,jpn_C02,2022.1.2,Win32,59.44596362,,,space,2.7598,1,2,8,0,1,シド,artist,,CartoonStims/artist_r.jpg,audio/sido.mp3,,,,,,,,,,,,,,,,,,,,,,,,,,,,,,,,,,,,,,,,,,,,,,,,,,,,,,,,,,,,,,,,,,,,,
,,,,,,,,,R_1FCZLEFCbFnDxak,2022-07-09_17h00.05.591,jpn_C02,2022.1.2,Win32,59.44596362,,,space,3.7865,1,3,9,2,1,ホレト,chef,,CartoonStims/chef_r.jpg,audio/horeto.mp3,,,,,,,,,,,,,,,,,,,,,,,,,,,,,,,,,,,,,,,,,,,,,,,,,,,,,,,,,,,,,,,,,,,,,
,,,,,,,,,R_1FCZLEFCbFnDxak,2022-07-09_17h00.05.591,jpn_C02,2022.1.2,Win32,59.44596362,,,space,1.945,1,4,10,1,1,ルピン,burglar,,CartoonStims/burglar_r.jpg,audio/lupin.mp3,,,,,,,,,,,,,,,,,,,,,,,,,,,,,,,,,,,,,,,,,,,,,,,,,,,,,,,,,,,,,,,,,,,,,
,,,,,,,,,R_1FCZLEFCbFnDxak,2022-07-09_17h00.05.591,jpn_C02,2022.1.2,Win32,59.44596362,,,space,1.7013,1,5,11,3,1,ムク,cowboy,,CartoonStims/cowboy_r.jpg,audio/muku.mp3,,,,,,,,,,,,,,,,,,,,,,,,,,,,,,,,,,,,,,,,,,,,,,,,,,,,,,,,,,,,,,,,,,,,,
,,,,,,,,,R_1FCZLEFCbFnDxak,2022-07-09_17h00.05.591,jpn_C02,2022.1.2,Win32,59.44596362,,,space,2.0887,2,0,12,0,1,シド,artist,,CartoonStims/artist_r.jpg,audio/sido.mp3,,,,,,,,,,,,,,,,,,,,,,,,,,,,,,,,,,,,,,,,,,,,,,,,,,,,,,,,,,,,,,,,,,,,,
,,,,,,,,,R_1FCZLEFCbFnDxak,2022-07-09_17h00.05.591,jpn_C02,2022.1.2,Win32,59.44596362,,,space,2.9175,2,1,13,5,1,ドキ,boxer,,CartoonStims/boxer_r.jpg,audio/doki.mp3,,,,,,,,,,,,,,,,,,,,,,,,,,,,,,,,,,,,,,,,,,,,,,,,,,,,,,,,,,,,,,,,,,,,,
,,,,,,,,,R_1FCZLEFCbFnDxak,2022-07-09_17h00.05.591,jpn_C02,2022.1.2,Win32,59.44596362,,,space,2.1862,2,2,14,4,1,ピポ,doctor,,CartoonStims/doctor_r.jpg,audio/pipo.mp3,,,,,,,,,,,,,,,,,,,,,,,,,,,,,,,,,,,,,,,,,,,,,,,,,,,,,,,,,,,,,,,,,,,,,
,,,,,,,,,R_1FCZLEFCbFnDxak,2022-07-09_17h00.05.591,jpn_C02,2022.1.2,Win32,59.44596362,,,space,2.6788,2,3,15,2,1,ホレト,chef,,CartoonStims/chef_r.jpg,audio/horeto.mp3,,,,,,,,,,,,,,,,,,,,,,,,,,,,,,,,,,,,,,,,,,,,,,,,,,,,,,,,,,,,,,,,,,,,,
,,,,,,,,,R_1FCZLEFCbFnDxak,2022-07-09_17h00.05.591,jpn_C02,2022.1.2,Win32,59.44596362,,,space,1.722,2,4,16,3,1,ムク,cowboy,,CartoonStims/cowboy_r.jpg,audio/muku.mp3,,,,,,,,,,,,,,,,,,,,,,,,,,,,,,,,,,,,,,,,,,,,,,,,,,,,,,,,,,,,,,,,,,,,,
,,,,,,,,,R_1FCZLEFCbFnDxak,2022-07-09_17h00.05.591,jpn_C02,2022.1.2,Win32,59.44596362,,,space,0.828,2,5,17,1,1,ルピン,burglar,,CartoonStims/burglar_r.jpg,audio/lupin.mp3,,,,,,,,,,,,,,,,,,,,,,,,,,,,,,,,,,,,,,,,,,,,,,,,,,,,,,,,,,,,,,,,,,,,,
,,,,,,,,,R_1FCZLEFCbFnDxak,2022-07-09_17h00.05.591,jpn_C02,2022.1.2,Win32,59.44596362,,,,,,,,,,,,,,,space,1.1332,left,1,2.3834,0,0,0,0,1,,,,,,,,,,,,,,,,,,,,,,,,,,,,,,,,,,,,,,,,,,,,,,,,,,,,,,,,,,,
,,,,,,,,,R_1FCZLEFCbFnDxak,2022-07-09_17h00.05.591,jpn_C02,2022.1.2,Win32,59.44596362,,,,,,,,,,,,,,,,,,,,,,,,,0,0,0,2,1,CartoonStims/chef_r.jpg,ホレト,CartoonStims/cowboy_r.jpg,left,CartoonStims/chef_r.jpg,audio/horeto.mp3,残念！ こちらが正しい画像です。,,,,,,,,,,,,,,,,,,,,,,,,,,,,,,,,,,,,,,,,,,,,,,,
,,,,,,,,,R_1FCZLEFCbFnDxak,2022-07-09_17h00.05.591,jpn_C02,2022.1.2,Win32,59.44596362,,,,,,,,,,,,,,,,,right,1,1.4296,,,,,,,,,,,,,,,,,,0,0,0,0,1,,,,,,,,,,,,,,,,,,,,,,,,,,,,,,,,,,,,,,,,,,
,,,,,,,,,R_1FCZLEFCbFnDxak,2022-07-09_17h00.05.591,jpn_C02,2022.1.2,Win32,59.44596362,,,,,,,,,,,,,,,,,,,,,,,,,0,1,1,6,1,CartoonStims/chef_r.jpg,シド,CartoonStims/artist_r.jpg,right,CartoonStims/artist_r.jpg,audio/sido.mp3,残念！ こちらが正しい画像です。,,,,,,,,,,,,,,,,,,,,,,,,,,,,,,,,,,,,,,,,,,,,,,,
,,,,,,,,,R_1FCZLEFCbFnDxak,2022-07-09_17h00.05.591,jpn_C02,2022.1.2,Win32,59.44596362,,,,,,,,,,,,,,,,,left,1,0.5408,0,0,0,0,1,,,,,,,,,,,,,,,,,,,,,,,,,,,,,,,,,,,,,,,,,,,,,,,,,,,,,,,,,,,
,,,,,,,,,R_1FCZLEFCbFnDxak,2022-07-09_17h00.05.591,jpn_C02,2022.1.2,Win32,59.44596362,,,,,,,,,,,,,,,,,,,,,,,,,0,2,2,4,1,CartoonStims/doctor_r.jpg,ピポ,CartoonStims/boxer_r.jpg,left,CartoonStims/doctor_r.jpg,audio/pipo.mp3,残念！ こちらが正しい画像です。,,,,,,,,,,,,,,,,,,,,,,,,,,,,,,,,,,,,,,,,,,,,,,,
,,,,,,,,,R_1FCZLEFCbFnDxak,2022-07-09_17h00.05.591,jpn_C02,2022.1.2,Win32,59.44596362,,,,,,,,,,,,,,,,,right,1,0.7095,,,,,,,,,,,,,,,,,,0,0,0,0,1,,,,,,,,,,,,,,,,,,,,,,,,,,,,,,,,,,,,,,,,,,
,,,,,,,,,R_1FCZLEFCbFnDxak,2022-07-09_17h00.05.591,jpn_C02,2022.1.2,Win32,59.44596362,,,,,,,,,,,,,,,,,,,,,,,,,0,3,3,10,1,CartoonStims/artist_r.jpg,ピポ,CartoonStims/doctor_r.jpg,right,CartoonStims/doctor_r.jpg,audio/pipo.mp3,残念！ こちらが正しい画像です。,,,,,,,,,,,,,,,,,,,,,,,,,,,,,,,,,,,,,,,,,,,,,,,
,,,,,,,,,R_1FCZLEFCbFnDxak,2022-07-09_17h00.05.591,jpn_C02,2022.1.2,Win32,59.44596362,,,,,,,,,,,,,,,,,left,1,0.3207,0,0,0,0,1,,,,,,,,,,,,,,,,,,,,,,,,,,,,,,,,,,,,,,,,,,,,,,,,,,,,,,,,,,,
,,,,,,,,,R_1FCZLEFCbFnDxak,2022-07-09_17h00.05.591,jpn_C02,2022.1.2,Win32,59.44596362,,,,,,,,,,,,,,,,,,,,,,,,,0,4,4,1,1,CartoonStims/burglar_r.jpg,ルピン,CartoonStims/chef_r.jpg,left,CartoonStims/burglar_r.jpg,audio/lupin.mp3,残念！ こちらが正しい画像です。,,,,,,,,,,,,,,,,,,,,,,,,,,,,,,,,,,,,,,,,,,,,,,,
,,,,,,,,,R_1FCZLEFCbFnDxak,2022-07-09_17h00.05.591,jpn_C02,2022.1.2,Win32,59.44596362,,,,,,,,,,,,,,,,,left,1,1.2923,0,0,0,0,1,,,,,,,,,,,,,,,,,,,,,,,,,,,,,,,,,,,,,,,,,,,,,,,,,,,,,,,,,,,
,,,,,,,,,R_1FCZLEFCbFnDxak,2022-07-09_17h00.05.591,jpn_C02,2022.1.2,Win32,59.44596362,,,,,,,,,,,,,,,,,,,,,,,,,0,5,5,3,1,CartoonStims/cowboy_r.jpg,ムク,CartoonStims/doctor_r.jpg,left,CartoonStims/cowboy_r.jpg,audio/muku.mp3,残念！ こちらが正しい画像です。,,,,,,,,,,,,,,,,,,,,,,,,,,,,,,,,,,,,,,,,,,,,,,,
,,,,,,,,,R_1FCZLEFCbFnDxak,2022-07-09_17h00.05.591,jpn_C02,2022.1.2,Win32,59.44596362,,,,,,,,,,,,,,,,,right,1,0.4489,,,,,,,,,,,,,,,,,,0,0,0,0,1,,,,,,,,,,,,,,,,,,,,,,,,,,,,,,,,,,,,,,,,,,
,,,,,,,,,R_1FCZLEFCbFnDxak,2022-07-09_17h00.05.591,jpn_C02,2022.1.2,Win32,59.44596362,,,,,,,,,,,,,,,,,,,,,,,,,0,6,6,9,1,CartoonStims/boxer_r.jpg,ムク,CartoonStims/cowboy_r.jpg,right,CartoonStims/cowboy_r.jpg,audio/muku.mp3,残念！ こちらが正しい画像です。,,,,,,,,,,,,,,,,,,,,,,,,,,,,,,,,,,,,,,,,,,,,,,,
,,,,,,,,,R_1FCZLEFCbFnDxak,2022-07-09_17h00.05.591,jpn_C02,2022.1.2,Win32,59.44596362,,,,,,,,,,,,,,,,,left,1,0.5444,0,0,0,0,1,,,,,,,,,,,,,,,,,,,,,,,,,,,,,,,,,,,,,,,,,,,,,,,,,,,,,,,,,,,
,,,,,,,,,R_1FCZLEFCbFnDxak,2022-07-09_17h00.05.591,jpn_C02,2022.1.2,Win32,59.44596362,,,,,,,,,,,,,,,,,,,,,,,,,0,7,7,0,1,CartoonStims/artist_r.jpg,シド,CartoonStims/burglar_r.jpg,left,CartoonStims/artist_r.jpg,audio/sido.mp3,残念！ こちらが正しい画像です。,,,,,,,,,,,,,,,,,,,,,,,,,,,,,,,,,,,,,,,,,,,,,,,
,,,,,,,,,R_1FCZLEFCbFnDxak,2022-07-09_17h00.05.591,jpn_C02,2022.1.2,Win32,59.44596362,,,,,,,,,,,,,,,,,right,1,0.6224,,,,,,,,,,,,,,,,,,0,0,0,0,1,,,,,,,,,,,,,,,,,,,,,,,,,,,,,,,,,,,,,,,,,,
,,,,,,,,,R_1FCZLEFCbFnDxak,2022-07-09_17h00.05.591,jpn_C02,2022.1.2,Win32,59.44596362,,,,,,,,,,,,,,,,,,,,,,,,,0,8,8,11,1,CartoonStims/burglar_r.jpg,ドキ,CartoonStims/boxer_r.jpg,right,CartoonStims/boxer_r.jpg,audio/doki.mp3,残念！ こちらが正しい画像です。,,,,,,,,,,,,,,,,,,,,,,,,,,,,,,,,,,,,,,,,,,,,,,,
,,,,,,,,,R_1FCZLEFCbFnDxak,2022-07-09_17h00.05.591,jpn_C02,2022.1.2,Win32,59.44596362,,,,,,,,,,,,,,,,,right,1,0.6048,,,,,,,,,,,,,,,,,,0,0,0,0,1,,,,,,,,,,,,,,,,,,,,,,,,,,,,,,,,,,,,,,,,,,
,,,,,,,,,R_1FCZLEFCbFnDxak,2022-07-09_17h00.05.591,jpn_C02,2022.1.2,Win32,59.44596362,,,,,,,,,,,,,,,,,,,,,,,,,0,9,9,7,1,CartoonStims/cowboy_r.jpg,ルピン,CartoonStims/burglar_r.jpg,right,CartoonStims/burglar_r.jpg,audio/lupin.mp3,残念！ こちらが正しい画像です。,,,,,,,,,,,,,,,,,,,,,,,,,,,,,,,,,,,,,,,,,,,,,,,
,,,,,,,,,R_1FCZLEFCbFnDxak,2022-07-09_17h00.05.591,jpn_C02,2022.1.2,Win32,59.44596362,,,,,,,,,,,,,,,,,right,1,0.4359,,,,,,,,,,,,,,,,,,0,0,0,0,1,,,,,,,,,,,,,,,,,,,,,,,,,,,,,,,,,,,,,,,,,,
,,,,,,,,,R_1FCZLEFCbFnDxak,2022-07-09_17h00.05.591,jpn_C02,2022.1.2,Win32,59.44596362,,,,,,,,,,,,,,,,,,,,,,,,,0,10,10,8,1,CartoonStims/doctor_r.jpg,ホレト,CartoonStims/chef_r.jpg,right,CartoonStims/chef_r.jpg,audio/horeto.mp3,残念！ こちらが正しい画像です。,,,,,,,,,,,,,,,,,,,,,,,,,,,,,,,,,,,,,,,,,,,,,,,
,,,,,,,,,R_1FCZLEFCbFnDxak,2022-07-09_17h00.05.591,jpn_C02,2022.1.2,Win32,59.44596362,,,,,,,,,,,,,,,,,left,1,0.4332,0,0,0,0,1,,,,,,,,,,,,,,,,,,,,,,,,,,,,,,,,,,,,,,,,,,,,,,,,,,,,,,,,,,,
,,,,,,,,,R_1FCZLEFCbFnDxak,2022-07-09_17h00.05.591,jpn_C02,2022.1.2,Win32,59.44596362,,,,,,,,,,,,,,,,,,,,,,,,,0,11,11,5,1,CartoonStims/boxer_r.jpg,ドキ,CartoonStims/artist_r.jpg,left,CartoonStims/boxer_r.jpg,audio/doki.mp3,残念！ こちらが正しい画像です。,,,,,,,,,,,,,,,,,,,,,,,,,,,,,,,,,,,,,,,,,,,,,,,
,,,,,,,,,R_1FCZLEFCbFnDxak,2022-07-09_17h00.05.591,jpn_C02,2022.1.2,Win32,59.44596362,,,,,,,,,,,,,,,,,,,,,,,,,,,,,,,,,,,,,,,,,,space,2.7831,ぴぽ,right,7.7897,0,0,0,0,1,,,,,,,,,,,,,,,,,,,,,,,,,,,,,,,,
,,,,,,,,,R_1FCZLEFCbFnDxak,2022-07-09_17h00.05.591,jpn_C02,2022.1.2,Win32,59.44596362,,,,,,,,,,,,,CartoonStims/doctor_r.jpg,audio/pipo.mp3,,,,,,,,,,,,,,,,,,,,,,,,,,,,,,,,,,,,,,0,0,0,4,1,ピポ,,,,,,,,,,,,,,,,,,,,,,,,,,
,,,,,,,,,R_1FCZLEFCbFnDxak,2022-07-09_17h00.05.591,jpn_C02,2022.1.2,Win32,59.44596362,,,,,,,,,,,,,,,,,,,,,,,,,,,,,,,,,,,,,,,,,,,,ホレト,right,4.8405,0,0,0,0,1,,,,,,,,,,,,,,,,,,,,,,,,,,,,,,,,
,,,,,,,,,R_1FCZLEFCbFnDxak,2022-07-09_17h00.05.591,jpn_C02,2022.1.2,Win32,59.44596362,,,,,,,,,,,,,CartoonStims/chef_r.jpg,audio/horeto.mp3,,,,,,,,,,,,,,,,,,,,,,,,,,,,,,,,,,,,,,0,1,1,2,1,ホレト,,,,,,,,,,,,,,,,,,,,,,,,,,
,,,,,,,,,R_1FCZLEFCbFnDxak,2022-07-09_17h00.05.591,jpn_C02,2022.1.2,Win32,59.44596362,,,,,,,,,,,,,,,,,,,,,,,,,,,,,,,,,,,,,,,,,,,,シド,right,8.8009,0,0,0,0,1,,,,,,,,,,,,,,,,,,,,,,,,,,,,,,,,
,,,,,,,,,R_1FCZLEFCbFnDxak,2022-07-09_17h00.05.591,jpn_C02,2022.1.2,Win32,59.44596362,,,,,,,,,,,,,CartoonStims/cowboy_r.jpg,audio/muku.mp3,,,,,,,,,,,,,,,,,,,,,,,,,,,,,,,,,,,,,,0,2,2,3,1,ムク,,,,,,,,,,,,,,,,,,,,,,,,,,
,,,,,,,,,R_1FCZLEFCbFnDxak,2022-07-09_17h00.05.591,jpn_C02,2022.1.2,Win32,59.44596362,,,,,,,,,,,,,,,,,,,,,,,,,,,,,,,,,,,,,,,,,,,,ドキ,right,3.7281,0,0,0,0,1,,,,,,,,,,,,,,,,,,,,,,,,,,,,,,,,
,,,,,,,,,R_1FCZLEFCbFnDxak,2022-07-09_17h00.05.591,jpn_C02,2022.1.2,Win32,59.44596362,,,,,,,,,,,,,CartoonStims/boxer_r.jpg,audio/doki.mp3,,,,,,,,,,,,,,,,,,,,,,,,,,,,,,,,,,,,,,0,3,3,5,1,ドキ,,,,,,,,,,,,,,,,,,,,,,,,,,
,,,,,,,,,R_1FCZLEFCbFnDxak,2022-07-09_17h00.05.591,jpn_C02,2022.1.2,Win32,59.44596362,,,,,,,,,,,,,,,,,,,,,,,,,,,,,,,,,,,,,,,,,,,,シド,right,2.5079,0,0,0,0,1,,,,,,,,,,,,,,,,,,,,,,,,,,,,,,,,
,,,,,,,,,R_1FCZLEFCbFnDxak,2022-07-09_17h00.05.591,jpn_C02,2022.1.2,Win32,59.44596362,,,,,,,,,,,,,CartoonStims/artist_r.jpg,audio/sido.mp3,,,,,,,,,,,,,,,,,,,,,,,,,,,,,,,,,,,,,,0,4,4,0,1,シド,,,,,,,,,,,,,,,,,,,,,,,,,,
,,,,,,,,,R_1FCZLEFCbFnDxak,2022-07-09_17h00.05.591,jpn_C02,2022.1.2,Win32,59.44596362,,,,,,,,,,,,,,,,,,,,,,,,,,,,,,,,,,,,,,,,,,,,ルピン,right,3.7136,0,0,0,0,1,,,,,,,,,,,,,,,,,,,,,,,,,,,,,,,,
,,,,,,,,,R_1FCZLEFCbFnDxak,2022-07-09_17h00.05.591,jpn_C02,2022.1.2,Win32,59.44596362,,,,,,,,,,,,,CartoonStims/burglar_r.jpg,audio/lupin.mp3,,,,,,,,,,,,,,,,,,,,,,,,,,,,,,,,,,,,,,0,5,5,1,1,ルピン,,,,,,,,,,,,,,,,,,,,,,,,,,
,,,,,,,,,R_1FCZLEFCbFnDxak,2022-07-09_17h00.05.591,jpn_C02,2022.1.2,Win32,59.44596362,,,,,,,,,,,,,,,,,,,,,,,,,,,,,,,,,,,,,,,,,,,,ルピン,right,2.946,0,0,0,0,1,,,,,,,,,,,,,,,,,,,,,,,,,,,,,,,,
,,,,,,,,,R_1FCZLEFCbFnDxak,2022-07-09_17h00.05.591,jpn_C02,2022.1.2,Win32,59.44596362,,,,,,,,,,,,,CartoonStims/burglar_r.jpg,audio/lupin.mp3,,,,,,,,,,,,,,,,,,,,,,,,,,,,,,,,,,,,,,1,0,6,1,1,ルピン,,,,,,,,,,,,,,,,,,,,,,,,,,
,,,,,,,,,R_1FCZLEFCbFnDxak,2022-07-09_17h00.05.591,jpn_C02,2022.1.2,Win32,59.44596362,,,,,,,,,,,,,,,,,,,,,,,,,,,,,,,,,,,,,,,,,,,,ドキ,right,2.597,0,0,0,0,1,,,,,,,,,,,,,,,,,,,,,,,,,,,,,,,,
,,,,,,,,,R_1FCZLEFCbFnDxak,2022-07-09_17h00.05.591,jpn_C02,2022.1.2,Win32,59.44596362,,,,,,,,,,,,,CartoonStims/boxer_r.jpg,audio/doki.mp3,,,,,,,,,,,,,,,,,,,,,,,,,,,,,,,,,,,,,,1,1,7,5,1,ドキ,,,,,,,,,,,,,,,,,,,,,,,,,,
,,,,,,,,,R_1FCZLEFCbFnDxak,2022-07-09_17h00.05.591,jpn_C02,2022.1.2,Win32,59.44596362,,,,,,,,,,,,,,,,,,,,,,,,,,,,,,,,,,,,,,,,,,,,ホレト,right,3.5577,0,0,0,0,1,,,,,,,,,,,,,,,,,,,,,,,,,,,,,,,,
,,,,,,,,,R_1FCZLEFCbFnDxak,2022-07-09_17h00.05.591,jpn_C02,2022.1.2,Win32,59.44596362,,,,,,,,,,,,,CartoonStims/chef_r.jpg,audio/horeto.mp3,,,,,,,,,,,,,,,,,,,,,,,,,,,,,,,,,,,,,,1,2,8,2,1,ホレト,,,,,,,,,,,,,,,,,,,,,,,,,,
,,,,,,,,,R_1FCZLEFCbFnDxak,2022-07-09_17h00.05.591,jpn_C02,2022.1.2,Win32,59.44596362,,,,,,,,,,,,,,,,,,,,,,,,,,,,,,,,,,,,,,,,,,,,ムク,right,6.6214,0,0,0,0,1,,,,,,,,,,,,,,,,,,,,,,,,,,,,,,,,
,,,,,,,,,R_1FCZLEFCbFnDxak,2022-07-09_17h00.05.591,jpn_C02,2022.1.2,Win32,59.44596362,,,,,,,,,,,,,CartoonStims/cowboy_r.jpg,audio/muku.mp3,,,,,,,,,,,,,,,,,,,,,,,,,,,,,,,,,,,,,,1,3,9,3,1,ムク,,,,,,,,,,,,,,,,,,,,,,,,,,
,,,,,,,,,R_1FCZLEFCbFnDxak,2022-07-09_17h00.05.591,jpn_C02,2022.1.2,Win32,59.44596362,,,,,,,,,,,,,,,,,,,,,,,,,,,,,,,,,,,,,,,,,,,,シド,right,3.6677,0,0,0,0,1,,,,,,,,,,,,,,,,,,,,,,,,,,,,,,,,
,,,,,,,,,R_1FCZLEFCbFnDxak,2022-07-09_17h00.05.591,jpn_C02,2022.1.2,Win32,59.44596362,,,,,,,,,,,,,CartoonStims/artist_r.jpg,audio/sido.mp3,,,,,,,,,,,,,,,,,,,,,,,,,,,,,,,,,,,,,,1,4,10,0,1,シド,,,,,,,,,,,,,,,,,,,,,,,,,,
,,,,,,,,,R_1FCZLEFCbFnDxak,2022-07-09_17h00.05.591,jpn_C02,2022.1.2,Win32,59.44596362,,,,,,,,,,,,,,,,,,,,,,,,,,,,,,,,,,,,,,,,,,,,ピ歩,right,3.5611,0,0,0,0,1,,,,,,,,,,,,,,,,,,,,,,,,,,,,,,,,
,,,,,,,,,R_1FCZLEFCbFnDxak,2022-07-09_17h00.05.591,jpn_C02,2022.1.2,Win32,59.44596362,,,,,,,,,,,,,CartoonStims/doctor_r.jpg,audio/pipo.mp3,,,,,,,,,,,,,,,,,,,,,,,,,,,,,,,,,,,,,,1,5,11,4,1,ピポ,,,,,,,,,,,,,,,,,,,,,,,,,,
,,,,,,,,,R_1FCZLEFCbFnDxak,2022-07-09_17h00.05.591,jpn_C02,2022.1.2,Win32,59.44596362,,,,,,,,,,,,,,,,,,,,,,,,,,,,,,,,,,,,,,,,,,,,,,,,,,,,,,,,,,,space,1.1043,0,0,0,0,1,NounExposure.xlsx,"最初のトライアルでは、 画像が表示され、 その画像の下に単語が出てきます。 またこの単語の音も聞くことができます。 この音を大きな声で復唱してください。 そしてこの画像がどのような単語を示しているのか, 考えてみてください。 その後、 続きのボタンを押すと次の単語の学習が始まります。

スペースキーを押して、学習を始めましょう。",3,NounFCT.xlsx,ここから語彙のクイズが始まります。スクリーンに表示される単語に合う画像をキーボードの右と左の矢印キーを使って選択してください。,NounTest.xlsx,2,次に、これまで学習してきたことをアウトプットしていただきます。 表示される画像を描写していると思う単語を、テキストボックスにタイプしてください。,1,"ここまでが最初のトライアルです。ここで休憩をとっても構いません。

休憩が済みましたら、スペースキーを押して続きを始めましょう。",,,,,,,,
,,,,,,,,,R_1FCZLEFCbFnDxak,2022-07-09_17h00.05.591,jpn_C02,2022.1.2,Win32,59.44596362,space,2.3017,space,10.8629,0,0,0,38,1,プミ　ルピン　ドキ,,,CartoonStims/burglar_punch_boxer_r.jpg,audio/pumilupindoki.mp3,,,,,,,,,,,,,,,,,,,,,,,,,,,,,,,,,,,,,,,,,,,,,,,,,,,,,,,,,,,,,,,,,,,,,
,,,,,,,,,R_1FCZLEFCbFnDxak,2022-07-09_17h00.05.591,jpn_C02,2022.1.2,Win32,59.44596362,,,space,12.7331,0,1,1,24,1,パツ　シド　ムク,,,CartoonStims/artist_shoot_cowboy_r.jpg,audio/patsusidomuku.mp3,,,,,,,,,,,,,,,,,,,,,,,,,,,,,,,,,,,,,,,,,,,,,,,,,,,,,,,,,,,,,,,,,,,,,
,,,,,,,,,R_1FCZLEFCbFnDxak,2022-07-09_17h00.05.591,jpn_C02,2022.1.2,Win32,59.44596362,,,space,8.7189,0,2,2,2,1,セル 　ルピン 　ホレト,,,CartoonStims/burglar_kick_chef_r.jpg,audio/serulupinhoreto.mp3,,,,,,,,,,,,,,,,,,,,,,,,,,,,,,,,,,,,,,,,,,,,,,,,,,,,,,,,,,,,,,,,,,,,,
,,,,,,,,,R_1FCZLEFCbFnDxak,2022-07-09_17h00.05.591,jpn_C02,2022.1.2,Win32,59.44596362,,,space,5.9835,0,3,3,20,1,トマ　ピポ　シド,,,CartoonStims/doctor_point_artist_r.jpg,audio/tomapiposido.mp3,,,,,,,,,,,,,,,,,,,,,,,,,,,,,,,,,,,,,,,,,,,,,,,,,,,,,,,,,,,,,,,,,,,,,
,,,,,,,,,R_1FCZLEFCbFnDxak,2022-07-09_17h00.05.591,jpn_C02,2022.1.2,Win32,59.44596362,,,space,12.5278,0,4,4,27,1,パツ　ルピン　ドキ,,,CartoonStims/burglar_shoot_boxer_r.jpg,audio/patsulupindoki.mp3,,,,,,,,,,,,,,,,,,,,,,,,,,,,,,,,,,,,,,,,,,,,,,,,,,,,,,,,,,,,,,,,,,,,,
,,,,,,,,,R_1FCZLEFCbFnDxak,2022-07-09_17h00.05.591,jpn_C02,2022.1.2,Win32,59.44596362,,,space,11.529,0,5,5,22,1,トマ　ドキ　ルピン,,,CartoonStims/boxer_point_burglar_r.jpg,audio/tomadokilupin.mp3,,,,,,,,,,,,,,,,,,,,,,,,,,,,,,,,,,,,,,,,,,,,,,,,,,,,,,,,,,,,,,,,,,,,,
,,,,,,,,,R_1FCZLEFCbFnDxak,2022-07-09_17h00.05.591,jpn_C02,2022.1.2,Win32,59.44596362,,,space,9.2536,0,6,6,46,1,プミ　ドキ　ムク,,,CartoonStims/boxer_punch_cowboy_r.jpg,audio/pumidokimuku.mp3,,,,,,,,,,,,,,,,,,,,,,,,,,,,,,,,,,,,,,,,,,,,,,,,,,,,,,,,,,,,,,,,,,,,,
,,,,,,,,,R_1FCZLEFCbFnDxak,2022-07-09_17h00.05.591,jpn_C02,2022.1.2,Win32,59.44596362,,,space,10.3559,0,7,7,1,1,セル 　シド 　ホレト,,,CartoonStims/artist_kick_chef_r.jpg,audio/serusidohoreto.mp3,,,,,,,,,,,,,,,,,,,,,,,,,,,,,,,,,,,,,,,,,,,,,,,,,,,,,,,,,,,,,,,,,,,,,
,,,,,,,,,R_1FCZLEFCbFnDxak,2022-07-09_17h00.05.591,jpn_C02,2022.1.2,Win32,59.44596362,,,space,3.4139,0,8,8,25,1,パツ　シド　ピポ,,,CartoonStims/artist_shoot_doctor_r.jpg,audio/patsusidopipo.mp3,,,,,,,,,,,,,,,,,,,,,,,,,,,,,,,,,,,,,,,,,,,,,,,,,,,,,,,,,,,,,,,,,,,,,
,,,,,,,,,R_1FCZLEFCbFnDxak,2022-07-09_17h00.05.591,jpn_C02,2022.1.2,Win32,59.44596362,,,space,5.0011,0,9,9,12,1,トマ　シド　ホレト,,,CartoonStims/artist_point_chef_r.jpg,audio/tomasidohoreto.mp3,,,,,,,,,,,,,,,,,,,,,,,,,,,,,,,,,,,,,,,,,,,,,,,,,,,,,,,,,,,,,,,,,,,,,
,,,,,,,,,R_1FCZLEFCbFnDxak,2022-07-09_17h00.05.591,jpn_C02,2022.1.2,Win32,59.44596362,,,space,12.0078,0,10,10,3,1,セル　ルピン　ムク,,,CartoonStims/burglar_kick_cowboy_r.jpg,audio/serulupinmuku.mp3,,,,,,,,,,,,,,,,,,,,,,,,,,,,,,,,,,,,,,,,,,,,,,,,,,,,,,,,,,,,,,,,,,,,,
,,,,,,,,,R_1FCZLEFCbFnDxak,2022-07-09_17h00.05.591,jpn_C02,2022.1.2,Win32,59.44596362,,,space,2.353,0,11,11,13,1,トマ　シド　ムク,,,CartoonStims/artist_point_cowboy_r.jpg,audio/tomasidomuku.mp3,,,,,,,,,,,,,,,,,,,,,,,,,,,,,,,,,,,,,,,,,,,,,,,,,,,,,,,,,,,,,,,,,,,,,
,,,,,,,,,R_1FCZLEFCbFnDxak,2022-07-09_17h00.05.591,jpn_C02,2022.1.2,Win32,59.44596362,,,space,6.0309,0,12,12,9,1,セル　ピポ　シド,,,CartoonStims/doctor_kick_artist_r.jpg,audio/serupiposido.mp3,,,,,,,,,,,,,,,,,,,,,,,,,,,,,,,,,,,,,,,,,,,,,,,,,,,,,,,,,,,,,,,,,,,,,
,,,,,,,,,R_1FCZLEFCbFnDxak,2022-07-09_17h00.05.591,jpn_C02,2022.1.2,Win32,59.44596362,,,space,6.5293,0,13,13,0,1,セル　シド　ルピン,,,CartoonStims/artist_kick_burglar_r.jpg,audio/serusidolupin.mp3,,,,,,,,,,,,,,,,,,,,,,,,,,,,,,,,,,,,,,,,,,,,,,,,,,,,,,,,,,,,,,,,,,,,,
,,,,,,,,,R_1FCZLEFCbFnDxak,2022-07-09_17h00.05.591,jpn_C02,2022.1.2,Win32,59.44596362,,,space,5.5826,0,14,14,7,1,セル　ムク　ドキ,,,CartoonStims/cowboy_kick_boxer_r.jpg,audio/serumukudoki.mp3,,,,,,,,,,,,,,,,,,,,,,,,,,,,,,,,,,,,,,,,,,,,,,,,,,,,,,,,,,,,,,,,,,,,,
,,,,,,,,,R_1FCZLEFCbFnDxak,2022-07-09_17h00.05.591,jpn_C02,2022.1.2,Win32,59.44596362,,,space,8.1752,0,15,15,16,1,トマ　ホレト　ピポ,,,CartoonStims/chef_point_doctor_r.jpg,audio/tomahoretopipo.mp3,,,,,,,,,,,,,,,,,,,,,,,,,,,,,,,,,,,,,,,,,,,,,,,,,,,,,,,,,,,,,,,,,,,,,
,,,,,,,,,R_1FCZLEFCbFnDxak,2022-07-09_17h00.05.591,jpn_C02,2022.1.2,Win32,59.44596362,,,space,6.4609,0,16,16,41,1,プミ　ホレト　ルピン,,,CartoonStims/chef_punch_burglar_r.jpg,audio/pumihoretolupin.mp3,,,,,,,,,,,,,,,,,,,,,,,,,,,,,,,,,,,,,,,,,,,,,,,,,,,,,,,,,,,,,,,,,,,,,
,,,,,,,,,R_1FCZLEFCbFnDxak,2022-07-09_17h00.05.591,jpn_C02,2022.1.2,Win32,59.44596362,,,space,2.7573,0,17,17,35,1,パツ　ドキ　ムク,,,CartoonStims/boxer_shoot_cowboy_r.jpg,audio/patsudokimuku.mp3,,,,,,,,,,,,,,,,,,,,,,,,,,,,,,,,,,,,,,,,,,,,,,,,,,,,,,,,,,,,,,,,,,,,,
,,,,,,,,,R_1FCZLEFCbFnDxak,2022-07-09_17h00.05.591,jpn_C02,2022.1.2,Win32,59.44596362,,,space,2.6454,0,18,18,44,1,プミ　ピポ　ホレト,,,CartoonStims/doctor_punch_chef_r.jpg,audio/pumipipohoreto.mp3,,,,,,,,,,,,,,,,,,,,,,,,,,,,,,,,,,,,,,,,,,,,,,,,,,,,,,,,,,,,,,,,,,,,,
,,,,,,,,,R_1FCZLEFCbFnDxak,2022-07-09_17h00.05.591,jpn_C02,2022.1.2,Win32,59.44596362,,,space,2.1837,0,19,19,26,1,パツ　ルピン　ピポ,,,CartoonStims/burglar_shoot_doctor_r.jpg,audio/patsulupinpipo.mp3,,,,,,,,,,,,,,,,,,,,,,,,,,,,,,,,,,,,,,,,,,,,,,,,,,,,,,,,,,,,,,,,,,,,,
,,,,,,,,,R_1FCZLEFCbFnDxak,2022-07-09_17h00.05.591,jpn_C02,2022.1.2,Win32,59.44596362,,,space,1.3901,0,20,20,39,1,プミ　ルピン　シド,,,CartoonStims/burglar_punch_artist_r.jpg,audio/pumilupinsido.mp3,,,,,,,,,,,,,,,,,,,,,,,,,,,,,,,,,,,,,,,,,,,,,,,,,,,,,,,,,,,,,,,,,,,,,
,,,,,,,,,R_1FCZLEFCbFnDxak,2022-07-09_17h00.05.591,jpn_C02,2022.1.2,Win32,59.44596362,,,space,1.6769,0,21,21,36,1,プミ　シド　ピポ,,,CartoonStims/artist_punch_doctor_r.jpg,audio/pumisidopipo.mp3,,,,,,,,,,,,,,,,,,,,,,,,,,,,,,,,,,,,,,,,,,,,,,,,,,,,,,,,,,,,,,,,,,,,,
,,,,,,,,,R_1FCZLEFCbFnDxak,2022-07-09_17h00.05.591,jpn_C02,2022.1.2,Win32,59.44596362,,,space,3.4283,0,22,22,28,1,パツ　ホレト　ドキ,,,CartoonStims/chef_shoot_boxer_r.jpg,audio/patsuhoretodoki.mp3,,,,,,,,,,,,,,,,,,,,,,,,,,,,,,,,,,,,,,,,,,,,,,,,,,,,,,,,,,,,,,,,,,,,,
,,,,,,,,,R_1FCZLEFCbFnDxak,2022-07-09_17h00.05.591,jpn_C02,2022.1.2,Win32,59.44596362,,,space,2.6954,0,23,23,30,1,パツ　ムク　シド,,,CartoonStims/cowboy_shoot_artist_r.jpg,audio/patsumukusido.mp3,,,,,,,,,,,,,,,,,,,,,,,,,,,,,,,,,,,,,,,,,,,,,,,,,,,,,,,,,,,,,,,,,,,,,
,,,,,,,,,R_1FCZLEFCbFnDxak,2022-07-09_17h00.05.591,jpn_C02,2022.1.2,Win32,59.44596362,,,space,10.1846,0,24,24,11,1,セル　ドキ　ルピン,,,CartoonStims/boxer_kick_burglar_r.jpg,audio/serudokilupin.mp3,,,,,,,,,,,,,,,,,,,,,,,,,,,,,,,,,,,,,,,,,,,,,,,,,,,,,,,,,,,,,,,,,,,,,
,,,,,,,,,R_1FCZLEFCbFnDxak,2022-07-09_17h00.05.591,jpn_C02,2022.1.2,Win32,59.44596362,,,space,5.7961,0,25,25,4,1,セル　ホレト　ムク,,,CartoonStims/chef_kick_cowboy_r.jpg,audio/seruhoretomuku.mp3,,,,,,,,,,,,,,,,,,,,,,,,,,,,,,,,,,,,,,,,,,,,,,,,,,,,,,,,,,,,,,,,,,,,,
,,,,,,,,,R_1FCZLEFCbFnDxak,2022-07-09_17h00.05.591,jpn_C02,2022.1.2,Win32,59.44596362,,,space,4.6158,0,26,26,15,1,トマ　ルピン　ピポ,,,CartoonStims/burglar_point_doctor_r.jpg,audio/tomalupinpipo.mp3,,,,,,,,,,,,,,,,,,,,,,,,,,,,,,,,,,,,,,,,,,,,,,,,,,,,,,,,,,,,,,,,,,,,,
,,,,,,,,,R_1FCZLEFCbFnDxak,2022-07-09_17h00.05.591,jpn_C02,2022.1.2,Win32,59.44596362,,,space,1.839,0,27,27,33,1,パツ　ピポ　ホレト,,,CartoonStims/doctor_shoot_chef_r.jpg,audio/patsupipohoreto.mp3,,,,,,,,,,,,,,,,,,,,,,,,,,,,,,,,,,,,,,,,,,,,,,,,,,,,,,,,,,,,,,,,,,,,,
,,,,,,,,,R_1FCZLEFCbFnDxak,2022-07-09_17h00.05.591,jpn_C02,2022.1.2,Win32,59.44596362,,,space,1.8581,0,28,28,23,1,トマ　ドキ　ホレト,,,CartoonStims/boxer_point_chef_r.jpg,audio/tomadokihoreto.mp3,,,,,,,,,,,,,,,,,,,,,,,,,,,,,,,,,,,,,,,,,,,,,,,,,,,,,,,,,,,,,,,,,,,,,
,,,,,,,,,R_1FCZLEFCbFnDxak,2022-07-09_17h00.05.591,jpn_C02,2022.1.2,Win32,59.44596362,,,space,1.8091,0,29,29,8,1,セル　ピポ　ドキ,,,CartoonStims/doctor_kick_boxer_r.jpg,audio/serupipodoki.mp3,,,,,,,,,,,,,,,,,,,,,,,,,,,,,,,,,,,,,,,,,,,,,,,,,,,,,,,,,,,,,,,,,,,,,
,,,,,,,,,R_1FCZLEFCbFnDxak,2022-07-09_17h00.05.591,jpn_C02,2022.1.2,Win32,59.44596362,,,space,1.6144,0,30,30,37,1,プミ　シド　ドキ,,,CartoonStims/artist_punch_boxer_r.jpg,audio/pumisidodoki.mp3,,,,,,,,,,,,,,,,,,,,,,,,,,,,,,,,,,,,,,,,,,,,,,,,,,,,,,,,,,,,,,,,,,,,,
,,,,,,,,,R_1FCZLEFCbFnDxak,2022-07-09_17h00.05.591,jpn_C02,2022.1.2,Win32,59.44596362,,,space,8.6416,0,31,31,17,1,トマ　ホレト　ドキ,,,CartoonStims/chef_point_boxer_r.jpg,audio/tomahoretodoki.mp3,,,,,,,,,,,,,,,,,,,,,,,,,,,,,,,,,,,,,,,,,,,,,,,,,,,,,,,,,,,,,,,,,,,,,
,,,,,,,,,R_1FCZLEFCbFnDxak,2022-07-09_17h00.05.591,jpn_C02,2022.1.2,Win32,59.44596362,,,space,3.6808,0,32,32,6,1,セル　ムク　ピポ,,,CartoonStims/cowboy_kick_doctor_r.jpg,audio/serumukupipo.mp3,,,,,,,,,,,,,,,,,,,,,,,,,,,,,,,,,,,,,,,,,,,,,,,,,,,,,,,,,,,,,,,,,,,,,
,,,,,,,,,R_1FCZLEFCbFnDxak,2022-07-09_17h00.05.591,jpn_C02,2022.1.2,Win32,59.44596362,,,space,1.76,0,33,33,5,1,セル　ホレト　ピポ,,,CartoonStims/chef_kick_doctor_r.jpg,audio/seruhoretopipo.mp3,,,,,,,,,,,,,,,,,,,,,,,,,,,,,,,,,,,,,,,,,,,,,,,,,,,,,,,,,,,,,,,,,,,,,
,,,,,,,,,R_1FCZLEFCbFnDxak,2022-07-09_17h00.05.591,jpn_C02,2022.1.2,Win32,59.44596362,,,space,2.195,0,34,34,40,1,プミ　ホレト　シド,,,CartoonStims/chef_punch_artist_r.jpg,audio/pumihoretosido.mp3,,,,,,,,,,,,,,,,,,,,,,,,,,,,,,,,,,,,,,,,,,,,,,,,,,,,,,,,,,,,,,,,,,,,,
,,,,,,,,,R_1FCZLEFCbFnDxak,2022-07-09_17h00.05.591,jpn_C02,2022.1.2,Win32,59.44596362,,,space,2.1822,0,35,35,32,1,パツ　ピポ　ルピン,,,CartoonStims/doctor_shoot_burglar_r.jpg,audio/patsupipolupin.mp3,,,,,,,,,,,,,,,,,,,,,,,,,,,,,,,,,,,,,,,,,,,,,,,,,,,,,,,,,,,,,,,,,,,,,
,,,,,,,,,R_1FCZLEFCbFnDxak,2022-07-09_17h00.05.591,jpn_C02,2022.1.2,Win32,59.44596362,,,space,2.8932,0,36,36,47,1,プミ　ドキ　ピポ,,,CartoonStims/boxer_punch_doctor_r.jpg,audio/pumidokipipo.mp3,,,,,,,,,,,,,,,,,,,,,,,,,,,,,,,,,,,,,,,,,,,,,,,,,,,,,,,,,,,,,,,,,,,,,
,,,,,,,,,R_1FCZLEFCbFnDxak,2022-07-09_17h00.05.591,jpn_C02,2022.1.2,Win32,59.44596362,,,space,1.6787,0,37,37,19,1,トマ　ムク　シド,,,CartoonStims/cowboy_point_artist_r.jpg,audio/tomamukusido.mp3,,,,,,,,,,,,,,,,,,,,,,,,,,,,,,,,,,,,,,,,,,,,,,,,,,,,,,,,,,,,,,,,,,,,,
,,,,,,,,,R_1FCZLEFCbFnDxak,2022-07-09_17h00.05.591,jpn_C02,2022.1.2,Win32,59.44596362,,,space,1.3654,0,38,38,43,1,プミ　ムク　ホレト,,,CartoonStims/cowboy_punch_chef_r.jpg,audio/pumimukuhoreto.mp3,,,,,,,,,,,,,,,,,,,,,,,,,,,,,,,,,,,,,,,,,,,,,,,,,,,,,,,,,,,,,,,,,,,,,
,,,,,,,,,R_1FCZLEFCbFnDxak,2022-07-09_17h00.05.591,jpn_C02,2022.1.2,Win32,59.44596362,,,space,0.7387,0,39,39,29,1,パツ　ホレト　シド,,,CartoonStims/chef_shoot_artist_r.jpg,audio/patsuhoretosido.mp3,,,,,,,,,,,,,,,,,,,,,,,,,,,,,,,,,,,,,,,,,,,,,,,,,,,,,,,,,,,,,,,,,,,,,
,,,,,,,,,R_1FCZLEFCbFnDxak,2022-07-09_17h00.05.591,jpn_C02,2022.1.2,Win32,59.44596362,,,space,0.2194,0,40,40,14,1,トマ　ルピン　ムク,,,CartoonStims/burglar_point_cowboy_r.jpg,audio/tomalupinmuku.mp3,,,,,,,,,,,,,,,,,,,,,,,,,,,,,,,,,,,,,,,,,,,,,,,,,,,,,,,,,,,,,,,,,,,,,
,,,,,,,,,R_1FCZLEFCbFnDxak,2022-07-09_17h00.05.591,jpn_C02,2022.1.2,Win32,59.44596362,,,space,0.0542,0,41,41,21,1,トマ　ピポ　ルピン,,,CartoonStims/doctor_point_burglar_r.jpg,audio/tomapipolupin.mp3,,,,,,,,,,,,,,,,,,,,,,,,,,,,,,,,,,,,,,,,,,,,,,,,,,,,,,,,,,,,,,,,,,,,,
,,,,,,,,,R_1FCZLEFCbFnDxak,2022-07-09_17h00.05.591,jpn_C02,2022.1.2,Win32,59.44596362,,,space,0.1112,0,42,42,45,1,プミ　ピポ　ムク,,,CartoonStims/doctor_punch_cowboy_r.jpg,audio/pumipipomuku.mp3,,,,,,,,,,,,,,,,,,,,,,,,,,,,,,,,,,,,,,,,,,,,,,,,,,,,,,,,,,,,,,,,,,,,,
,,,,,,,,,R_1FCZLEFCbFnDxak,2022-07-09_17h00.05.591,jpn_C02,2022.1.2,Win32,59.44596362,,,space,0.1515,0,43,43,31,1,パツ　ムク　ルピン,,,CartoonStims/cowboy_shoot_burglar_r.jpg,audio/patsumukulupin.mp3,,,,,,,,,,,,,,,,,,,,,,,,,,,,,,,,,,,,,,,,,,,,,,,,,,,,,,,,,,,,,,,,,,,,,
,,,,,,,,,R_1FCZLEFCbFnDxak,2022-07-09_17h00.05.591,jpn_C02,2022.1.2,Win32,59.44596362,,,space,0.0876,0,44,44,10,1,セル　ドキ　シド,,,CartoonStims/boxer_kick_artist_r.jpg,audio/serudokisido.mp3,,,,,,,,,,,,,,,,,,,,,,,,,,,,,,,,,,,,,,,,,,,,,,,,,,,,,,,,,,,,,,,,,,,,,
,,,,,,,,,R_1FCZLEFCbFnDxak,2022-07-09_17h00.05.591,jpn_C02,2022.1.2,Win32,59.44596362,,,space,0.6703,0,45,45,34,1,パツ　ドキ　ホレト,,,CartoonStims/boxer_shoot_chef_r.jpg,audio/patsudokihoreto.mp3,,,,,,,,,,,,,,,,,,,,,,,,,,,,,,,,,,,,,,,,,,,,,,,,,,,,,,,,,,,,,,,,,,,,,
,,,,,,,,,R_1FCZLEFCbFnDxak,2022-07-09_17h00.05.591,jpn_C02,2022.1.2,Win32,59.44596362,,,space,1.4163,0,46,46,42,1,プミ　ムク　ルピン,,,CartoonStims/cowboy_punch_burglar_r.jpg,audio/pumimukulupin.mp3,,,,,,,,,,,,,,,,,,,,,,,,,,,,,,,,,,,,,,,,,,,,,,,,,,,,,,,,,,,,,,,,,,,,,
,,,,,,,,,R_1FCZLEFCbFnDxak,2022-07-09_17h00.05.591,jpn_C02,2022.1.2,Win32,59.44596362,,,space,3.6423,0,47,47,18,1,トマ　ムク　ドキ,,,CartoonStims/cowboy_point_boxer_r.jpg,audio/tomamukudoki.mp3,,,,,,,,,,,,,,,,,,,,,,,,,,,,,,,,,,,,,,,,,,,,,,,,,,,,,,,,,,,,,,,,,,,,,
,,,,,,,,,R_1FCZLEFCbFnDxak,2022-07-09_17h00.05.591,jpn_C02,2022.1.2,Win32,59.44596362,,,,,,,,,,,,,,,space,0.3172,right,1,1.7698,,,,,,,,,,,,,,,,,,0,0,0,0,1,,,,,,,,,,,,,,,,,,,,,,,,,,,,,,,,,,,,,,,,,,
,,,,,,,,,R_1FCZLEFCbFnDxak,2022-07-09_17h00.05.591,jpn_C02,2022.1.2,Win32,59.44596362,,,,,,,,,,,,,,,,,,,,,,,,,0,0,0,5,1,CartoonStims/cowboy_point_chef_r.jpg,パツ　ムク　ホレト,CartoonStims/cowboy_shoot_chef_r.jpg,right,CartoonStims/cowboy_shoot_chef_r.jpg,audio/patsumukuhoreto.mp3,残念！ こちらが正しい画像です。,,,,,,,,,,,,,,,,,,,,,,,,,,,,,,,,,,,,,,,,,,,,,,,
,,,,,,,,,R_1FCZLEFCbFnDxak,2022-07-09_17h00.05.591,jpn_C02,2022.1.2,Win32,59.44596362,,,,,,,,,,,,,,,,,left,1,2.3355,0,0,0,0,1,,,,,,,,,,,,,,,,,,,,,,,,,,,,,,,,,,,,,,,,,,,,,,,,,,,,,,,,,,,
,,,,,,,,,R_1FCZLEFCbFnDxak,2022-07-09_17h00.05.591,jpn_C02,2022.1.2,Win32,59.44596362,,,,,,,,,,,,,,,,,,,,,,,,,0,1,1,0,1,CartoonStims/doctor_kick_burglar_r.jpg,セル　ピポ　ルピン,CartoonStims/doctor_kick_chef_r.jpg,left,CartoonStims/doctor_kick_burglar_r.jpg,audio/serupipolupin.mp3,残念！ こちらが正しい画像です。,,,,,,,,,,,,,,,,,,,,,,,,,,,,,,,,,,,,,,,,,,,,,,,
,,,,,,,,,R_1FCZLEFCbFnDxak,2022-07-09_17h00.05.591,jpn_C02,2022.1.2,Win32,59.44596362,,,,,,,,,,,,,,,,,left,1,4.2996,0,0,0,0,1,,,,,,,,,,,,,,,,,,,,,,,,,,,,,,,,,,,,,,,,,,,,,,,,,,,,,,,,,,,
,,,,,,,,,R_1FCZLEFCbFnDxak,2022-07-09_17h00.05.591,jpn_C02,2022.1.2,Win32,59.44596362,,,,,,,,,,,,,,,,,,,,,,,,,0,2,2,8,1,CartoonStims/doctor_point_cowboy_r.jpg,トマ　ピポ　ムク,CartoonStims/boxer_point_cowboy_r.jpg,left,CartoonStims/doctor_point_cowboy_r.jpg,audio/tomapipomuku.mp3,残念！ こちらが正しい画像です。,,,,,,,,,,,,,,,,,,,,,,,,,,,,,,,,,,,,,,,,,,,,,,,
,,,,,,,,,R_1FCZLEFCbFnDxak,2022-07-09_17h00.05.591,jpn_C02,2022.1.2,Win32,59.44596362,,,,,,,,,,,,,,,,,right,1,6.3023,,,,,,,,,,,,,,,,,,0,0,0,0,1,,,,,,,,,,,,,,,,,,,,,,,,,,,,,,,,,,,,,,,,,,
,,,,,,,,,R_1FCZLEFCbFnDxak,2022-07-09_17h00.05.591,jpn_C02,2022.1.2,Win32,59.44596362,,,,,,,,,,,,,,,,,,,,,,,,,0,3,3,11,1,CartoonStims/burglar_punch_cowboy_r.jpg,プミ　ホレト　ムク,CartoonStims/chef_punch_cowboy_r.jpg,right,CartoonStims/chef_punch_cowboy_r.jpg,audio/pumihoretomuku.mp3,残念！ こちらが正しい画像です。,,,,,,,,,,,,,,,,,,,,,,,,,,,,,,,,,,,,,,,,,,,,,,,
,,,,,,,,,R_1FCZLEFCbFnDxak,2022-07-09_17h00.05.591,jpn_C02,2022.1.2,Win32,59.44596362,,,,,,,,,,,,,,,,,left,1,2.4249,0,0,0,0,1,,,,,,,,,,,,,,,,,,,,,,,,,,,,,,,,,,,,,,,,,,,,,,,,,,,,,,,,,,,
,,,,,,,,,R_1FCZLEFCbFnDxak,2022-07-09_17h00.05.591,jpn_C02,2022.1.2,Win32,59.44596362,,,,,,,,,,,,,,,,,,,,,,,,,0,4,4,10,1,CartoonStims/artist_shoot_burglar_r.jpg,パツ　シド　ルピン,CartoonStims/chef_shoot_burglar_r.jpg,left,CartoonStims/artist_shoot_burglar_r.jpg,audio/patsusidolupin.mp3,残念！ こちらが正しい画像です。,,,,,,,,,,,,,,,,,,,,,,,,,,,,,,,,,,,,,,,,,,,,,,,
,,,,,,,,,R_1FCZLEFCbFnDxak,2022-07-09_17h00.05.591,jpn_C02,2022.1.2,Win32,59.44596362,,,,,,,,,,,,,,,,,left,1,1.4597,0,0,0,0,1,,,,,,,,,,,,,,,,,,,,,,,,,,,,,,,,,,,,,,,,,,,,,,,,,,,,,,,,,,,
,,,,,,,,,R_1FCZLEFCbFnDxak,2022-07-09_17h00.05.591,jpn_C02,2022.1.2,Win32,59.44596362,,,,,,,,,,,,,,,,,,,,,,,,,0,5,5,4,1,CartoonStims/burglar_point_boxer_r.jpg,トマ　ルピン　ドキ,CartoonStims/burglar_kick_boxer_r.jpg,left,CartoonStims/burglar_point_boxer_r.jpg,audio/tomalupindoki.mp3,残念！ こちらが正しい画像です。,,,,,,,,,,,,,,,,,,,,,,,,,,,,,,,,,,,,,,,,,,,,,,,
,,,,,,,,,R_1FCZLEFCbFnDxak,2022-07-09_17h00.05.591,jpn_C02,2022.1.2,Win32,59.44596362,,,,,,,,,,,,,,,,,right,1,3.4254,,,,,,,,,,,,,,,,,,0,0,0,0,1,,,,,,,,,,,,,,,,,,,,,,,,,,,,,,,,,,,,,,,,,,
,,,,,,,,,R_1FCZLEFCbFnDxak,2022-07-09_17h00.05.591,jpn_C02,2022.1.2,Win32,59.44596362,,,,,,,,,,,,,,,,,,,,,,,,,0,6,6,9,1,CartoonStims/chef_kick_artist_r.jpg,セル　ムク　シド,CartoonStims/cowboy_kick_artist_r.jpg,right,CartoonStims/cowboy_kick_artist_r.jpg,audio/serumukusido.mp3,残念！ こちらが正しい画像です。,,,,,,,,,,,,,,,,,,,,,,,,,,,,,,,,,,,,,,,,,,,,,,,
,,,,,,,,,R_1FCZLEFCbFnDxak,2022-07-09_17h00.05.591,jpn_C02,2022.1.2,Win32,59.44596362,,,,,,,,,,,,,,,,,right,1,4.7646,,,,,,,,,,,,,,,,,,0,0,0,0,1,,,,,,,,,,,,,,,,,,,,,,,,,,,,,,,,,,,,,,,,,,
,,,,,,,,,R_1FCZLEFCbFnDxak,2022-07-09_17h00.05.591,jpn_C02,2022.1.2,Win32,59.44596362,,,,,,,,,,,,,,,,,,,,,,,,,0,7,7,3,1,CartoonStims/cowboy_punch_doctor_r.jpg,プミ　ムク　ドキ,CartoonStims/cowboy_punch_boxer_r.jpg,right,CartoonStims/cowboy_punch_boxer_r.jpg,audio/pumimukudoki.mp3,残念！ こちらが正しい画像です。,,,,,,,,,,,,,,,,,,,,,,,,,,,,,,,,,,,,,,,,,,,,,,,
,,,,,,,,,R_1FCZLEFCbFnDxak,2022-07-09_17h00.05.591,jpn_C02,2022.1.2,Win32,59.44596362,,,,,,,,,,,,,,,,,right,1,0.7632,,,,,,,,,,,,,,,,,,0,0,0,0,1,,,,,,,,,,,,,,,,,,,,,,,,,,,,,,,,,,,,,,,,,,
,,,,,,,,,R_1FCZLEFCbFnDxak,2022-07-09_17h00.05.591,jpn_C02,2022.1.2,Win32,59.44596362,,,,,,,,,,,,,,,,,,,,,,,,,0,8,8,7,1,CartoonStims/artist_punch_cowboy_r.jpg,セル　シド　ムク,CartoonStims/artist_kick_cowboy_r.jpg,right,CartoonStims/artist_kick_cowboy_r.jpg,audio/serusidomuku.mp3,残念！ こちらが正しい画像です。,,,,,,,,,,,,,,,,,,,,,,,,,,,,,,,,,,,,,,,,,,,,,,,
,,,,,,,,,R_1FCZLEFCbFnDxak,2022-07-09_17h00.05.591,jpn_C02,2022.1.2,Win32,59.44596362,,,,,,,,,,,,,,,,,left,1,2.6345,0,0,0,0,1,,,,,,,,,,,,,,,,,,,,,,,,,,,,,,,,,,,,,,,,,,,,,,,,,,,,,,,,,,,
,,,,,,,,,R_1FCZLEFCbFnDxak,2022-07-09_17h00.05.591,jpn_C02,2022.1.2,Win32,59.44596362,,,,,,,,,,,,,,,,,,,,,,,,,0,9,9,2,1,CartoonStims/boxer_shoot_doctor_r.jpg,パツ　ドキ　ピポ,CartoonStims/boxer_shoot_artist_r.jpg,left,CartoonStims/boxer_shoot_doctor_r.jpg,audio/patsudokipipo.mp3,残念！ こちらが正しい画像です。,,,,,,,,,,,,,,,,,,,,,,,,,,,,,,,,,,,,,,,,,,,,,,,
,,,,,,,,,R_1FCZLEFCbFnDxak,2022-07-09_17h00.05.591,jpn_C02,2022.1.2,Win32,59.44596362,,,,,,,,,,,,,,,,,right,0,2.3727,,,,,,,,,,,,,,,,,,,,,,,,,,,,,,,,,,,,,,,,,,,,,,,,,,,,,,,,,0,0,0,0,1,,,
,,,,,,,,,R_1FCZLEFCbFnDxak,2022-07-09_17h00.05.591,jpn_C02,2022.1.2,Win32,59.44596362,,,,,,,,,,,,,,,,,,,,,,,,,0,10,10,6,1,CartoonStims/doctor_punch_boxer_r.jpg,プミ　ピポ　ドキ,CartoonStims/doctor_shoot_boxer_r.jpg,left,CartoonStims/doctor_punch_boxer_r.jpg,audio/pumipipodoki.mp3,残念！ こちらが正しい画像です。,,,,,,,,,,,,,,,,,,,,,,,,,,,,,,,,,,,,,,,,,,,,,,,
,,,,,,,,,R_1FCZLEFCbFnDxak,2022-07-09_17h00.05.591,jpn_C02,2022.1.2,Win32,59.44596362,,,,,,,,,,,,,,,,,right,1,2.9109,,,,,,,,,,,,,,,,,,0,0,0,0,1,,,,,,,,,,,,,,,,,,,,,,,,,,,,,,,,,,,,,,,,,,
,,,,,,,,,R_1FCZLEFCbFnDxak,2022-07-09_17h00.05.591,jpn_C02,2022.1.2,Win32,59.44596362,,,,,,,,,,,,,,,,,,,,,,,,,0,11,11,1,1,CartoonStims/chef_point_burglar_r.jpg,トマ　ホレト　シド,CartoonStims/chef_point_artist_r.jpg,right,CartoonStims/chef_point_artist_r.jpg,audio/tomahoretosido.mp3,残念！ こちらが正しい画像です。,,,,,,,,,,,,,,,,,,,,,,,,,,,,,,,,,,,,,,,,,,,,,,,
,,,,,,,,,R_1FCZLEFCbFnDxak,2022-07-09_17h00.05.591,jpn_C02,2022.1.2,Win32,59.44596362,,,,,,,,,,,,,,,,,,,,,,,,,,,,,,,,,,,,,,,,,,space,3.101,トマ　ホレト　ルピン,right,15.5874,0,0,0,0,1,,,,,,,,,,,,,,,,,,,,,,,,,,,,,,,,
,,,,,,,,,R_1FCZLEFCbFnDxak,2022-07-09_17h00.05.591,jpn_C02,2022.1.2,Win32,59.44596362,,,,,,,,,,,,,CartoonStims/chef_point_burglar_r.jpg,audio/tomahoretolupin.mp3,,,,,,,,,,,,,,,,,,,,,,,,,,,,,,,,,,,,,,0,0,0,5,1,トマ　ホレト　ルピン,,,,,,,,,,,,,,,,,,,,,,,,,,
,,,,,,,,,R_1FCZLEFCbFnDxak,2022-07-09_17h00.05.591,jpn_C02,2022.1.2,Win32,59.44596362,,,,,,,,,,,,,,,,,,,,,,,,,,,,,,,,,,,,,,,,,,,,セル　時　ムク,right,5.0078,0,0,0,0,1,,,,,,,,,,,,,,,,,,,,,,,,,,,,,,,,
,,,,,,,,,R_1FCZLEFCbFnDxak,2022-07-09_17h00.05.591,jpn_C02,2022.1.2,Win32,59.44596362,,,,,,,,,,,,,CartoonStims/boxer_kick_cowboy_r.jpg,audio/serudokimuku.mp3,,,,,,,,,,,,,,,,,,,,,,,,,,,,,,,,,,,,,,0,1,1,2,1,セル　ドキ　ムク,,,,,,,,,,,,,,,,,,,,,,,,,,
,,,,,,,,,R_1FCZLEFCbFnDxak,2022-07-09_17h00.05.591,jpn_C02,2022.1.2,Win32,59.44596362,,,,,,,,,,,,,,,,,,,,,,,,,,,,,,,,,,,,,,,,,,,,セル　ピポ　ホレト,right,20.6546,0,0,0,0,1,,,,,,,,,,,,,,,,,,,,,,,,,,,,,,,,
,,,,,,,,,R_1FCZLEFCbFnDxak,2022-07-09_17h00.05.591,jpn_C02,2022.1.2,Win32,59.44596362,,,,,,,,,,,,,CartoonStims/doctor_kick_chef_r.jpg,audio/serupipohoreto.mp3,,,,,,,,,,,,,,,,,,,,,,,,,,,,,,,,,,,,,,0,2,2,1,1,セル　ピポ　ホレト,,,,,,,,,,,,,,,,,,,,,,,,,,
,,,,,,,,,R_1FCZLEFCbFnDxak,2022-07-09_17h00.05.591,jpn_C02,2022.1.2,Win32,59.44596362,,,,,,,,,,,,,,,,,,,,,,,,,,,,,,,,,,,,,,,,,,,,,right,39.296,0,0,0,0,1,,,,,,,,,,,,,,,,,,,,,,,,,,,,,,,,
,,,,,,,,,R_1FCZLEFCbFnDxak,2022-07-09_17h00.05.591,jpn_C02,2022.1.2,Win32,59.44596362,,,,,,,,,,,,,CartoonStims/boxer_punch_artist_r.jpg,audio/pumidokisido.mp3,,,,,,,,,,,,,,,,,,,,,,,,,,,,,,,,,,,,,,0,3,3,11,1,プミ　ドキ　シド,,,,,,,,,,,,,,,,,,,,,,,,,,
,,,,,,,,,R_1FCZLEFCbFnDxak,2022-07-09_17h00.05.591,jpn_C02,2022.1.2,Win32,59.44596362,,,,,,,,,,,,,,,,,,,,,,,,,,,,,,,,,,,,,,,,,,,,プミ　シド　ルピン,right,13.8432,0,0,0,0,1,,,,,,,,,,,,,,,,,,,,,,,,,,,,,,,,
,,,,,,,,,R_1FCZLEFCbFnDxak,2022-07-09_17h00.05.591,jpn_C02,2022.1.2,Win32,59.44596362,,,,,,,,,,,,,CartoonStims/artist_punch_burglar_r.jpg,audio/pumisidolupin.mp3,,,,,,,,,,,,,,,,,,,,,,,,,,,,,,,,,,,,,,0,4,4,9,1,プミ　シド　ルピン,,,,,,,,,,,,,,,,,,,,,,,,,,
,,,,,,,,,R_1FCZLEFCbFnDxak,2022-07-09_17h00.05.591,jpn_C02,2022.1.2,Win32,59.44596362,,,,,,,,,,,,,,,,,,,,,,,,,,,,,,,,,,,,,,,,,,,,セル　シド　ルピン,right,7.2267,0,0,0,0,1,,,,,,,,,,,,,,,,,,,,,,,,,,,,,,,,
,,,,,,,,,R_1FCZLEFCbFnDxak,2022-07-09_17h00.05.591,jpn_C02,2022.1.2,Win32,59.44596362,,,,,,,,,,,,,CartoonStims/cowboy_kick_burglar_r.jpg,audio/serumukulupin.mp3,,,,,,,,,,,,,,,,,,,,,,,,,,,,,,,,,,,,,,0,5,5,0,1,セル　ムク　ルピン,,,,,,,,,,,,,,,,,,,,,,,,,,
,,,,,,,,,R_1FCZLEFCbFnDxak,2022-07-09_17h00.05.591,jpn_C02,2022.1.2,Win32,59.44596362,,,,,,,,,,,,,,,,,,,,,,,,,,,,,,,,,,,,,,,,,,,,パツ　ムク　ピポ,right,20.0878,0,0,0,0,1,,,,,,,,,,,,,,,,,,,,,,,,,,,,,,,,
,,,,,,,,,R_1FCZLEFCbFnDxak,2022-07-09_17h00.05.591,jpn_C02,2022.1.2,Win32,59.44596362,,,,,,,,,,,,,CartoonStims/cowboy_shoot_doctor_r.jpg,audio/patsumukupipo.mp3,,,,,,,,,,,,,,,,,,,,,,,,,,,,,,,,,,,,,,0,6,6,8,1,パツ　ムク　ピポ,,,,,,,,,,,,,,,,,,,,,,,,,,
,,,,,,,,,R_1FCZLEFCbFnDxak,2022-07-09_17h00.05.591,jpn_C02,2022.1.2,Win32,59.44596362,,,,,,,,,,,,,,,,,,,,,,,,,,,,,,,,,,,,,,,,,,,,パツ　ホレト　ムク,right,13.3235,0,0,0,0,1,,,,,,,,,,,,,,,,,,,,,,,,,,,,,,,,
,,,,,,,,,R_1FCZLEFCbFnDxak,2022-07-09_17h00.05.591,jpn_C02,2022.1.2,Win32,59.44596362,,,,,,,,,,,,,CartoonStims/chef_shoot_cowboy_r.jpg,audio/patsuhoretomuku.mp3,,,,,,,,,,,,,,,,,,,,,,,,,,,,,,,,,,,,,,0,7,7,7,1,パツ　ホレト　ムク,,,,,,,,,,,,,,,,,,,,,,,,,,
,,,,,,,,,R_1FCZLEFCbFnDxak,2022-07-09_17h00.05.591,jpn_C02,2022.1.2,Win32,59.44596362,,,,,,,,,,,,,,,,,,,,,,,,,,,,,,,,,,,,,,,,,,,,トマ　シド　ドキ,right,13.6933,0,0,0,0,1,,,,,,,,,,,,,,,,,,,,,,,,,,,,,,,,
,,,,,,,,,R_1FCZLEFCbFnDxak,2022-07-09_17h00.05.591,jpn_C02,2022.1.2,Win32,59.44596362,,,,,,,,,,,,,CartoonStims/artist_point_boxer_r.jpg,audio/tomasidodoki.mp3,,,,,,,,,,,,,,,,,,,,,,,,,,,,,,,,,,,,,,0,8,8,3,1,トマ　シド　ドキ,,,,,,,,,,,,,,,,,,,,,,,,,,
,,,,,,,,,R_1FCZLEFCbFnDxak,2022-07-09_17h00.05.591,jpn_C02,2022.1.2,Win32,59.44596362,,,,,,,,,,,,,,,,,,,,,,,,,,,,,,,,,,,,,,,,,,,,トマ　ルピン　シド,right,9.9631,0,0,0,0,1,,,,,,,,,,,,,,,,,,,,,,,,,,,,,,,,
,,,,,,,,,R_1FCZLEFCbFnDxak,2022-07-09_17h00.05.591,jpn_C02,2022.1.2,Win32,59.44596362,,,,,,,,,,,,,CartoonStims/burglar_point_artist_r.jpg,audio/tomalupinsido.mp3,,,,,,,,,,,,,,,,,,,,,,,,,,,,,,,,,,,,,,0,9,9,4,1,トマ　ルピン　シド,,,,,,,,,,,,,,,,,,,,,,,,,,
,,,,,,,,,R_1FCZLEFCbFnDxak,2022-07-09_17h00.05.591,jpn_C02,2022.1.2,Win32,59.44596362,,,,,,,,,,,,,,,,,,,,,,,,,,,,,,,,,,,,,,,,,,,,ムク　ピポ　ドキ,right,19.2529,0,0,0,0,1,,,,,,,,,,,,,,,,,,,,,,,,,,,,,,,,
,,,,,,,,,R_1FCZLEFCbFnDxak,2022-07-09_17h00.05.591,jpn_C02,2022.1.2,Win32,59.44596362,,,,,,,,,,,,,CartoonStims/doctor_punch_boxer_r.jpg,audio/pumipipodoki.mp3,,,,,,,,,,,,,,,,,,,,,,,,,,,,,,,,,,,,,,0,10,10,10,1,プミ　ピポ　ドキ,,,,,,,,,,,,,,,,,,,,,,,,,,
,,,,,,,,,R_1FCZLEFCbFnDxak,2022-07-09_17h00.05.591,jpn_C02,2022.1.2,Win32,59.44596362,,,,,,,,,,,,,,,,,,,,,,,,,,,,,,,,,,,,,,,,,,,,パツ　ルピン　ホレト,right,14.6355,0,0,0,0,1,,,,,,,,,,,,,,,,,,,,,,,,,,,,,,,,
,,,,,,,,,R_1FCZLEFCbFnDxak,2022-07-09_17h00.05.591,jpn_C02,2022.1.2,Win32,59.44596362,,,,,,,,,,,,,CartoonStims/burglar_shoot_chef_r.jpg,audio/patsulupinhoreto.mp3,,,,,,,,,,,,,,,,,,,,,,,,,,,,,,,,,,,,,,0,11,11,6,1,パツ　ルピン　ホレト,,,,,,,,,,,,,,,,,,,,,,,,,,
,,,,,,,,,R_1FCZLEFCbFnDxak,2022-07-09_17h00.05.591,jpn_C02,2022.1.2,Win32,59.44596362,,,,,,,,,,,,,,,,,,,,,,,,,,,,,,,,,,,,,,,,,,,,,,,,,,,,,,,,,,,space,0.2899,0,1,1,1,1,AffExposure.xlsx,"第二のトライアルの学習では、この言語で書かれた文を見ていただきます。引き続き注意して、 聞こえた音を復唱してください。


スペースキーを押してください。",1,AffFCT.xlsx,ここからクイズが始まります。 スクリーンに表示されるテキストに合う画像を選んでください。,AffTest.xlsx,1,次にここまで学んだことをアウトプットしていただきます。 表示される画像を描写していると思う単語を、テキストボックスにタイプしてください。 答えを提出したあとに正しい正解が少しの間画面に写ります。,1,"これで第二のトライアルが終了しました。 ここで休憩をとっていただいても構いません。

休憩が終わりましたら、 スペースキーを押して続きの学習を行いましょう。",,,,,,,,
,,,,,,,,,R_1FCZLEFCbFnDxak,2022-07-09_17h00.05.591,jpn_C02,2022.1.2,Win32,59.44596362,space,1.767,space,4.5362,0,0,0,8,1,セル　ピク　ピポ　ドキ,,,CartoonStims/doctor_kick_boxer_r_no.jpg,audio/serupikupipodoki.mp3,,,,,,,,,,,,,,,,,,,,,,,,,,,,,,,,,,,,,,,,,,,,,,,,,,,,,,,,,,,,,,,,,,,,,
,,,,,,,,,R_1FCZLEFCbFnDxak,2022-07-09_17h00.05.591,jpn_C02,2022.1.2,Win32,59.44596362,,,space,7.3809,0,1,1,2,1,ピク　セル　ルピン　ホレト,,,CartoonStims/burglar_kick_chef_r_no.jpg,audio/pikuserulupinhoreto.mp3,,,,,,,,,,,,,,,,,,,,,,,,,,,,,,,,,,,,,,,,,,,,,,,,,,,,,,,,,,,,,,,,,,,,,
,,,,,,,,,R_1FCZLEFCbFnDxak,2022-07-09_17h00.05.591,jpn_C02,2022.1.2,Win32,59.44596362,,,space,1.134,0,2,2,1,1,ピク　セル　シド　ホレト,,,CartoonStims/artist_kick_chef_r_no.jpg,audio/pikuserusidohoreto.mp3,,,,,,,,,,,,,,,,,,,,,,,,,,,,,,,,,,,,,,,,,,,,,,,,,,,,,,,,,,,,,,,,,,,,,
,,,,,,,,,R_1FCZLEFCbFnDxak,2022-07-09_17h00.05.591,jpn_C02,2022.1.2,Win32,59.44596362,,,space,45.0217,0,3,3,32,1,ピク　パツ　ピポ　ルピン,,,CartoonStims/doctor_shoot_burglar_r_no.jpg,audio/pikupatsupipolupin.mp3,,,,,,,,,,,,,,,,,,,,,,,,,,,,,,,,,,,,,,,,,,,,,,,,,,,,,,,,,,,,,,,,,,,,,
,,,,,,,,,R_1FCZLEFCbFnDxak,2022-07-09_17h00.05.591,jpn_C02,2022.1.2,Win32,59.44596362,,,space,11.0897,0,4,4,19,1,トマ　ピク　ムク　シド,,,CartoonStims/cowboy_point_artist_r_no.jpg,audio/tomapikumukusido.mp3,,,,,,,,,,,,,,,,,,,,,,,,,,,,,,,,,,,,,,,,,,,,,,,,,,,,,,,,,,,,,,,,,,,,,
,,,,,,,,,R_1FCZLEFCbFnDxak,2022-07-09_17h00.05.591,jpn_C02,2022.1.2,Win32,59.44596362,,,space,3.4197,0,5,5,23,1,トマ　ピク　ドキ　ホレト,,,CartoonStims/boxer_point_chef_r_no.jpg,audio/tomapikudokihoreto.mp3,,,,,,,,,,,,,,,,,,,,,,,,,,,,,,,,,,,,,,,,,,,,,,,,,,,,,,,,,,,,,,,,,,,,,
,,,,,,,,,R_1FCZLEFCbFnDxak,2022-07-09_17h00.05.591,jpn_C02,2022.1.2,Win32,59.44596362,,,space,10.3309,0,6,6,13,1,ピク　トマ　シド　ムク,,,CartoonStims/artist_point_cowboy_r_no.jpg,audio/pikutomasidomuku.mp3,,,,,,,,,,,,,,,,,,,,,,,,,,,,,,,,,,,,,,,,,,,,,,,,,,,,,,,,,,,,,,,,,,,,,
,,,,,,,,,R_1FCZLEFCbFnDxak,2022-07-09_17h00.05.591,jpn_C02,2022.1.2,Win32,59.44596362,,,space,16.8987,0,7,7,40,1,ピク　プミ　ホレト　シド,,,CartoonStims/chef_punch_artist_r_no.jpg,audio/pikupumihoretosido.mp3,,,,,,,,,,,,,,,,,,,,,,,,,,,,,,,,,,,,,,,,,,,,,,,,,,,,,,,,,,,,,,,,,,,,,
,,,,,,,,,R_1FCZLEFCbFnDxak,2022-07-09_17h00.05.591,jpn_C02,2022.1.2,Win32,59.44596362,,,space,2.1012,0,8,8,7,1,ピク　セル　ムク　ドキ,,,CartoonStims/cowboy_kick_boxer_r_no.jpg,audio/pikuserumukudoki.mp3,,,,,,,,,,,,,,,,,,,,,,,,,,,,,,,,,,,,,,,,,,,,,,,,,,,,,,,,,,,,,,,,,,,,,
,,,,,,,,,R_1FCZLEFCbFnDxak,2022-07-09_17h00.05.591,jpn_C02,2022.1.2,Win32,59.44596362,,,space,4.9524,0,9,9,29,1,パツ　ピク　ホレト　シド,,,CartoonStims/chef_shoot_artist_r_no.jpg,audio/patsupikuhoretosido.mp3,,,,,,,,,,,,,,,,,,,,,,,,,,,,,,,,,,,,,,,,,,,,,,,,,,,,,,,,,,,,,,,,,,,,,
,,,,,,,,,R_1FCZLEFCbFnDxak,2022-07-09_17h00.05.591,jpn_C02,2022.1.2,Win32,59.44596362,,,space,7.0504,0,10,10,21,1,ピク　トマ　ピポ　ルピン,,,CartoonStims/doctor_point_burglar_r_no.jpg,audio/pikutomapipolupin.mp3,,,,,,,,,,,,,,,,,,,,,,,,,,,,,,,,,,,,,,,,,,,,,,,,,,,,,,,,,,,,,,,,,,,,,
,,,,,,,,,R_1FCZLEFCbFnDxak,2022-07-09_17h00.05.591,jpn_C02,2022.1.2,Win32,59.44596362,,,space,10.9164,0,11,11,15,1,トマ　ピク　ルピン　ピポ,,,CartoonStims/burglar_point_doctor_r_no.jpg,audio/tomapikulupinpipo.mp3,,,,,,,,,,,,,,,,,,,,,,,,,,,,,,,,,,,,,,,,,,,,,,,,,,,,,,,,,,,,,,,,,,,,,
,,,,,,,,,R_1FCZLEFCbFnDxak,2022-07-09_17h00.05.591,jpn_C02,2022.1.2,Win32,59.44596362,,,space,8.0154,0,12,12,16,1,ピク　トマ　ホレト　ピポ,,,CartoonStims/chef_point_doctor_r_no.jpg,audio/pikutomahoretopipo.mp3,,,,,,,,,,,,,,,,,,,,,,,,,,,,,,,,,,,,,,,,,,,,,,,,,,,,,,,,,,,,,,,,,,,,,
,,,,,,,,,R_1FCZLEFCbFnDxak,2022-07-09_17h00.05.591,jpn_C02,2022.1.2,Win32,59.44596362,,,space,2.0585,0,13,13,28,1,ピク　パツ　ホレト　ドキ,,,CartoonStims/chef_shoot_boxer_r_no.jpg,audio/pikupatsuhoretodoki.mp3,,,,,,,,,,,,,,,,,,,,,,,,,,,,,,,,,,,,,,,,,,,,,,,,,,,,,,,,,,,,,,,,,,,,,
,,,,,,,,,R_1FCZLEFCbFnDxak,2022-07-09_17h00.05.591,jpn_C02,2022.1.2,Win32,59.44596362,,,space,1.8349,0,14,14,5,1,ピク　セル　ホレト　ピポ,,,CartoonStims/chef_kick_doctor_r_no.jpg,audio/pikuseruhoretopipo.mp3,,,,,,,,,,,,,,,,,,,,,,,,,,,,,,,,,,,,,,,,,,,,,,,,,,,,,,,,,,,,,,,,,,,,,
,,,,,,,,,R_1FCZLEFCbFnDxak,2022-07-09_17h00.05.591,jpn_C02,2022.1.2,Win32,59.44596362,,,space,2.0369,0,15,15,41,1,ピク　プミ　ホレト　ルピン,,,CartoonStims/chef_punch_burglar_r_no.jpg,audio/pikupumihoretolupin.mp3,,,,,,,,,,,,,,,,,,,,,,,,,,,,,,,,,,,,,,,,,,,,,,,,,,,,,,,,,,,,,,,,,,,,,
,,,,,,,,,R_1FCZLEFCbFnDxak,2022-07-09_17h00.05.591,jpn_C02,2022.1.2,Win32,59.44596362,,,space,2.0008,0,16,16,14,1,ピク　トマ　ルピン　ムク,,,CartoonStims/burglar_point_cowboy_r_no.jpg,audio/pikutomalupinmuku.mp3,,,,,,,,,,,,,,,,,,,,,,,,,,,,,,,,,,,,,,,,,,,,,,,,,,,,,,,,,,,,,,,,,,,,,
,,,,,,,,,R_1FCZLEFCbFnDxak,2022-07-09_17h00.05.591,jpn_C02,2022.1.2,Win32,59.44596362,,,space,1.5658,0,17,17,38,1,ピク　プミ　ルピン　ドキ,,,CartoonStims/burglar_punch_boxer_r_no.jpg,audio/pikupumilupindoki.mp3,,,,,,,,,,,,,,,,,,,,,,,,,,,,,,,,,,,,,,,,,,,,,,,,,,,,,,,,,,,,,,,,,,,,,
,,,,,,,,,R_1FCZLEFCbFnDxak,2022-07-09_17h00.05.591,jpn_C02,2022.1.2,Win32,59.44596362,,,space,1.9383,0,18,18,12,1,ピク　トマ　シド　ホレト,,,CartoonStims/artist_point_chef_r_no.jpg,audio/pikutomasidohoreto.mp3,,,,,,,,,,,,,,,,,,,,,,,,,,,,,,,,,,,,,,,,,,,,,,,,,,,,,,,,,,,,,,,,,,,,,
,,,,,,,,,R_1FCZLEFCbFnDxak,2022-07-09_17h00.05.591,jpn_C02,2022.1.2,Win32,59.44596362,,,space,2.9296,0,19,19,39,1,ピク　プミ　ルピン　シド,,,CartoonStims/burglar_punch_artist_r_no.jpg,audio/pikupumilupinsido.mp3,,,,,,,,,,,,,,,,,,,,,,,,,,,,,,,,,,,,,,,,,,,,,,,,,,,,,,,,,,,,,,,,,,,,,
,,,,,,,,,R_1FCZLEFCbFnDxak,2022-07-09_17h00.05.591,jpn_C02,2022.1.2,Win32,59.44596362,,,space,1.7859,0,20,20,9,1,ピク　セル　ピポ　シド,,,CartoonStims/doctor_kick_artist_r_no.jpg,audio/pikuserupiposido.mp3,,,,,,,,,,,,,,,,,,,,,,,,,,,,,,,,,,,,,,,,,,,,,,,,,,,,,,,,,,,,,,,,,,,,,
,,,,,,,,,R_1FCZLEFCbFnDxak,2022-07-09_17h00.05.591,jpn_C02,2022.1.2,Win32,59.44596362,,,space,1.4287,0,21,21,34,1,ピク　パツ　ドキ　ホレト,,,CartoonStims/boxer_shoot_chef_r_no.jpg,audio/pikupatsudokihoreto.mp3,,,,,,,,,,,,,,,,,,,,,,,,,,,,,,,,,,,,,,,,,,,,,,,,,,,,,,,,,,,,,,,,,,,,,
,,,,,,,,,R_1FCZLEFCbFnDxak,2022-07-09_17h00.05.591,jpn_C02,2022.1.2,Win32,59.44596362,,,space,2.1347,0,22,22,37,1,ピク　プミ　シド　ドキ,,,CartoonStims/artist_punch_boxer_r_no.jpg,audio/pikupumisidodoki.mp3,,,,,,,,,,,,,,,,,,,,,,,,,,,,,,,,,,,,,,,,,,,,,,,,,,,,,,,,,,,,,,,,,,,,,
,,,,,,,,,R_1FCZLEFCbFnDxak,2022-07-09_17h00.05.591,jpn_C02,2022.1.2,Win32,59.44596362,,,space,1.6101,0,23,23,36,1,ピク　プミ　シド　ピポ,,,CartoonStims/artist_punch_doctor_r_no.jpg,audio/pikupumisidopipo.mp3,,,,,,,,,,,,,,,,,,,,,,,,,,,,,,,,,,,,,,,,,,,,,,,,,,,,,,,,,,,,,,,,,,,,,
,,,,,,,,,R_1FCZLEFCbFnDxak,2022-07-09_17h00.05.591,jpn_C02,2022.1.2,Win32,59.44596362,,,space,4.4094,0,24,24,18,1,ピク　トマ　ムク　ドキ,,,CartoonStims/cowboy_point_boxer_r_no.jpg,audio/pikutomamukudoki.mp3,,,,,,,,,,,,,,,,,,,,,,,,,,,,,,,,,,,,,,,,,,,,,,,,,,,,,,,,,,,,,,,,,,,,,
,,,,,,,,,R_1FCZLEFCbFnDxak,2022-07-09_17h00.05.591,jpn_C02,2022.1.2,Win32,59.44596362,,,space,3.5994,0,25,25,47,1,ピク　プミ　ドキ　ピポ,,,CartoonStims/boxer_punch_doctor_r_no.jpg,audio/pikupumidokipipo.mp3,,,,,,,,,,,,,,,,,,,,,,,,,,,,,,,,,,,,,,,,,,,,,,,,,,,,,,,,,,,,,,,,,,,,,
,,,,,,,,,R_1FCZLEFCbFnDxak,2022-07-09_17h00.05.591,jpn_C02,2022.1.2,Win32,59.44596362,,,space,1.2607,0,26,26,11,1,ピク　セル　ドキ　ルピン,,,CartoonStims/boxer_kick_burglar_r_no.jpg,audio/pikuserudokilupin.mp3,,,,,,,,,,,,,,,,,,,,,,,,,,,,,,,,,,,,,,,,,,,,,,,,,,,,,,,,,,,,,,,,,,,,,
,,,,,,,,,R_1FCZLEFCbFnDxak,2022-07-09_17h00.05.591,jpn_C02,2022.1.2,Win32,59.44596362,,,space,10.2186,0,27,27,0,1,セル　ピク　シド　ルピン,,,CartoonStims/artist_kick_burglar_r_no.jpg,audio/serupikusidolupin.mp3,,,,,,,,,,,,,,,,,,,,,,,,,,,,,,,,,,,,,,,,,,,,,,,,,,,,,,,,,,,,,,,,,,,,,
,,,,,,,,,R_1FCZLEFCbFnDxak,2022-07-09_17h00.05.591,jpn_C02,2022.1.2,Win32,59.44596362,,,space,2.0169,0,28,28,45,1,ピク　プミ　ピポ　ムク,,,CartoonStims/doctor_punch_cowboy_r_no.jpg,audio/pikupumipipomuku.mp3,,,,,,,,,,,,,,,,,,,,,,,,,,,,,,,,,,,,,,,,,,,,,,,,,,,,,,,,,,,,,,,,,,,,,
,,,,,,,,,R_1FCZLEFCbFnDxak,2022-07-09_17h00.05.591,jpn_C02,2022.1.2,Win32,59.44596362,,,space,3.6161,0,29,29,35,1,ピク　パツ　ドキ　ムク,,,CartoonStims/boxer_shoot_cowboy_r_no.jpg,audio/pikupatsudokimuku.mp3,,,,,,,,,,,,,,,,,,,,,,,,,,,,,,,,,,,,,,,,,,,,,,,,,,,,,,,,,,,,,,,,,,,,,
,,,,,,,,,R_1FCZLEFCbFnDxak,2022-07-09_17h00.05.591,jpn_C02,2022.1.2,Win32,59.44596362,,,space,2.4897,0,30,30,3,1,ピク　セル　ルピン　ムク,,,CartoonStims/burglar_kick_cowboy_r_no.jpg,audio/pikuserulupinmuku.mp3,,,,,,,,,,,,,,,,,,,,,,,,,,,,,,,,,,,,,,,,,,,,,,,,,,,,,,,,,,,,,,,,,,,,,
,,,,,,,,,R_1FCZLEFCbFnDxak,2022-07-09_17h00.05.591,jpn_C02,2022.1.2,Win32,59.44596362,,,space,4.402,0,31,31,25,1,パツ　ピク　シド　ピポ,,,CartoonStims/artist_shoot_doctor_r_no.jpg,audio/patsupikusidopipo.mp3,,,,,,,,,,,,,,,,,,,,,,,,,,,,,,,,,,,,,,,,,,,,,,,,,,,,,,,,,,,,,,,,,,,,,
,,,,,,,,,R_1FCZLEFCbFnDxak,2022-07-09_17h00.05.591,jpn_C02,2022.1.2,Win32,59.44596362,,,space,1.7159,0,32,32,33,1,ピク　パツ　ピポ　ホレト,,,CartoonStims/doctor_shoot_chef_r_no.jpg,audio/pikupatsupipohoreto.mp3,,,,,,,,,,,,,,,,,,,,,,,,,,,,,,,,,,,,,,,,,,,,,,,,,,,,,,,,,,,,,,,,,,,,,
,,,,,,,,,R_1FCZLEFCbFnDxak,2022-07-09_17h00.05.591,jpn_C02,2022.1.2,Win32,59.44596362,,,space,2.1595,0,33,33,46,1,プミ　ピク　ドキ　ムク,,,CartoonStims/boxer_punch_cowboy_r_no.jpg,audio/pumipikudokimuku.mp3,,,,,,,,,,,,,,,,,,,,,,,,,,,,,,,,,,,,,,,,,,,,,,,,,,,,,,,,,,,,,,,,,,,,,
,,,,,,,,,R_1FCZLEFCbFnDxak,2022-07-09_17h00.05.591,jpn_C02,2022.1.2,Win32,59.44596362,,,space,1.4445,0,34,34,10,1,ピク　セル　ドキ　シド,,,CartoonStims/boxer_kick_artist_r_no.jpg,audio/pikuserudokisido.mp3,,,,,,,,,,,,,,,,,,,,,,,,,,,,,,,,,,,,,,,,,,,,,,,,,,,,,,,,,,,,,,,,,,,,,
,,,,,,,,,R_1FCZLEFCbFnDxak,2022-07-09_17h00.05.591,jpn_C02,2022.1.2,Win32,59.44596362,,,space,1.1574,0,35,35,30,1,ピク　パツ　ムク　シド,,,CartoonStims/cowboy_shoot_artist_r_no.jpg,audio/pikupatsumukusido.mp3,,,,,,,,,,,,,,,,,,,,,,,,,,,,,,,,,,,,,,,,,,,,,,,,,,,,,,,,,,,,,,,,,,,,,
,,,,,,,,,R_1FCZLEFCbFnDxak,2022-07-09_17h00.05.591,jpn_C02,2022.1.2,Win32,59.44596362,,,space,1.1177,0,36,36,26,1,ピク　パツ　ルピン　ピポ,,,CartoonStims/burglar_shoot_doctor_r_no.jpg,audio/pikupatsulupinpipo.mp3,,,,,,,,,,,,,,,,,,,,,,,,,,,,,,,,,,,,,,,,,,,,,,,,,,,,,,,,,,,,,,,,,,,,,
,,,,,,,,,R_1FCZLEFCbFnDxak,2022-07-09_17h00.05.591,jpn_C02,2022.1.2,Win32,59.44596362,,,space,0.9351,0,37,37,22,1,ピク　トマ　ドキ　ルピン,,,CartoonStims/boxer_point_burglar_r_no.jpg,audio/pikutomadokilupin.mp3,,,,,,,,,,,,,,,,,,,,,,,,,,,,,,,,,,,,,,,,,,,,,,,,,,,,,,,,,,,,,,,,,,,,,
,,,,,,,,,R_1FCZLEFCbFnDxak,2022-07-09_17h00.05.591,jpn_C02,2022.1.2,Win32,59.44596362,,,space,1.0508,0,38,38,31,1,ピク　パツ　ムク　ルピン,,,CartoonStims/cowboy_shoot_burglar_r_no.jpg,audio/pikupatsumukulupin.mp3,,,,,,,,,,,,,,,,,,,,,,,,,,,,,,,,,,,,,,,,,,,,,,,,,,,,,,,,,,,,,,,,,,,,,
,,,,,,,,,R_1FCZLEFCbFnDxak,2022-07-09_17h00.05.591,jpn_C02,2022.1.2,Win32,59.44596362,,,space,1.3538,0,39,39,24,1,ピク　パツ　シド　ムク,,,CartoonStims/artist_shoot_cowboy_r_no.jpg,audio/pikupatsusidomuku.mp3,,,,,,,,,,,,,,,,,,,,,,,,,,,,,,,,,,,,,,,,,,,,,,,,,,,,,,,,,,,,,,,,,,,,,
,,,,,,,,,R_1FCZLEFCbFnDxak,2022-07-09_17h00.05.591,jpn_C02,2022.1.2,Win32,59.44596362,,,space,1.4861,0,40,40,17,1,ピク　トマ　ホレト　ドキ,,,CartoonStims/chef_point_boxer_r_no.jpg,audio/pikutomahoretodoki.mp3,,,,,,,,,,,,,,,,,,,,,,,,,,,,,,,,,,,,,,,,,,,,,,,,,,,,,,,,,,,,,,,,,,,,,
,,,,,,,,,R_1FCZLEFCbFnDxak,2022-07-09_17h00.05.591,jpn_C02,2022.1.2,Win32,59.44596362,,,space,1.2687,0,41,41,6,1,ピク　セル　ムク　ピポ,,,CartoonStims/cowboy_kick_doctor_r_no.jpg,audio/pikuserumukupipo.mp3,,,,,,,,,,,,,,,,,,,,,,,,,,,,,,,,,,,,,,,,,,,,,,,,,,,,,,,,,,,,,,,,,,,,,
,,,,,,,,,R_1FCZLEFCbFnDxak,2022-07-09_17h00.05.591,jpn_C02,2022.1.2,Win32,59.44596362,,,space,1.1409,0,42,42,20,1,ピク　トマ　ピポ　シド,,,CartoonStims/doctor_point_artist_r_no.jpg,audio/pikutomapiposido.mp3,,,,,,,,,,,,,,,,,,,,,,,,,,,,,,,,,,,,,,,,,,,,,,,,,,,,,,,,,,,,,,,,,,,,,
,,,,,,,,,R_1FCZLEFCbFnDxak,2022-07-09_17h00.05.591,jpn_C02,2022.1.2,Win32,59.44596362,,,space,2.3368,0,43,43,44,1,プミ　ピク　ピポ　ホレト,,,CartoonStims/doctor_punch_chef_r_no.jpg,audio/pumipikupipohoreto.mp3,,,,,,,,,,,,,,,,,,,,,,,,,,,,,,,,,,,,,,,,,,,,,,,,,,,,,,,,,,,,,,,,,,,,,
,,,,,,,,,R_1FCZLEFCbFnDxak,2022-07-09_17h00.05.591,jpn_C02,2022.1.2,Win32,59.44596362,,,space,1.3388,0,44,44,42,1,プミ　ピク　ムク　ルピン,,,CartoonStims/cowboy_punch_burglar_r_no.jpg,audio/pumipikumukulupin.mp3,,,,,,,,,,,,,,,,,,,,,,,,,,,,,,,,,,,,,,,,,,,,,,,,,,,,,,,,,,,,,,,,,,,,,
,,,,,,,,,R_1FCZLEFCbFnDxak,2022-07-09_17h00.05.591,jpn_C02,2022.1.2,Win32,59.44596362,,,space,2.5203,0,45,45,43,1,ピク　プミ　ムク　ホレト,,,CartoonStims/cowboy_punch_chef_r_no.jpg,audio/pikupumimukuhoreto.mp3,,,,,,,,,,,,,,,,,,,,,,,,,,,,,,,,,,,,,,,,,,,,,,,,,,,,,,,,,,,,,,,,,,,,,
,,,,,,,,,R_1FCZLEFCbFnDxak,2022-07-09_17h00.05.591,jpn_C02,2022.1.2,Win32,59.44596362,,,space,1.3587,0,46,46,4,1,セル　ピク　ホレト　ムク,,,CartoonStims/chef_kick_cowboy_r_no.jpg,audio/serupikuhoretomuku.mp3,,,,,,,,,,,,,,,,,,,,,,,,,,,,,,,,,,,,,,,,,,,,,,,,,,,,,,,,,,,,,,,,,,,,,
,,,,,,,,,R_1FCZLEFCbFnDxak,2022-07-09_17h00.05.591,jpn_C02,2022.1.2,Win32,59.44596362,,,space,1.1161,0,47,47,27,1,パツ　ピク　ルピン　ドキ,,,CartoonStims/burglar_shoot_boxer_r_no.jpg,audio/patsupikulupindoki.mp3,,,,,,,,,,,,,,,,,,,,,,,,,,,,,,,,,,,,,,,,,,,,,,,,,,,,,,,,,,,,,,,,,,,,,
,,,,,,,,,R_1FCZLEFCbFnDxak,2022-07-09_17h00.05.591,jpn_C02,2022.1.2,Win32,59.44596362,,,,,,,,,,,,,,,space,0.0059,right,1,8.5969,,,,,,,,,,,,,,,,,,0,0,0,0,1,,,,,,,,,,,,,,,,,,,,,,,,,,,,,,,,,,,,,,,,,,
,,,,,,,,,R_1FCZLEFCbFnDxak,2022-07-09_17h00.05.591,jpn_C02,2022.1.2,Win32,59.44596362,,,,,,,,,,,,,,,,,,,,,,,,,0,0,0,7,1,CartoonStims/cowboy_point_chef_r.jpg,トマ　ピク　ムク　ホレト,CartoonStims/cowboy_kick_chef_r.jpg,right,CartoonStims/cowboy_kick_chef_r.jpg,audio/tomapikumukuhoreto.mp3,"残念！ こちらが正しい画像です。

否定文は起きていないことを示しているのを思い出してください。",,,,,,,,,,,,,,,,,,,,,,,,,,,,,,,,,,,,,,,,,,,,,,,
,,,,,,,,,R_1FCZLEFCbFnDxak,2022-07-09_17h00.05.591,jpn_C02,2022.1.2,Win32,59.44596362,,,,,,,,,,,,,,,,,left,1,4.2651,0,0,0,0,1,,,,,,,,,,,,,,,,,,,,,,,,,,,,,,,,,,,,,,,,,,,,,,,,,,,,,,,,,,,
,,,,,,,,,R_1FCZLEFCbFnDxak,2022-07-09_17h00.05.591,jpn_C02,2022.1.2,Win32,59.44596362,,,,,,,,,,,,,,,,,,,,,,,,,0,1,1,8,1,CartoonStims/burglar_punch_artist_r.jpg,ピク　トマ　ルピン　シド,CartoonStims/burglar_point_artist_r.jpg,left,CartoonStims/burglar_punch_artist_r.jpg,audio/pikutomalupinsido.mp3,"残念！ こちらが正しい画像です。

否定文は起きていないことを示しているのを思い出してください。",,,,,,,,,,,,,,,,,,,,,,,,,,,,,,,,,,,,,,,,,,,,,,,
,,,,,,,,,R_1FCZLEFCbFnDxak,2022-07-09_17h00.05.591,jpn_C02,2022.1.2,Win32,59.44596362,,,,,,,,,,,,,,,,,left,1,1.9864,0,0,0,0,1,,,,,,,,,,,,,,,,,,,,,,,,,,,,,,,,,,,,,,,,,,,,,,,,,,,,,,,,,,,
,,,,,,,,,R_1FCZLEFCbFnDxak,2022-07-09_17h00.05.591,jpn_C02,2022.1.2,Win32,59.44596362,,,,,,,,,,,,,,,,,,,,,,,,,0,2,2,6,1,CartoonStims/artist_shoot_boxer_r.jpg,ピク　トマ　シド　ドキ,CartoonStims/artist_point_boxer_r.jpg,left,CartoonStims/artist_shoot_boxer_r.jpg,audio/pikutomasidodoki.mp3,"残念！ こちらが正しい画像です。

否定文は起きていないことを示しているのを思い出してください。",,,,,,,,,,,,,,,,,,,,,,,,,,,,,,,,,,,,,,,,,,,,,,,
,,,,,,,,,R_1FCZLEFCbFnDxak,2022-07-09_17h00.05.591,jpn_C02,2022.1.2,Win32,59.44596362,,,,,,,,,,,,,,,,,left,1,4.6889,0,0,0,0,1,,,,,,,,,,,,,,,,,,,,,,,,,,,,,,,,,,,,,,,,,,,,,,,,,,,,,,,,,,,
,,,,,,,,,R_1FCZLEFCbFnDxak,2022-07-09_17h00.05.591,jpn_C02,2022.1.2,Win32,59.44596362,,,,,,,,,,,,,,,,,,,,,,,,,0,3,3,2,1,CartoonStims/doctor_point_boxer_r.jpg,ピク　プミ　ピポ　ドキ,CartoonStims/doctor_punch_boxer_r.jpg,left,CartoonStims/doctor_point_boxer_r.jpg,audio/pikupumipipodoki.mp3,"残念！ こちらが正しい画像です。

否定文は起きていないことを示しているのを思い出してください。",,,,,,,,,,,,,,,,,,,,,,,,,,,,,,,,,,,,,,,,,,,,,,,
,,,,,,,,,R_1FCZLEFCbFnDxak,2022-07-09_17h00.05.591,jpn_C02,2022.1.2,Win32,59.44596362,,,,,,,,,,,,,,,,,right,1,1.2196,,,,,,,,,,,,,,,,,,0,0,0,0,1,,,,,,,,,,,,,,,,,,,,,,,,,,,,,,,,,,,,,,,,,,
,,,,,,,,,R_1FCZLEFCbFnDxak,2022-07-09_17h00.05.591,jpn_C02,2022.1.2,Win32,59.44596362,,,,,,,,,,,,,,,,,,,,,,,,,0,4,4,3,1,CartoonStims/chef_kick_artist_r.jpg,セル　ピク　ホレト　シド,CartoonStims/chef_point_artist_r.jpg,right,CartoonStims/chef_point_artist_r.jpg,audio/serupikuhoretosido.mp3,"残念！ こちらが正しい画像です。

否定文は起きていないことを示しているのを思い出してください。",,,,,,,,,,,,,,,,,,,,,,,,,,,,,,,,,,,,,,,,,,,,,,,
,,,,,,,,,R_1FCZLEFCbFnDxak,2022-07-09_17h00.05.591,jpn_C02,2022.1.2,Win32,59.44596362,,,,,,,,,,,,,,,,,left,1,0.9916,0,0,0,0,1,,,,,,,,,,,,,,,,,,,,,,,,,,,,,,,,,,,,,,,,,,,,,,,,,,,,,,,,,,,
,,,,,,,,,R_1FCZLEFCbFnDxak,2022-07-09_17h00.05.591,jpn_C02,2022.1.2,Win32,59.44596362,,,,,,,,,,,,,,,,,,,,,,,,,0,5,5,10,1,CartoonStims/doctor_punch_cowboy_r.jpg,パツ　ピク　ピポ　ムク,CartoonStims/doctor_shoot_cowboy_r.jpg,left,CartoonStims/doctor_punch_cowboy_r.jpg,audio/patsupikupipomuku.mp3,"残念！ こちらが正しい画像です。

否定文は起きていないことを示しているのを思い出してください。",,,,,,,,,,,,,,,,,,,,,,,,,,,,,,,,,,,,,,,,,,,,,,,
,,,,,,,,,R_1FCZLEFCbFnDxak,2022-07-09_17h00.05.591,jpn_C02,2022.1.2,Win32,59.44596362,,,,,,,,,,,,,,,,,left,1,2.6009,0,0,0,0,1,,,,,,,,,,,,,,,,,,,,,,,,,,,,,,,,,,,,,,,,,,,,,,,,,,,,,,,,,,,
,,,,,,,,,R_1FCZLEFCbFnDxak,2022-07-09_17h00.05.591,jpn_C02,2022.1.2,Win32,59.44596362,,,,,,,,,,,,,,,,,,,,,,,,,0,6,6,0,1,CartoonStims/artist_shoot_burglar_r.jpg,プミ　ピク　シド　ルピン,CartoonStims/artist_punch_burglar_r.jpg,left,CartoonStims/artist_shoot_burglar_r.jpg,audio/pumipikusidolupin.mp3,"残念！ こちらが正しい画像です。

否定文は起きていないことを示しているのを思い出してください。",,,,,,,,,,,,,,,,,,,,,,,,,,,,,,,,,,,,,,,,,,,,,,,
,,,,,,,,,R_1FCZLEFCbFnDxak,2022-07-09_17h00.05.591,jpn_C02,2022.1.2,Win32,59.44596362,,,,,,,,,,,,,,,,,right,1,3.5687,,,,,,,,,,,,,,,,,,0,0,0,0,1,,,,,,,,,,,,,,,,,,,,,,,,,,,,,,,,,,,,,,,,,,
,,,,,,,,,R_1FCZLEFCbFnDxak,2022-07-09_17h00.05.591,jpn_C02,2022.1.2,Win32,59.44596362,,,,,,,,,,,,,,,,,,,,,,,,,0,7,7,5,1,CartoonStims/boxer_kick_cowboy_r.jpg,ピク　セル　ドキ　ムク,CartoonStims/boxer_punch_cowboy_r.jpg,right,CartoonStims/boxer_punch_cowboy_r.jpg,audio/pikuserudokimuku.mp3,"残念！ こちらが正しい画像です。

否定文は起きていないことを示しているのを思い出してください。",,,,,,,,,,,,,,,,,,,,,,,,,,,,,,,,,,,,,,,,,,,,,,,
,,,,,,,,,R_1FCZLEFCbFnDxak,2022-07-09_17h00.05.591,jpn_C02,2022.1.2,Win32,59.44596362,,,,,,,,,,,,,,,,,right,1,0.6343,,,,,,,,,,,,,,,,,,0,0,0,0,1,,,,,,,,,,,,,,,,,,,,,,,,,,,,,,,,,,,,,,,,,,
,,,,,,,,,R_1FCZLEFCbFnDxak,2022-07-09_17h00.05.591,jpn_C02,2022.1.2,Win32,59.44596362,,,,,,,,,,,,,,,,,,,,,,,,,0,8,8,11,1,CartoonStims/chef_shoot_burglar_r.jpg,ピク　パツ　ホレト　ルピン,CartoonStims/chef_kick_burglar_r.jpg,right,CartoonStims/chef_kick_burglar_r.jpg,audio/pikupatsuhoretolupin.mp3,"残念！ こちらが正しい画像です。

否定文は起きていないことを示しているのを思い出してください。",,,,,,,,,,,,,,,,,,,,,,,,,,,,,,,,,,,,,,,,,,,,,,,
,,,,,,,,,R_1FCZLEFCbFnDxak,2022-07-09_17h00.05.591,jpn_C02,2022.1.2,Win32,59.44596362,,,,,,,,,,,,,,,,,right,1,0.3507,,,,,,,,,,,,,,,,,,0,0,0,0,1,,,,,,,,,,,,,,,,,,,,,,,,,,,,,,,,,,,,,,,,,,
,,,,,,,,,R_1FCZLEFCbFnDxak,2022-07-09_17h00.05.591,jpn_C02,2022.1.2,Win32,59.44596362,,,,,,,,,,,,,,,,,,,,,,,,,0,9,9,9,1,CartoonStims/boxer_shoot_doctor_r.jpg,ピク　パツ　ドキ　ピポ,CartoonStims/boxer_point_doctor_r.jpg,right,CartoonStims/boxer_point_doctor_r.jpg,audio/pikupatsudokipipo.mp3,"残念！ こちらが正しい画像です。

否定文は起きていないことを示しているのを思い出してください。",,,,,,,,,,,,,,,,,,,,,,,,,,,,,,,,,,,,,,,,,,,,,,,
,,,,,,,,,R_1FCZLEFCbFnDxak,2022-07-09_17h00.05.591,jpn_C02,2022.1.2,Win32,59.44596362,,,,,,,,,,,,,,,,,left,1,0.6534,0,0,0,0,1,,,,,,,,,,,,,,,,,,,,,,,,,,,,,,,,,,,,,,,,,,,,,,,,,,,,,,,,,,,
,,,,,,,,,R_1FCZLEFCbFnDxak,2022-07-09_17h00.05.591,jpn_C02,2022.1.2,Win32,59.44596362,,,,,,,,,,,,,,,,,,,,,,,,,0,10,10,4,1,CartoonStims/burglar_shoot_doctor_r.jpg,ピク　セル　ルピン　ピポ,CartoonStims/burglar_kick_doctor_r.jpg,left,CartoonStims/burglar_shoot_doctor_r.jpg,audio/pikuserulupinpipo.mp3,"残念！ こちらが正しい画像です。

否定文は起きていないことを示しているのを思い出してください。",,,,,,,,,,,,,,,,,,,,,,,,,,,,,,,,,,,,,,,,,,,,,,,
,,,,,,,,,R_1FCZLEFCbFnDxak,2022-07-09_17h00.05.591,jpn_C02,2022.1.2,Win32,59.44596362,,,,,,,,,,,,,,,,,right,1,0.7668,,,,,,,,,,,,,,,,,,0,0,0,0,1,,,,,,,,,,,,,,,,,,,,,,,,,,,,,,,,,,,,,,,,,,
,,,,,,,,,R_1FCZLEFCbFnDxak,2022-07-09_17h00.05.591,jpn_C02,2022.1.2,Win32,59.44596362,,,,,,,,,,,,,,,,,,,,,,,,,0,11,11,1,1,CartoonStims/chef_punch_cowboy_r.jpg,ピク　プミ　ホレト　ムク,CartoonStims/chef_kick_cowboy_r.jpg,right,CartoonStims/chef_kick_cowboy_r.jpg,audio/pikupumihoretomuku.mp3,"残念！ こちらが正しい画像です。

否定文は起きていないことを示しているのを思い出してください。",,,,,,,,,,,,,,,,,,,,,,,,,,,,,,,,,,,,,,,,,,,,,,,
,,,,,,,,,R_1FCZLEFCbFnDxak,2022-07-09_17h00.05.591,jpn_C02,2022.1.2,Win32,59.44596362,,,,,,,,,,,,,CartoonStims/boxer_kick_cowboy_r.jpg,,,,,,,,,,,,,,,,,,,,,,,,,,,,,space,3.942,セル　ピク　ドキ　ムク,right,27.3322,,,,,,0,0,0,26,1,,,,,,,,,,,,,,,,,,,,,,,,,セル　ドキ　ムク,セル　ドキ　ムク,0
,,,,,,,,,R_1FCZLEFCbFnDxak,2022-07-09_17h00.05.591,jpn_C02,2022.1.2,Win32,59.44596362,,,,,,,,,,,,,CartoonStims/doctor_kick_cowboy_r_no.jpg,,,,,,,,,,,,,,,,,,,,,,,,,,,,,,,セル　ピク　ピポ　ムク,right,28.2642,,,,,,0,1,1,4,1,,,,,,,,,,,,,,,,,,,,,,,,,ピク　セル　ピポ　ムク,セル　ピク　ピポ　ムク,1
,,,,,,,,,R_1FCZLEFCbFnDxak,2022-07-09_17h00.05.591,jpn_C02,2022.1.2,Win32,59.44596362,,,,,,,,,,,,,CartoonStims/boxer_shoot_burglar_r_no.jpg,,,,,,,,,,,,,,,,,,,,,,,,,,,,,,,パツ　ピク　ドキ　ルピン,right,28.7321,,,,,,0,2,2,17,1,,,,,,,,,,,,,,,,,,,,,,,,,ピク　パツ　ドキ　ルピン,パツ　ピク　ドキ　ルピン,1
,,,,,,,,,R_1FCZLEFCbFnDxak,2022-07-09_17h00.05.591,jpn_C02,2022.1.2,Win32,59.44596362,,,,,,,,,,,,,CartoonStims/chef_shoot_cowboy_r.jpg,,,,,,,,,,,,,,,,,,,,,,,,,,,,,,,パツ　ホレト　ムク,right,26.6386,,,,,,0,3,3,31,1,,,,,,,,,,,,,,,,,,,,,,,,,パツ　ホレト　ムク,パツ　ホレト　ムク,0
,,,,,,,,,R_1FCZLEFCbFnDxak,2022-07-09_17h00.05.591,jpn_C02,2022.1.2,Win32,59.44596362,,,,,,,,,,,,,CartoonStims/boxer_kick_doctor_r_no.jpg,,,,,,,,,,,,,,,,,,,,,,,,,,,,,,,セル　ピク　ドキ　ピポ,right,8.0045,,,,,,0,4,4,5,1,,,,,,,,,,,,,,,,,,,,,,,,,ピク　セル　ドキ　ピポ,セル　ピク　ドキ　ピポ,1
,,,,,,,,,R_1FCZLEFCbFnDxak,2022-07-09_17h00.05.591,jpn_C02,2022.1.2,Win32,59.44596362,,,,,,,,,,,,,CartoonStims/cowboy_shoot_doctor_r.jpg,,,,,,,,,,,,,,,,,,,,,,,,,,,,,,,パツ　ムク　ピポ,right,9.4329,,,,,,0,5,5,32,1,,,,,,,,,,,,,,,,,,,,,,,,,パツ　ムク　ピポ,パツ　ムク　ピポ,0
,,,,,,,,,R_1FCZLEFCbFnDxak,2022-07-09_17h00.05.591,jpn_C02,2022.1.2,Win32,59.44596362,,,,,,,,,,,,,CartoonStims/cowboy_kick_burglar_r.jpg,,,,,,,,,,,,,,,,,,,,,,,,,,,,,,,セル　ムク　ルピン,right,8.1815,,,,,,0,6,6,24,1,,,,,,,,,,,,,,,,,,,,,,,,,セル　ムク　ルピン,セル　ムク　ルピン,0
,,,,,,,,,R_1FCZLEFCbFnDxak,2022-07-09_17h00.05.591,jpn_C02,2022.1.2,Win32,59.44596362,,,,,,,,,,,,,CartoonStims/artist_point_burglar_r_no.jpg,,,,,,,,,,,,,,,,,,,,,,,,,,,,,,,トマ　ピク　シド　ルピン,right,18.8334,,,,,,0,7,7,6,1,,,,,,,,,,,,,,,,,,,,,,,,,ピク　トマ　シド　ルピン,トマ　ピク　シド　ルピン,1
,,,,,,,,,R_1FCZLEFCbFnDxak,2022-07-09_17h00.05.591,jpn_C02,2022.1.2,Win32,59.44596362,,,,,,,,,,,,,CartoonStims/artist_punch_cowboy_r_no.jpg,,,,,,,,,,,,,,,,,,,,,,,,,,,,,,,プミ　ピク　シド　ムク,right,13.9993,,,,,,0,8,8,18,1,,,,,,,,,,,,,,,,,,,,,,,,,ピク　プミ　シド　ムク,プミ　ピク　シド　ムク,1
,,,,,,,,,R_1FCZLEFCbFnDxak,2022-07-09_17h00.05.591,jpn_C02,2022.1.2,Win32,59.44596362,,,,,,,,,,,,,CartoonStims/chef_kick_burglar_r_no.jpg,,,,,,,,,,,,,,,,,,,,,,,,,,,,,,,セル　ピク　ホレト　ルピン,right,9.1996,,,,,,0,9,9,2,1,,,,,,,,,,,,,,,,,,,,,,,,,ピク　セル　ホレト　ルピン,セル　ピク　ホレト　ルピン,1
,,,,,,,,,R_1FCZLEFCbFnDxak,2022-07-09_17h00.05.591,jpn_C02,2022.1.2,Win32,59.44596362,,,,,,,,,,,,,CartoonStims/boxer_point_artist_r_no.jpg,,,,,,,,,,,,,,,,,,,,,,,,,,,,,,,トマ　ピク　ドキ　シド,right,9.6395,,,,,,0,10,10,11,1,,,,,,,,,,,,,,,,,,,,,,,,,ピク　トマ　ドキ　シド,トマ　ピク　ドキ　シド,1
,,,,,,,,,R_1FCZLEFCbFnDxak,2022-07-09_17h00.05.591,jpn_C02,2022.1.2,Win32,59.44596362,,,,,,,,,,,,,CartoonStims/chef_punch_boxer_r_no.jpg,,,,,,,,,,,,,,,,,,,,,,,,,,,,,,,プミ　ピク　ホレト　ドキ,right,9.3443,,,,,,0,11,11,20,1,,,,,,,,,,,,,,,,,,,,,,,,,ピク　プミ　ホレト　ドキ,プミ　ピク　ホレト　ドキ,1
,,,,,,,,,R_1FCZLEFCbFnDxak,2022-07-09_17h00.05.591,jpn_C02,2022.1.2,Win32,59.44596362,,,,,,,,,,,,,CartoonStims/burglar_point_artist_r.jpg,,,,,,,,,,,,,,,,,,,,,,,,,,,,,,,トマ　ルピン　シド,right,5.4753,,,,,,0,12,12,28,1,,,,,,,,,,,,,,,,,,,,,,,,,トマ　ルピン　シド,トマ　ルピン　シド,0
,,,,,,,,,R_1FCZLEFCbFnDxak,2022-07-09_17h00.05.591,jpn_C02,2022.1.2,Win32,59.44596362,,,,,,,,,,,,,CartoonStims/artist_shoot_chef_r_no.jpg,,,,,,,,,,,,,,,,,,,,,,,,,,,,,,,パツ　ピク　シド　ホレト,right,14.1016,,,,,,0,13,13,12,1,,,,,,,,,,,,,,,,,,,,,,,,,ピク　パツ　シド　ホレト,パツ　ピク　シド　ホレト,1
,,,,,,,,,R_1FCZLEFCbFnDxak,2022-07-09_17h00.05.591,jpn_C02,2022.1.2,Win32,59.44596362,,,,,,,,,,,,,CartoonStims/artist_kick_boxer_r_no.jpg,,,,,,,,,,,,,,,,,,,,,,,,,,,,,,,セル　ピク　シド　ドキ,right,10.086,,,,,,0,14,14,0,1,,,,,,,,,,,,,,,,,,,,,,,,,ピク　セル　シド　ドキ,セル　ピク　シド　ドキ,1
,,,,,,,,,R_1FCZLEFCbFnDxak,2022-07-09_17h00.05.591,jpn_C02,2022.1.2,Win32,59.44596362,,,,,,,,,,,,,CartoonStims/artist_punch_burglar_r.jpg,,,,,,,,,,,,,,,,,,,,,,,,,,,,,,,プミ　シド　ルピン,right,8.7802,,,,,,0,15,15,33,1,,,,,,,,,,,,,,,,,,,,,,,,,プミ　シド　ルピン,プミ　シド　ルピン,0
,,,,,,,,,R_1FCZLEFCbFnDxak,2022-07-09_17h00.05.591,jpn_C02,2022.1.2,Win32,59.44596362,,,,,,,,,,,,,CartoonStims/doctor_shoot_artist_r_no.jpg,,,,,,,,,,,,,,,,,,,,,,,,,,,,,,,パツ　ピク　ピポ　シド,right,19.7736,,,,,,0,16,16,16,1,,,,,,,,,,,,,,,,,,,,,,,,,ピク　パツ　ピポ　シド,パツ　ピク　ピポ　シド,1
,,,,,,,,,R_1FCZLEFCbFnDxak,2022-07-09_17h00.05.591,jpn_C02,2022.1.2,Win32,59.44596362,,,,,,,,,,,,,CartoonStims/doctor_punch_boxer_r.jpg,,,,,,,,,,,,,,,,,,,,,,,,,,,,,,,プミ　ピポ　ドキ,right,7.8053,,,,,,0,17,17,34,1,,,,,,,,,,,,,,,,,,,,,,,,,プミ　ピポ　ドキ,プミ　ピポ　ドキ,0
,,,,,,,,,R_1FCZLEFCbFnDxak,2022-07-09_17h00.05.591,jpn_C02,2022.1.2,Win32,59.44596362,,,,,,,,,,,,,CartoonStims/cowboy_punch_artist_r_no.jpg,,,,,,,,,,,,,,,,,,,,,,,,,,,,,,,プミ　ピク　ムク　シド,right,10.8235,,,,,,0,18,18,21,1,,,,,,,,,,,,,,,,,,,,,,,,,ピク　プミ　ムク　シド,プミ　ピク　ムク　シド,1
,,,,,,,,,R_1FCZLEFCbFnDxak,2022-07-09_17h00.05.591,jpn_C02,2022.1.2,Win32,59.44596362,,,,,,,,,,,,,CartoonStims/artist_point_boxer_r.jpg,,,,,,,,,,,,,,,,,,,,,,,,,,,,,,,トマ　シド　ドキ,right,5.5242,,,,,,0,19,19,27,1,,,,,,,,,,,,,,,,,,,,,,,,,トマ　シド　ドキ,トマ　シド　ドキ,0
,,,,,,,,,R_1FCZLEFCbFnDxak,2022-07-09_17h00.05.591,jpn_C02,2022.1.2,Win32,59.44596362,,,,,,,,,,,,,CartoonStims/burglar_shoot_chef_r.jpg,,,,,,,,,,,,,,,,,,,,,,,,,,,,,,,パツ　ルピン　ホレト,right,4.3538,,,,,,0,20,20,30,1,,,,,,,,,,,,,,,,,,,,,,,,,パツ　ルピン　ホレト,パツ　ルピン　ホレト,0
,,,,,,,,,R_1FCZLEFCbFnDxak,2022-07-09_17h00.05.591,jpn_C02,2022.1.2,Win32,59.44596362,,,,,,,,,,,,,CartoonStims/chef_point_burglar_r.jpg,,,,,,,,,,,,,,,,,,,,,,,,,,,,,,,トマ　ホレト　ルピン,right,5.9476,,,,,,0,21,21,29,1,,,,,,,,,,,,,,,,,,,,,,,,,トマ　ホレト　ルピン,トマ　ホレト　ルピン,0
,,,,,,,,,R_1FCZLEFCbFnDxak,2022-07-09_17h00.05.591,jpn_C02,2022.1.2,Win32,59.44596362,,,,,,,,,,,,,CartoonStims/boxer_punch_chef_r_no.jpg,,,,,,,,,,,,,,,,,,,,,,,,,,,,,,,プミ　ピク　ドキ　ホレト,right,12.2351,,,,,,0,22,22,23,1,,,,,,,,,,,,,,,,,,,,,,,,,ピク　プミ　ドキ　ホレト,プミ　ピク　ドキ　ホレト,1
,,,,,,,,,R_1FCZLEFCbFnDxak,2022-07-09_17h00.05.591,jpn_C02,2022.1.2,Win32,59.44596362,,,,,,,,,,,,,CartoonStims/cowboy_point_doctor_r_no.jpg,,,,,,,,,,,,,,,,,,,,,,,,,,,,,,,トマ　ピク　ムク　ピポ,right,11.4555,,,,,,0,23,23,9,1,,,,,,,,,,,,,,,,,,,,,,,,,ピク　トマ　ムク　ピポ,トマ　ピク　ムク　ピポ,1
,,,,,,,,,R_1FCZLEFCbFnDxak,2022-07-09_17h00.05.591,jpn_C02,2022.1.2,Win32,59.44596362,,,,,,,,,,,,,CartoonStims/chef_shoot_doctor_r_no.jpg,,,,,,,,,,,,,,,,,,,,,,,,,,,,,,,パツ　ピク　ホレト　ピポ,right,8.654,,,,,,0,24,24,14,1,,,,,,,,,,,,,,,,,,,,,,,,,ピク　パツ　ホレト　ピポ,パツ　ピク　ホレト　ピポ,1
,,,,,,,,,R_1FCZLEFCbFnDxak,2022-07-09_17h00.05.591,jpn_C02,2022.1.2,Win32,59.44596362,,,,,,,,,,,,,CartoonStims/doctor_point_boxer_r_no.jpg,,,,,,,,,,,,,,,,,,,,,,,,,,,,,,,トマ　ピク　ピポ　ドキ,right,6.5352,,,,,,0,25,25,10,1,,,,,,,,,,,,,,,,,,,,,,,,,ピク　トマ　ピポ　ドキ,トマ　ピク　ピポ　ドキ,1
,,,,,,,,,R_1FCZLEFCbFnDxak,2022-07-09_17h00.05.591,jpn_C02,2022.1.2,Win32,59.44596362,,,,,,,,,,,,,CartoonStims/doctor_kick_chef_r.jpg,,,,,,,,,,,,,,,,,,,,,,,,,,,,,,,セル　ピポ　ホレト,right,10.7105,,,,,,0,26,26,25,1,,,,,,,,,,,,,,,,,,,,,,,,,セル　ピポ　ホレト,セル　ピポ　ホレト,0
,,,,,,,,,R_1FCZLEFCbFnDxak,2022-07-09_17h00.05.591,jpn_C02,2022.1.2,Win32,59.44596362,,,,,,,,,,,,,CartoonStims/cowboy_kick_chef_r_no.jpg,,,,,,,,,,,,,,,,,,,,,,,,,,,,,,,セル　ピク　ムク　ホレト,right,18.3501,,,,,,0,27,27,3,1,,,,,,,,,,,,,,,,,,,,,,,,,ピク　セル　ムク　ホレト,セル　ピク　ムク　ホレト,1
,,,,,,,,,R_1FCZLEFCbFnDxak,2022-07-09_17h00.05.591,jpn_C02,2022.1.2,Win32,59.44596362,,,,,,,,,,,,,CartoonStims/burglar_shoot_cowboy_r_no.jpg,,,,,,,,,,,,,,,,,,,,,,,,,,,,,,,パツ　ピク　ルピン　ムク,right,15.5743,,,,,,0,28,28,13,1,,,,,,,,,,,,,,,,,,,,,,,,,ピク　パツ　ルピン　ムク,パツ　ピク　ルピン　ムク,1
,,,,,,,,,R_1FCZLEFCbFnDxak,2022-07-09_17h00.05.591,jpn_C02,2022.1.2,Win32,59.44596362,,,,,,,,,,,,,CartoonStims/chef_point_cowboy_r_no.jpg,,,,,,,,,,,,,,,,,,,,,,,,,,,,,,,トマ　ピク　ホレト　ムク,right,5.7874,,,,,,0,29,29,8,1,,,,,,,,,,,,,,,,,,,,,,,,,ピク　トマ　ホレト　ムク,トマ　ピク　ホレト　ムク,1
,,,,,,,,,R_1FCZLEFCbFnDxak,2022-07-09_17h00.05.591,jpn_C02,2022.1.2,Win32,59.44596362,,,,,,,,,,,,,CartoonStims/burglar_point_chef_r_no.jpg,,,,,,,,,,,,,,,,,,,,,,,,,,,,,,,トマ　ピク　ルピン　ホレト,right,7.9585,,,,,,0,30,30,7,1,,,,,,,,,,,,,,,,,,,,,,,,,ピク　トマ　ルピン　ホレト,トマ　ピク　ルピン　ホレト,1
,,,,,,,,,R_1FCZLEFCbFnDxak,2022-07-09_17h00.05.591,jpn_C02,2022.1.2,Win32,59.44596362,,,,,,,,,,,,,CartoonStims/burglar_kick_artist_r_no.jpg,,,,,,,,,,,,,,,,,,,,,,,,,,,,,,,セル　ピク　リピン　シド,right,5.6239,,,,,,0,31,31,1,1,,,,,,,,,,,,,,,,,,,,,,,,,ピク　セル　ルピン　シド,セル　ピク　ルピン　シド,1
,,,,,,,,,R_1FCZLEFCbFnDxak,2022-07-09_17h00.05.591,jpn_C02,2022.1.2,Win32,59.44596362,,,,,,,,,,,,,CartoonStims/doctor_punch_burglar_r_no.jpg,,,,,,,,,,,,,,,,,,,,,,,,,,,,,,,プミ　ピク　ピポ　ルピン,right,16.7152,,,,,,0,32,32,22,1,,,,,,,,,,,,,,,,,,,,,,,,,ピク　プミ　ピポ　ルピン,プミ　ピク　ピポ　ルピン,1
,,,,,,,,,R_1FCZLEFCbFnDxak,2022-07-09_17h00.05.591,jpn_C02,2022.1.2,Win32,59.44596362,,,,,,,,,,,,,CartoonStims/burglar_punch_doctor_r_no.jpg,,,,,,,,,,,,,,,,,,,,,,,,,,,,,,,プミ　ピク　ルピン　ピポ,right,7.3247,,,,,,0,33,33,19,1,,,,,,,,,,,,,,,,,,,,,,,,,ピク　プミ　ルピン　ピポ,プミ　ピク　ルピン　ピポ,1
,,,,,,,,,R_1FCZLEFCbFnDxak,2022-07-09_17h00.05.591,jpn_C02,2022.1.2,Win32,59.44596362,,,,,,,,,,,,,CartoonStims/cowboy_shoot_boxer_r_no.jpg,,,,,,,,,,,,,,,,,,,,,,,,,,,,,,,パツ　ピク　ムク　ドキ,right,8.2409,,,,,,0,34,34,15,1,,,,,,,,,,,,,,,,,,,,,,,,,ピク　パツ　ムク　ドキ,パツ　ピク　ムク　ドキ,1
,,,,,,,,,R_1FCZLEFCbFnDxak,2022-07-09_17h00.05.591,jpn_C02,2022.1.2,Win32,59.44596362,,,,,,,,,,,,,CartoonStims/boxer_punch_artist_r.jpg,,,,,,,,,,,,,,,,,,,,,,,,,,,,,,,プミ　ドキ　シド,right,6.2385,,,,,,0,35,35,35,1,,,,,,,,,,,,,,,,,,,,,,,,,プミ　ドキ　シド,プミ　ドキ　シド,0
,,,,,,,,,R_1FCZLEFCbFnDxak,2022-07-09_17h00.05.591,jpn_C02,2022.1.2,Win32,59.44596362,,,,,,,,,,,,,,,,,,,,,,,,,,,,,,,,,,,,,,,,,,,,,,,,,,,,,,,,,,,space,1.0526,0,2,2,2,1,NegVCondition.xlsx,"ここではこの言語における否定の文を学習していただきます。引き続き注意して、 聞こえた音を復唱してください。

スペースキーを押してください。",1,NegVFCT.xlsx,ここからクイズが始まります。 スクリーンに表示されるテキストに合うイメージを選んでください。,NegTest.xlsx,1,最後にここまで学んだことをアウトプットしていただきます。 テキストボックスにあるイメージを描写するテキストを入力してください。 このタスクでは、 答え合わせは行いません。,0,これですべての実験が終わりました。 お疲れさまです。 この後はアンケートに答えていただきます。,,,,,,,,