key_resp_instr_a.keys,key_resp_instr_a.rt,key_resp_instr_b.keys,key_resp_instr_b.rt,dummy.thisRepN,dummy.thisTrialN,dummy.thisN,dummy.thisIndex,dummy.ran,participant,date,expName,psychopyVersion,OS,frameRate,key_resp_instr1.keys,key_resp_instr1.rt,key_resp.keys,key_resp.rt,exp_loop.thisRepN,exp_loop.thisTrialN,exp_loop.thisN,exp_loop.thisIndex,exp_loop.ran,Word,English,Flip,Path,Audio,key_resp_instr2.keys,key_resp_instr2.rt,key_resp_fct.keys,key_resp_fct.corr,key_resp_fct.rt,trials_2.thisRepN,trials_2.thisTrialN,trials_2.thisN,trials_2.thisIndex,trials_2.ran,fct_loop.thisRepN,fct_loop.thisTrialN,fct_loop.thisN,fct_loop.thisIndex,fct_loop.ran,left_img,word,right_img,correctans,correct_img,audio,incorrect_feedback,trials.thisRepN,trials.thisTrialN,trials.thisN,trials.thisIndex,trials.ran,key_resp_instr3.keys,key_resp_instr3.rt,textbox.text,key_resp_2.keys,key_resp_2.rt,fb_yn.thisRepN,fb_yn.thisTrialN,fb_yn.thisN,fb_yn.thisIndex,fb_yn.ran,gather_loop.thisRepN,gather_loop.thisTrialN,gather_loop.thisN,gather_loop.thisIndex,gather_loop.ran,Text,Wordbank,key_resp_instr4.keys,key_resp_instr4.rt,master_loop.thisRepN,master_loop.thisTrialN,master_loop.thisN,master_loop.thisIndex,master_loop.ran,exposure_file,instr_1,exp_reps,fct_file,instr_2,gather_file,gather_reps,instr_3,fReps,instr_4,trials_4.thisRepN,trials_4.thisTrialN,trials_4.thisN,trials_4.thisIndex,trials_4.ran,NegVSentence,VNegSentence,NegTF
space,3.031,space,7.796,0,0,0,0,1,R_1QuuhlsJpymk9Ar,2022-07-09_17h24.16.956,jpn_C02,2022.1.2,MacIntel,55.55555556,,,,,,,,,,,,,,,,,,,,,,,,,,,,,,,,,,,,,,,,,,,,,,,,,,,,,,,,,,,,,,,,,,,,,,,,,,,,,,,,,,,
,,,,,,,,,R_1QuuhlsJpymk9Ar,2022-07-09_17h24.16.956,jpn_C02,2022.1.2,MacIntel,55.55555556,space,7.902,space,2.292,0,0,0,2,1,ホレト,chef,,CartoonStims/chef_r.jpg,audio/horeto.mp3,,,,,,,,,,,,,,,,,,,,,,,,,,,,,,,,,,,,,,,,,,,,,,,,,,,,,,,,,,,,,,,,,,,,,
,,,,,,,,,R_1QuuhlsJpymk9Ar,2022-07-09_17h24.16.956,jpn_C02,2022.1.2,MacIntel,55.55555556,,,space,3.622,0,1,1,3,1,ムク,cowboy,,CartoonStims/cowboy_r.jpg,audio/muku.mp3,,,,,,,,,,,,,,,,,,,,,,,,,,,,,,,,,,,,,,,,,,,,,,,,,,,,,,,,,,,,,,,,,,,,,
,,,,,,,,,R_1QuuhlsJpymk9Ar,2022-07-09_17h24.16.956,jpn_C02,2022.1.2,MacIntel,55.55555556,,,space,3.973,0,2,2,1,1,ルピン,burglar,,CartoonStims/burglar_r.jpg,audio/lupin.mp3,,,,,,,,,,,,,,,,,,,,,,,,,,,,,,,,,,,,,,,,,,,,,,,,,,,,,,,,,,,,,,,,,,,,,
,,,,,,,,,R_1QuuhlsJpymk9Ar,2022-07-09_17h24.16.956,jpn_C02,2022.1.2,MacIntel,55.55555556,,,space,5.892,0,3,3,0,1,シド,artist,,CartoonStims/artist_r.jpg,audio/sido.mp3,,,,,,,,,,,,,,,,,,,,,,,,,,,,,,,,,,,,,,,,,,,,,,,,,,,,,,,,,,,,,,,,,,,,,
,,,,,,,,,R_1QuuhlsJpymk9Ar,2022-07-09_17h24.16.956,jpn_C02,2022.1.2,MacIntel,55.55555556,,,space,4.144,0,4,4,5,1,ドキ,boxer,,CartoonStims/boxer_r.jpg,audio/doki.mp3,,,,,,,,,,,,,,,,,,,,,,,,,,,,,,,,,,,,,,,,,,,,,,,,,,,,,,,,,,,,,,,,,,,,,
,,,,,,,,,R_1QuuhlsJpymk9Ar,2022-07-09_17h24.16.956,jpn_C02,2022.1.2,MacIntel,55.55555556,,,space,2.659,0,5,5,4,1,ピポ,doctor,,CartoonStims/doctor_r.jpg,audio/pipo.mp3,,,,,,,,,,,,,,,,,,,,,,,,,,,,,,,,,,,,,,,,,,,,,,,,,,,,,,,,,,,,,,,,,,,,,
,,,,,,,,,R_1QuuhlsJpymk9Ar,2022-07-09_17h24.16.956,jpn_C02,2022.1.2,MacIntel,55.55555556,,,space,0.894,1,0,6,4,1,ピポ,doctor,,CartoonStims/doctor_r.jpg,audio/pipo.mp3,,,,,,,,,,,,,,,,,,,,,,,,,,,,,,,,,,,,,,,,,,,,,,,,,,,,,,,,,,,,,,,,,,,,,
,,,,,,,,,R_1QuuhlsJpymk9Ar,2022-07-09_17h24.16.956,jpn_C02,2022.1.2,MacIntel,55.55555556,,,space,2.328,1,1,7,2,1,ホレト,chef,,CartoonStims/chef_r.jpg,audio/horeto.mp3,,,,,,,,,,,,,,,,,,,,,,,,,,,,,,,,,,,,,,,,,,,,,,,,,,,,,,,,,,,,,,,,,,,,,
,,,,,,,,,R_1QuuhlsJpymk9Ar,2022-07-09_17h24.16.956,jpn_C02,2022.1.2,MacIntel,55.55555556,,,space,1.501,1,2,8,1,1,ルピン,burglar,,CartoonStims/burglar_r.jpg,audio/lupin.mp3,,,,,,,,,,,,,,,,,,,,,,,,,,,,,,,,,,,,,,,,,,,,,,,,,,,,,,,,,,,,,,,,,,,,,
,,,,,,,,,R_1QuuhlsJpymk9Ar,2022-07-09_17h24.16.956,jpn_C02,2022.1.2,MacIntel,55.55555556,,,space,1.308,1,3,9,3,1,ムク,cowboy,,CartoonStims/cowboy_r.jpg,audio/muku.mp3,,,,,,,,,,,,,,,,,,,,,,,,,,,,,,,,,,,,,,,,,,,,,,,,,,,,,,,,,,,,,,,,,,,,,
,,,,,,,,,R_1QuuhlsJpymk9Ar,2022-07-09_17h24.16.956,jpn_C02,2022.1.2,MacIntel,55.55555556,,,space,0.877,1,4,10,0,1,シド,artist,,CartoonStims/artist_r.jpg,audio/sido.mp3,,,,,,,,,,,,,,,,,,,,,,,,,,,,,,,,,,,,,,,,,,,,,,,,,,,,,,,,,,,,,,,,,,,,,
,,,,,,,,,R_1QuuhlsJpymk9Ar,2022-07-09_17h24.16.956,jpn_C02,2022.1.2,MacIntel,55.55555556,,,space,1.026,1,5,11,5,1,ドキ,boxer,,CartoonStims/boxer_r.jpg,audio/doki.mp3,,,,,,,,,,,,,,,,,,,,,,,,,,,,,,,,,,,,,,,,,,,,,,,,,,,,,,,,,,,,,,,,,,,,,
,,,,,,,,,R_1QuuhlsJpymk9Ar,2022-07-09_17h24.16.956,jpn_C02,2022.1.2,MacIntel,55.55555556,,,space,1.086,2,0,12,2,1,ホレト,chef,,CartoonStims/chef_r.jpg,audio/horeto.mp3,,,,,,,,,,,,,,,,,,,,,,,,,,,,,,,,,,,,,,,,,,,,,,,,,,,,,,,,,,,,,,,,,,,,,
,,,,,,,,,R_1QuuhlsJpymk9Ar,2022-07-09_17h24.16.956,jpn_C02,2022.1.2,MacIntel,55.55555556,,,space,0.584,2,1,13,1,1,ルピン,burglar,,CartoonStims/burglar_r.jpg,audio/lupin.mp3,,,,,,,,,,,,,,,,,,,,,,,,,,,,,,,,,,,,,,,,,,,,,,,,,,,,,,,,,,,,,,,,,,,,,
,,,,,,,,,R_1QuuhlsJpymk9Ar,2022-07-09_17h24.16.956,jpn_C02,2022.1.2,MacIntel,55.55555556,,,space,0.88,2,2,14,4,1,ピポ,doctor,,CartoonStims/doctor_r.jpg,audio/pipo.mp3,,,,,,,,,,,,,,,,,,,,,,,,,,,,,,,,,,,,,,,,,,,,,,,,,,,,,,,,,,,,,,,,,,,,,
,,,,,,,,,R_1QuuhlsJpymk9Ar,2022-07-09_17h24.16.956,jpn_C02,2022.1.2,MacIntel,55.55555556,,,space,0.733,2,3,15,3,1,ムク,cowboy,,CartoonStims/cowboy_r.jpg,audio/muku.mp3,,,,,,,,,,,,,,,,,,,,,,,,,,,,,,,,,,,,,,,,,,,,,,,,,,,,,,,,,,,,,,,,,,,,,
,,,,,,,,,R_1QuuhlsJpymk9Ar,2022-07-09_17h24.16.956,jpn_C02,2022.1.2,MacIntel,55.55555556,,,space,1.028,2,4,16,0,1,シド,artist,,CartoonStims/artist_r.jpg,audio/sido.mp3,,,,,,,,,,,,,,,,,,,,,,,,,,,,,,,,,,,,,,,,,,,,,,,,,,,,,,,,,,,,,,,,,,,,,
,,,,,,,,,R_1QuuhlsJpymk9Ar,2022-07-09_17h24.16.956,jpn_C02,2022.1.2,MacIntel,55.55555556,,,space,0.937,2,5,17,5,1,ドキ,boxer,,CartoonStims/boxer_r.jpg,audio/doki.mp3,,,,,,,,,,,,,,,,,,,,,,,,,,,,,,,,,,,,,,,,,,,,,,,,,,,,,,,,,,,,,,,,,,,,,
,,,,,,,,,R_1QuuhlsJpymk9Ar,2022-07-09_17h24.16.956,jpn_C02,2022.1.2,MacIntel,55.55555556,,,,,,,,,,,,,,,space,0.257,right,1,3.733,0,0,0,0,1,,,,,,,,,,,,,,,,,,,,,,,,,,,,,,,,,,,,,,,,,,,,,,,,,,,,,,,,,,,
,,,,,,,,,R_1QuuhlsJpymk9Ar,2022-07-09_17h24.16.956,jpn_C02,2022.1.2,MacIntel,55.55555556,,,,,,,,,,,,,,,,,,,,,,,,,0,0,0,10,1,CartoonStims/artist_r.jpg,ピポ,CartoonStims/doctor_r.jpg,right,CartoonStims/doctor_r.jpg,audio/pipo.mp3,残念！ こちらが正しい画像です。,,,,,,,,,,,,,,,,,,,,,,,,,,,,,,,,,,,,,,,,,,,,,,,
,,,,,,,,,R_1QuuhlsJpymk9Ar,2022-07-09_17h24.16.956,jpn_C02,2022.1.2,MacIntel,55.55555556,,,,,,,,,,,,,,,,,right,1,0.939,0,0,0,0,1,,,,,,,,,,,,,,,,,,,,,,,,,,,,,,,,,,,,,,,,,,,,,,,,,,,,,,,,,,,
,,,,,,,,,R_1QuuhlsJpymk9Ar,2022-07-09_17h24.16.956,jpn_C02,2022.1.2,MacIntel,55.55555556,,,,,,,,,,,,,,,,,,,,,,,,,0,1,1,7,1,CartoonStims/cowboy_r.jpg,ルピン,CartoonStims/burglar_r.jpg,right,CartoonStims/burglar_r.jpg,audio/lupin.mp3,残念！ こちらが正しい画像です。,,,,,,,,,,,,,,,,,,,,,,,,,,,,,,,,,,,,,,,,,,,,,,,
,,,,,,,,,R_1QuuhlsJpymk9Ar,2022-07-09_17h24.16.956,jpn_C02,2022.1.2,MacIntel,55.55555556,,,,,,,,,,,,,,,,,left,1,1.402,,,,,,,,,,,,,,,,,,0,0,0,0,1,,,,,,,,,,,,,,,,,,,,,,,,,,,,,,,,,,,,,,,,,,
,,,,,,,,,R_1QuuhlsJpymk9Ar,2022-07-09_17h24.16.956,jpn_C02,2022.1.2,MacIntel,55.55555556,,,,,,,,,,,,,,,,,,,,,,,,,0,2,2,2,1,CartoonStims/chef_r.jpg,ホレト,CartoonStims/cowboy_r.jpg,left,CartoonStims/chef_r.jpg,audio/horeto.mp3,残念！ こちらが正しい画像です。,,,,,,,,,,,,,,,,,,,,,,,,,,,,,,,,,,,,,,,,,,,,,,,
,,,,,,,,,R_1QuuhlsJpymk9Ar,2022-07-09_17h24.16.956,jpn_C02,2022.1.2,MacIntel,55.55555556,,,,,,,,,,,,,,,,,left,1,1.242,,,,,,,,,,,,,,,,,,0,0,0,0,1,,,,,,,,,,,,,,,,,,,,,,,,,,,,,,,,,,,,,,,,,,
,,,,,,,,,R_1QuuhlsJpymk9Ar,2022-07-09_17h24.16.956,jpn_C02,2022.1.2,MacIntel,55.55555556,,,,,,,,,,,,,,,,,,,,,,,,,0,3,3,0,1,CartoonStims/artist_r.jpg,シド,CartoonStims/burglar_r.jpg,left,CartoonStims/artist_r.jpg,audio/sido.mp3,残念！ こちらが正しい画像です。,,,,,,,,,,,,,,,,,,,,,,,,,,,,,,,,,,,,,,,,,,,,,,,
,,,,,,,,,R_1QuuhlsJpymk9Ar,2022-07-09_17h24.16.956,jpn_C02,2022.1.2,MacIntel,55.55555556,,,,,,,,,,,,,,,,,left,1,1.586,,,,,,,,,,,,,,,,,,0,0,0,0,1,,,,,,,,,,,,,,,,,,,,,,,,,,,,,,,,,,,,,,,,,,
,,,,,,,,,R_1QuuhlsJpymk9Ar,2022-07-09_17h24.16.956,jpn_C02,2022.1.2,MacIntel,55.55555556,,,,,,,,,,,,,,,,,,,,,,,,,0,4,4,3,1,CartoonStims/cowboy_r.jpg,ムク,CartoonStims/doctor_r.jpg,left,CartoonStims/cowboy_r.jpg,audio/muku.mp3,残念！ こちらが正しい画像です。,,,,,,,,,,,,,,,,,,,,,,,,,,,,,,,,,,,,,,,,,,,,,,,
,,,,,,,,,R_1QuuhlsJpymk9Ar,2022-07-09_17h24.16.956,jpn_C02,2022.1.2,MacIntel,55.55555556,,,,,,,,,,,,,,,,,left,1,1.251,,,,,,,,,,,,,,,,,,0,0,0,0,1,,,,,,,,,,,,,,,,,,,,,,,,,,,,,,,,,,,,,,,,,,
,,,,,,,,,R_1QuuhlsJpymk9Ar,2022-07-09_17h24.16.956,jpn_C02,2022.1.2,MacIntel,55.55555556,,,,,,,,,,,,,,,,,,,,,,,,,0,5,5,4,1,CartoonStims/doctor_r.jpg,ピポ,CartoonStims/boxer_r.jpg,left,CartoonStims/doctor_r.jpg,audio/pipo.mp3,残念！ こちらが正しい画像です。,,,,,,,,,,,,,,,,,,,,,,,,,,,,,,,,,,,,,,,,,,,,,,,
,,,,,,,,,R_1QuuhlsJpymk9Ar,2022-07-09_17h24.16.956,jpn_C02,2022.1.2,MacIntel,55.55555556,,,,,,,,,,,,,,,,,right,1,1.039,0,0,0,0,1,,,,,,,,,,,,,,,,,,,,,,,,,,,,,,,,,,,,,,,,,,,,,,,,,,,,,,,,,,,
,,,,,,,,,R_1QuuhlsJpymk9Ar,2022-07-09_17h24.16.956,jpn_C02,2022.1.2,MacIntel,55.55555556,,,,,,,,,,,,,,,,,,,,,,,,,0,6,6,6,1,CartoonStims/chef_r.jpg,シド,CartoonStims/artist_r.jpg,right,CartoonStims/artist_r.jpg,audio/sido.mp3,残念！ こちらが正しい画像です。,,,,,,,,,,,,,,,,,,,,,,,,,,,,,,,,,,,,,,,,,,,,,,,
,,,,,,,,,R_1QuuhlsJpymk9Ar,2022-07-09_17h24.16.956,jpn_C02,2022.1.2,MacIntel,55.55555556,,,,,,,,,,,,,,,,,right,1,0.987,0,0,0,0,1,,,,,,,,,,,,,,,,,,,,,,,,,,,,,,,,,,,,,,,,,,,,,,,,,,,,,,,,,,,
,,,,,,,,,R_1QuuhlsJpymk9Ar,2022-07-09_17h24.16.956,jpn_C02,2022.1.2,MacIntel,55.55555556,,,,,,,,,,,,,,,,,,,,,,,,,0,7,7,11,1,CartoonStims/burglar_r.jpg,ドキ,CartoonStims/boxer_r.jpg,right,CartoonStims/boxer_r.jpg,audio/doki.mp3,残念！ こちらが正しい画像です。,,,,,,,,,,,,,,,,,,,,,,,,,,,,,,,,,,,,,,,,,,,,,,,
,,,,,,,,,R_1QuuhlsJpymk9Ar,2022-07-09_17h24.16.956,jpn_C02,2022.1.2,MacIntel,55.55555556,,,,,,,,,,,,,,,,,right,1,1.745,0,0,0,0,1,,,,,,,,,,,,,,,,,,,,,,,,,,,,,,,,,,,,,,,,,,,,,,,,,,,,,,,,,,,
,,,,,,,,,R_1QuuhlsJpymk9Ar,2022-07-09_17h24.16.956,jpn_C02,2022.1.2,MacIntel,55.55555556,,,,,,,,,,,,,,,,,,,,,,,,,0,8,8,8,1,CartoonStims/doctor_r.jpg,ホレト,CartoonStims/chef_r.jpg,right,CartoonStims/chef_r.jpg,audio/horeto.mp3,残念！ こちらが正しい画像です。,,,,,,,,,,,,,,,,,,,,,,,,,,,,,,,,,,,,,,,,,,,,,,,
,,,,,,,,,R_1QuuhlsJpymk9Ar,2022-07-09_17h24.16.956,jpn_C02,2022.1.2,MacIntel,55.55555556,,,,,,,,,,,,,,,,,left,1,1.345,,,,,,,,,,,,,,,,,,0,0,0,0,1,,,,,,,,,,,,,,,,,,,,,,,,,,,,,,,,,,,,,,,,,,
,,,,,,,,,R_1QuuhlsJpymk9Ar,2022-07-09_17h24.16.956,jpn_C02,2022.1.2,MacIntel,55.55555556,,,,,,,,,,,,,,,,,,,,,,,,,0,9,9,5,1,CartoonStims/boxer_r.jpg,ドキ,CartoonStims/artist_r.jpg,left,CartoonStims/boxer_r.jpg,audio/doki.mp3,残念！ こちらが正しい画像です。,,,,,,,,,,,,,,,,,,,,,,,,,,,,,,,,,,,,,,,,,,,,,,,
,,,,,,,,,R_1QuuhlsJpymk9Ar,2022-07-09_17h24.16.956,jpn_C02,2022.1.2,MacIntel,55.55555556,,,,,,,,,,,,,,,,,right,1,0.965,0,0,0,0,1,,,,,,,,,,,,,,,,,,,,,,,,,,,,,,,,,,,,,,,,,,,,,,,,,,,,,,,,,,,
,,,,,,,,,R_1QuuhlsJpymk9Ar,2022-07-09_17h24.16.956,jpn_C02,2022.1.2,MacIntel,55.55555556,,,,,,,,,,,,,,,,,,,,,,,,,0,10,10,9,1,CartoonStims/boxer_r.jpg,ムク,CartoonStims/cowboy_r.jpg,right,CartoonStims/cowboy_r.jpg,audio/muku.mp3,残念！ こちらが正しい画像です。,,,,,,,,,,,,,,,,,,,,,,,,,,,,,,,,,,,,,,,,,,,,,,,
,,,,,,,,,R_1QuuhlsJpymk9Ar,2022-07-09_17h24.16.956,jpn_C02,2022.1.2,MacIntel,55.55555556,,,,,,,,,,,,,,,,,left,1,0.898,,,,,,,,,,,,,,,,,,0,0,0,0,1,,,,,,,,,,,,,,,,,,,,,,,,,,,,,,,,,,,,,,,,,,
,,,,,,,,,R_1QuuhlsJpymk9Ar,2022-07-09_17h24.16.956,jpn_C02,2022.1.2,MacIntel,55.55555556,,,,,,,,,,,,,,,,,,,,,,,,,0,11,11,1,1,CartoonStims/burglar_r.jpg,ルピン,CartoonStims/chef_r.jpg,left,CartoonStims/burglar_r.jpg,audio/lupin.mp3,残念！ こちらが正しい画像です。,,,,,,,,,,,,,,,,,,,,,,,,,,,,,,,,,,,,,,,,,,,,,,,
,,,,,,,,,R_1QuuhlsJpymk9Ar,2022-07-09_17h24.16.956,jpn_C02,2022.1.2,MacIntel,55.55555556,,,,,,,,,,,,,,,,,,,,,,,,,,,,,,,,,,,,,,,,,,space,1.884,ホレト,right,6.34,0,0,0,0,1,,,,,,,,,,,,,,,,,,,,,,,,,,,,,,,,
,,,,,,,,,R_1QuuhlsJpymk9Ar,2022-07-09_17h24.16.956,jpn_C02,2022.1.2,MacIntel,55.55555556,,,,,,,,,,,,,CartoonStims/chef_r.jpg,audio/horeto.mp3,,,,,,,,,,,,,,,,,,,,,,,,,,,,,,,,,,,,,,0,0,0,2,1,ホレト,,,,,,,,,,,,,,,,,,,,,,,,,,
,,,,,,,,,R_1QuuhlsJpymk9Ar,2022-07-09_17h24.16.956,jpn_C02,2022.1.2,MacIntel,55.55555556,,,,,,,,,,,,,,,,,,,,,,,,,,,,,,,,,,,,,,,,,,,,ピポ,right,5.597,0,0,0,0,1,,,,,,,,,,,,,,,,,,,,,,,,,,,,,,,,
,,,,,,,,,R_1QuuhlsJpymk9Ar,2022-07-09_17h24.16.956,jpn_C02,2022.1.2,MacIntel,55.55555556,,,,,,,,,,,,,CartoonStims/doctor_r.jpg,audio/pipo.mp3,,,,,,,,,,,,,,,,,,,,,,,,,,,,,,,,,,,,,,0,1,1,4,1,ピポ,,,,,,,,,,,,,,,,,,,,,,,,,,
,,,,,,,,,R_1QuuhlsJpymk9Ar,2022-07-09_17h24.16.956,jpn_C02,2022.1.2,MacIntel,55.55555556,,,,,,,,,,,,,,,,,,,,,,,,,,,,,,,,,,,,,,,,,,,,ドキ,right,4.52,0,0,0,0,1,,,,,,,,,,,,,,,,,,,,,,,,,,,,,,,,
,,,,,,,,,R_1QuuhlsJpymk9Ar,2022-07-09_17h24.16.956,jpn_C02,2022.1.2,MacIntel,55.55555556,,,,,,,,,,,,,CartoonStims/boxer_r.jpg,audio/doki.mp3,,,,,,,,,,,,,,,,,,,,,,,,,,,,,,,,,,,,,,0,2,2,5,1,ドキ,,,,,,,,,,,,,,,,,,,,,,,,,,
,,,,,,,,,R_1QuuhlsJpymk9Ar,2022-07-09_17h24.16.956,jpn_C02,2022.1.2,MacIntel,55.55555556,,,,,,,,,,,,,,,,,,,,,,,,,,,,,,,,,,,,,,,,,,,,シド,right,3.062,0,0,0,0,1,,,,,,,,,,,,,,,,,,,,,,,,,,,,,,,,
,,,,,,,,,R_1QuuhlsJpymk9Ar,2022-07-09_17h24.16.956,jpn_C02,2022.1.2,MacIntel,55.55555556,,,,,,,,,,,,,CartoonStims/artist_r.jpg,audio/sido.mp3,,,,,,,,,,,,,,,,,,,,,,,,,,,,,,,,,,,,,,0,3,3,0,1,シド,,,,,,,,,,,,,,,,,,,,,,,,,,
,,,,,,,,,R_1QuuhlsJpymk9Ar,2022-07-09_17h24.16.956,jpn_C02,2022.1.2,MacIntel,55.55555556,,,,,,,,,,,,,,,,,,,,,,,,,,,,,,,,,,,,,,,,,,,,ルピン,right,2.998,0,0,0,0,1,,,,,,,,,,,,,,,,,,,,,,,,,,,,,,,,
,,,,,,,,,R_1QuuhlsJpymk9Ar,2022-07-09_17h24.16.956,jpn_C02,2022.1.2,MacIntel,55.55555556,,,,,,,,,,,,,CartoonStims/burglar_r.jpg,audio/lupin.mp3,,,,,,,,,,,,,,,,,,,,,,,,,,,,,,,,,,,,,,0,4,4,1,1,ルピン,,,,,,,,,,,,,,,,,,,,,,,,,,
,,,,,,,,,R_1QuuhlsJpymk9Ar,2022-07-09_17h24.16.956,jpn_C02,2022.1.2,MacIntel,55.55555556,,,,,,,,,,,,,,,,,,,,,,,,,,,,,,,,,,,,,,,,,,,,ムク,right,8.74,0,0,0,0,1,,,,,,,,,,,,,,,,,,,,,,,,,,,,,,,,
,,,,,,,,,R_1QuuhlsJpymk9Ar,2022-07-09_17h24.16.956,jpn_C02,2022.1.2,MacIntel,55.55555556,,,,,,,,,,,,,CartoonStims/cowboy_r.jpg,audio/muku.mp3,,,,,,,,,,,,,,,,,,,,,,,,,,,,,,,,,,,,,,0,5,5,3,1,ムク,,,,,,,,,,,,,,,,,,,,,,,,,,
,,,,,,,,,R_1QuuhlsJpymk9Ar,2022-07-09_17h24.16.956,jpn_C02,2022.1.2,MacIntel,55.55555556,,,,,,,,,,,,,,,,,,,,,,,,,,,,,,,,,,,,,,,,,,,,ドキ,right,3.053,0,0,0,0,1,,,,,,,,,,,,,,,,,,,,,,,,,,,,,,,,
,,,,,,,,,R_1QuuhlsJpymk9Ar,2022-07-09_17h24.16.956,jpn_C02,2022.1.2,MacIntel,55.55555556,,,,,,,,,,,,,CartoonStims/boxer_r.jpg,audio/doki.mp3,,,,,,,,,,,,,,,,,,,,,,,,,,,,,,,,,,,,,,1,0,6,5,1,ドキ,,,,,,,,,,,,,,,,,,,,,,,,,,
,,,,,,,,,R_1QuuhlsJpymk9Ar,2022-07-09_17h24.16.956,jpn_C02,2022.1.2,MacIntel,55.55555556,,,,,,,,,,,,,,,,,,,,,,,,,,,,,,,,,,,,,,,,,,,,ムク,right,2.66,0,0,0,0,1,,,,,,,,,,,,,,,,,,,,,,,,,,,,,,,,
,,,,,,,,,R_1QuuhlsJpymk9Ar,2022-07-09_17h24.16.956,jpn_C02,2022.1.2,MacIntel,55.55555556,,,,,,,,,,,,,CartoonStims/cowboy_r.jpg,audio/muku.mp3,,,,,,,,,,,,,,,,,,,,,,,,,,,,,,,,,,,,,,1,1,7,3,1,ムク,,,,,,,,,,,,,,,,,,,,,,,,,,
,,,,,,,,,R_1QuuhlsJpymk9Ar,2022-07-09_17h24.16.956,jpn_C02,2022.1.2,MacIntel,55.55555556,,,,,,,,,,,,,,,,,,,,,,,,,,,,,,,,,,,,,,,,,,,,シド,right,2.938,0,0,0,0,1,,,,,,,,,,,,,,,,,,,,,,,,,,,,,,,,
,,,,,,,,,R_1QuuhlsJpymk9Ar,2022-07-09_17h24.16.956,jpn_C02,2022.1.2,MacIntel,55.55555556,,,,,,,,,,,,,CartoonStims/artist_r.jpg,audio/sido.mp3,,,,,,,,,,,,,,,,,,,,,,,,,,,,,,,,,,,,,,1,2,8,0,1,シド,,,,,,,,,,,,,,,,,,,,,,,,,,
,,,,,,,,,R_1QuuhlsJpymk9Ar,2022-07-09_17h24.16.956,jpn_C02,2022.1.2,MacIntel,55.55555556,,,,,,,,,,,,,,,,,,,,,,,,,,,,,,,,,,,,,,,,,,,,ホレト,right,4.552,0,0,0,0,1,,,,,,,,,,,,,,,,,,,,,,,,,,,,,,,,
,,,,,,,,,R_1QuuhlsJpymk9Ar,2022-07-09_17h24.16.956,jpn_C02,2022.1.2,MacIntel,55.55555556,,,,,,,,,,,,,CartoonStims/chef_r.jpg,audio/horeto.mp3,,,,,,,,,,,,,,,,,,,,,,,,,,,,,,,,,,,,,,1,3,9,2,1,ホレト,,,,,,,,,,,,,,,,,,,,,,,,,,
,,,,,,,,,R_1QuuhlsJpymk9Ar,2022-07-09_17h24.16.956,jpn_C02,2022.1.2,MacIntel,55.55555556,,,,,,,,,,,,,,,,,,,,,,,,,,,,,,,,,,,,,,,,,,,,ピポ,right,3.636,0,0,0,0,1,,,,,,,,,,,,,,,,,,,,,,,,,,,,,,,,
,,,,,,,,,R_1QuuhlsJpymk9Ar,2022-07-09_17h24.16.956,jpn_C02,2022.1.2,MacIntel,55.55555556,,,,,,,,,,,,,CartoonStims/doctor_r.jpg,audio/pipo.mp3,,,,,,,,,,,,,,,,,,,,,,,,,,,,,,,,,,,,,,1,4,10,4,1,ピポ,,,,,,,,,,,,,,,,,,,,,,,,,,
,,,,,,,,,R_1QuuhlsJpymk9Ar,2022-07-09_17h24.16.956,jpn_C02,2022.1.2,MacIntel,55.55555556,,,,,,,,,,,,,,,,,,,,,,,,,,,,,,,,,,,,,,,,,,,,ルピン,right,2.532,0,0,0,0,1,,,,,,,,,,,,,,,,,,,,,,,,,,,,,,,,
,,,,,,,,,R_1QuuhlsJpymk9Ar,2022-07-09_17h24.16.956,jpn_C02,2022.1.2,MacIntel,55.55555556,,,,,,,,,,,,,CartoonStims/burglar_r.jpg,audio/lupin.mp3,,,,,,,,,,,,,,,,,,,,,,,,,,,,,,,,,,,,,,1,5,11,1,1,ルピン,,,,,,,,,,,,,,,,,,,,,,,,,,
,,,,,,,,,R_1QuuhlsJpymk9Ar,2022-07-09_17h24.16.956,jpn_C02,2022.1.2,MacIntel,55.55555556,,,,,,,,,,,,,,,,,,,,,,,,,,,,,,,,,,,,,,,,,,,,,,,,,,,,,,,,,,,space,1.97,0,0,0,0,1,NounExposure.xlsx,"最初のトライアルでは、 画像が表示され、 その画像の下に単語が出てきます。 またこの単語の音も聞くことができます。 この音を大きな声で復唱してください。 そしてこの画像がどのような単語を示しているのか, 考えてみてください。 その後、 続きのボタンを押すと次の単語の学習が始まります。

スペースキーを押して、学習を始めましょう。",3,NounFCT.xlsx,ここから語彙のクイズが始まります。スクリーンに表示される単語に合う画像をキーボードの右と左の矢印キーを使って選択してください。,NounTest.xlsx,2,次に、これまで学習してきたことをアウトプットしていただきます。 表示される画像を描写していると思う単語を、テキストボックスにタイプしてください。,1,"ここまでが最初のトライアルです。ここで休憩をとっても構いません。

休憩が済みましたら、スペースキーを押して続きを始めましょう。",,,,,,,,
,,,,,,,,,R_1QuuhlsJpymk9Ar,2022-07-09_17h24.16.956,jpn_C02,2022.1.2,MacIntel,55.55555556,space,3.72,space,9.197,0,0,0,47,1,プミ　ドキ　ピポ,,,CartoonStims/boxer_punch_doctor_r.jpg,audio/pumidokipipo.mp3,,,,,,,,,,,,,,,,,,,,,,,,,,,,,,,,,,,,,,,,,,,,,,,,,,,,,,,,,,,,,,,,,,,,,
,,,,,,,,,R_1QuuhlsJpymk9Ar,2022-07-09_17h24.16.956,jpn_C02,2022.1.2,MacIntel,55.55555556,,,space,12.766,0,1,1,21,1,トマ　ピポ　ルピン,,,CartoonStims/doctor_point_burglar_r.jpg,audio/tomapipolupin.mp3,,,,,,,,,,,,,,,,,,,,,,,,,,,,,,,,,,,,,,,,,,,,,,,,,,,,,,,,,,,,,,,,,,,,,
,,,,,,,,,R_1QuuhlsJpymk9Ar,2022-07-09_17h24.16.956,jpn_C02,2022.1.2,MacIntel,55.55555556,,,space,4.264,0,2,2,5,1,セル　ホレト　ピポ,,,CartoonStims/chef_kick_doctor_r.jpg,audio/seruhoretopipo.mp3,,,,,,,,,,,,,,,,,,,,,,,,,,,,,,,,,,,,,,,,,,,,,,,,,,,,,,,,,,,,,,,,,,,,,
,,,,,,,,,R_1QuuhlsJpymk9Ar,2022-07-09_17h24.16.956,jpn_C02,2022.1.2,MacIntel,55.55555556,,,space,6.641,0,3,3,37,1,プミ　シド　ドキ,,,CartoonStims/artist_punch_boxer_r.jpg,audio/pumisidodoki.mp3,,,,,,,,,,,,,,,,,,,,,,,,,,,,,,,,,,,,,,,,,,,,,,,,,,,,,,,,,,,,,,,,,,,,,
,,,,,,,,,R_1QuuhlsJpymk9Ar,2022-07-09_17h24.16.956,jpn_C02,2022.1.2,MacIntel,55.55555556,,,space,4.634,0,4,4,0,1,セル　シド　ルピン,,,CartoonStims/artist_kick_burglar_r.jpg,audio/serusidolupin.mp3,,,,,,,,,,,,,,,,,,,,,,,,,,,,,,,,,,,,,,,,,,,,,,,,,,,,,,,,,,,,,,,,,,,,,
,,,,,,,,,R_1QuuhlsJpymk9Ar,2022-07-09_17h24.16.956,jpn_C02,2022.1.2,MacIntel,55.55555556,,,space,6.739,0,5,5,35,1,パツ　ドキ　ムク,,,CartoonStims/boxer_shoot_cowboy_r.jpg,audio/patsudokimuku.mp3,,,,,,,,,,,,,,,,,,,,,,,,,,,,,,,,,,,,,,,,,,,,,,,,,,,,,,,,,,,,,,,,,,,,,
,,,,,,,,,R_1QuuhlsJpymk9Ar,2022-07-09_17h24.16.956,jpn_C02,2022.1.2,MacIntel,55.55555556,,,space,3.557,0,6,6,13,1,トマ　シド　ムク,,,CartoonStims/artist_point_cowboy_r.jpg,audio/tomasidomuku.mp3,,,,,,,,,,,,,,,,,,,,,,,,,,,,,,,,,,,,,,,,,,,,,,,,,,,,,,,,,,,,,,,,,,,,,
,,,,,,,,,R_1QuuhlsJpymk9Ar,2022-07-09_17h24.16.956,jpn_C02,2022.1.2,MacIntel,55.55555556,,,space,2.509,0,7,7,25,1,パツ　シド　ピポ,,,CartoonStims/artist_shoot_doctor_r.jpg,audio/patsusidopipo.mp3,,,,,,,,,,,,,,,,,,,,,,,,,,,,,,,,,,,,,,,,,,,,,,,,,,,,,,,,,,,,,,,,,,,,,
,,,,,,,,,R_1QuuhlsJpymk9Ar,2022-07-09_17h24.16.956,jpn_C02,2022.1.2,MacIntel,55.55555556,,,space,2.944,0,8,8,41,1,プミ　ホレト　ルピン,,,CartoonStims/chef_punch_burglar_r.jpg,audio/pumihoretolupin.mp3,,,,,,,,,,,,,,,,,,,,,,,,,,,,,,,,,,,,,,,,,,,,,,,,,,,,,,,,,,,,,,,,,,,,,
,,,,,,,,,R_1QuuhlsJpymk9Ar,2022-07-09_17h24.16.956,jpn_C02,2022.1.2,MacIntel,55.55555556,,,space,2.285,0,9,9,22,1,トマ　ドキ　ルピン,,,CartoonStims/boxer_point_burglar_r.jpg,audio/tomadokilupin.mp3,,,,,,,,,,,,,,,,,,,,,,,,,,,,,,,,,,,,,,,,,,,,,,,,,,,,,,,,,,,,,,,,,,,,,
,,,,,,,,,R_1QuuhlsJpymk9Ar,2022-07-09_17h24.16.956,jpn_C02,2022.1.2,MacIntel,55.55555556,,,space,2.815,0,10,10,44,1,プミ　ピポ　ホレト,,,CartoonStims/doctor_punch_chef_r.jpg,audio/pumipipohoreto.mp3,,,,,,,,,,,,,,,,,,,,,,,,,,,,,,,,,,,,,,,,,,,,,,,,,,,,,,,,,,,,,,,,,,,,,
,,,,,,,,,R_1QuuhlsJpymk9Ar,2022-07-09_17h24.16.956,jpn_C02,2022.1.2,MacIntel,55.55555556,,,space,5.336,0,11,11,29,1,パツ　ホレト　シド,,,CartoonStims/chef_shoot_artist_r.jpg,audio/patsuhoretosido.mp3,,,,,,,,,,,,,,,,,,,,,,,,,,,,,,,,,,,,,,,,,,,,,,,,,,,,,,,,,,,,,,,,,,,,,
,,,,,,,,,R_1QuuhlsJpymk9Ar,2022-07-09_17h24.16.956,jpn_C02,2022.1.2,MacIntel,55.55555556,,,space,1.843,0,12,12,36,1,プミ　シド　ピポ,,,CartoonStims/artist_punch_doctor_r.jpg,audio/pumisidopipo.mp3,,,,,,,,,,,,,,,,,,,,,,,,,,,,,,,,,,,,,,,,,,,,,,,,,,,,,,,,,,,,,,,,,,,,,
,,,,,,,,,R_1QuuhlsJpymk9Ar,2022-07-09_17h24.16.956,jpn_C02,2022.1.2,MacIntel,55.55555556,,,space,2.538,0,13,13,20,1,トマ　ピポ　シド,,,CartoonStims/doctor_point_artist_r.jpg,audio/tomapiposido.mp3,,,,,,,,,,,,,,,,,,,,,,,,,,,,,,,,,,,,,,,,,,,,,,,,,,,,,,,,,,,,,,,,,,,,,
,,,,,,,,,R_1QuuhlsJpymk9Ar,2022-07-09_17h24.16.956,jpn_C02,2022.1.2,MacIntel,55.55555556,,,space,4.566,0,14,14,11,1,セル　ドキ　ルピン,,,CartoonStims/boxer_kick_burglar_r.jpg,audio/serudokilupin.mp3,,,,,,,,,,,,,,,,,,,,,,,,,,,,,,,,,,,,,,,,,,,,,,,,,,,,,,,,,,,,,,,,,,,,,
,,,,,,,,,R_1QuuhlsJpymk9Ar,2022-07-09_17h24.16.956,jpn_C02,2022.1.2,MacIntel,55.55555556,,,space,2.768,0,15,15,2,1,セル 　ルピン 　ホレト,,,CartoonStims/burglar_kick_chef_r.jpg,audio/serulupinhoreto.mp3,,,,,,,,,,,,,,,,,,,,,,,,,,,,,,,,,,,,,,,,,,,,,,,,,,,,,,,,,,,,,,,,,,,,,
,,,,,,,,,R_1QuuhlsJpymk9Ar,2022-07-09_17h24.16.956,jpn_C02,2022.1.2,MacIntel,55.55555556,,,space,5.068,0,16,16,18,1,トマ　ムク　ドキ,,,CartoonStims/cowboy_point_boxer_r.jpg,audio/tomamukudoki.mp3,,,,,,,,,,,,,,,,,,,,,,,,,,,,,,,,,,,,,,,,,,,,,,,,,,,,,,,,,,,,,,,,,,,,,
,,,,,,,,,R_1QuuhlsJpymk9Ar,2022-07-09_17h24.16.956,jpn_C02,2022.1.2,MacIntel,55.55555556,,,space,4.733,0,17,17,1,1,セル 　シド 　ホレト,,,CartoonStims/artist_kick_chef_r.jpg,audio/serusidohoreto.mp3,,,,,,,,,,,,,,,,,,,,,,,,,,,,,,,,,,,,,,,,,,,,,,,,,,,,,,,,,,,,,,,,,,,,,
,,,,,,,,,R_1QuuhlsJpymk9Ar,2022-07-09_17h24.16.956,jpn_C02,2022.1.2,MacIntel,55.55555556,,,space,2.368,0,18,18,30,1,パツ　ムク　シド,,,CartoonStims/cowboy_shoot_artist_r.jpg,audio/patsumukusido.mp3,,,,,,,,,,,,,,,,,,,,,,,,,,,,,,,,,,,,,,,,,,,,,,,,,,,,,,,,,,,,,,,,,,,,,
,,,,,,,,,R_1QuuhlsJpymk9Ar,2022-07-09_17h24.16.956,jpn_C02,2022.1.2,MacIntel,55.55555556,,,space,4.259,0,19,19,33,1,パツ　ピポ　ホレト,,,CartoonStims/doctor_shoot_chef_r.jpg,audio/patsupipohoreto.mp3,,,,,,,,,,,,,,,,,,,,,,,,,,,,,,,,,,,,,,,,,,,,,,,,,,,,,,,,,,,,,,,,,,,,,
,,,,,,,,,R_1QuuhlsJpymk9Ar,2022-07-09_17h24.16.956,jpn_C02,2022.1.2,MacIntel,55.55555556,,,space,2.696,0,20,20,8,1,セル　ピポ　ドキ,,,CartoonStims/doctor_kick_boxer_r.jpg,audio/serupipodoki.mp3,,,,,,,,,,,,,,,,,,,,,,,,,,,,,,,,,,,,,,,,,,,,,,,,,,,,,,,,,,,,,,,,,,,,,
,,,,,,,,,R_1QuuhlsJpymk9Ar,2022-07-09_17h24.16.956,jpn_C02,2022.1.2,MacIntel,55.55555556,,,space,3.978,0,21,21,19,1,トマ　ムク　シド,,,CartoonStims/cowboy_point_artist_r.jpg,audio/tomamukusido.mp3,,,,,,,,,,,,,,,,,,,,,,,,,,,,,,,,,,,,,,,,,,,,,,,,,,,,,,,,,,,,,,,,,,,,,
,,,,,,,,,R_1QuuhlsJpymk9Ar,2022-07-09_17h24.16.956,jpn_C02,2022.1.2,MacIntel,55.55555556,,,space,3.978,0,22,22,26,1,パツ　ルピン　ピポ,,,CartoonStims/burglar_shoot_doctor_r.jpg,audio/patsulupinpipo.mp3,,,,,,,,,,,,,,,,,,,,,,,,,,,,,,,,,,,,,,,,,,,,,,,,,,,,,,,,,,,,,,,,,,,,,
,,,,,,,,,R_1QuuhlsJpymk9Ar,2022-07-09_17h24.16.956,jpn_C02,2022.1.2,MacIntel,55.55555556,,,space,4.824,0,23,23,43,1,プミ　ムク　ホレト,,,CartoonStims/cowboy_punch_chef_r.jpg,audio/pumimukuhoreto.mp3,,,,,,,,,,,,,,,,,,,,,,,,,,,,,,,,,,,,,,,,,,,,,,,,,,,,,,,,,,,,,,,,,,,,,
,,,,,,,,,R_1QuuhlsJpymk9Ar,2022-07-09_17h24.16.956,jpn_C02,2022.1.2,MacIntel,55.55555556,,,space,2.444,0,24,24,14,1,トマ　ルピン　ムク,,,CartoonStims/burglar_point_cowboy_r.jpg,audio/tomalupinmuku.mp3,,,,,,,,,,,,,,,,,,,,,,,,,,,,,,,,,,,,,,,,,,,,,,,,,,,,,,,,,,,,,,,,,,,,,
,,,,,,,,,R_1QuuhlsJpymk9Ar,2022-07-09_17h24.16.956,jpn_C02,2022.1.2,MacIntel,55.55555556,,,space,4.752,0,25,25,10,1,セル　ドキ　シド,,,CartoonStims/boxer_kick_artist_r.jpg,audio/serudokisido.mp3,,,,,,,,,,,,,,,,,,,,,,,,,,,,,,,,,,,,,,,,,,,,,,,,,,,,,,,,,,,,,,,,,,,,,
,,,,,,,,,R_1QuuhlsJpymk9Ar,2022-07-09_17h24.16.956,jpn_C02,2022.1.2,MacIntel,55.55555556,,,space,2.98,0,26,26,27,1,パツ　ルピン　ドキ,,,CartoonStims/burglar_shoot_boxer_r.jpg,audio/patsulupindoki.mp3,,,,,,,,,,,,,,,,,,,,,,,,,,,,,,,,,,,,,,,,,,,,,,,,,,,,,,,,,,,,,,,,,,,,,
,,,,,,,,,R_1QuuhlsJpymk9Ar,2022-07-09_17h24.16.956,jpn_C02,2022.1.2,MacIntel,55.55555556,,,space,2.441,0,27,27,23,1,トマ　ドキ　ホレト,,,CartoonStims/boxer_point_chef_r.jpg,audio/tomadokihoreto.mp3,,,,,,,,,,,,,,,,,,,,,,,,,,,,,,,,,,,,,,,,,,,,,,,,,,,,,,,,,,,,,,,,,,,,,
,,,,,,,,,R_1QuuhlsJpymk9Ar,2022-07-09_17h24.16.956,jpn_C02,2022.1.2,MacIntel,55.55555556,,,space,1.581,0,28,28,15,1,トマ　ルピン　ピポ,,,CartoonStims/burglar_point_doctor_r.jpg,audio/tomalupinpipo.mp3,,,,,,,,,,,,,,,,,,,,,,,,,,,,,,,,,,,,,,,,,,,,,,,,,,,,,,,,,,,,,,,,,,,,,
,,,,,,,,,R_1QuuhlsJpymk9Ar,2022-07-09_17h24.16.956,jpn_C02,2022.1.2,MacIntel,55.55555556,,,space,1.724,0,29,29,46,1,プミ　ドキ　ムク,,,CartoonStims/boxer_punch_cowboy_r.jpg,audio/pumidokimuku.mp3,,,,,,,,,,,,,,,,,,,,,,,,,,,,,,,,,,,,,,,,,,,,,,,,,,,,,,,,,,,,,,,,,,,,,
,,,,,,,,,R_1QuuhlsJpymk9Ar,2022-07-09_17h24.16.956,jpn_C02,2022.1.2,MacIntel,55.55555556,,,space,1.675,0,30,30,4,1,セル　ホレト　ムク,,,CartoonStims/chef_kick_cowboy_r.jpg,audio/seruhoretomuku.mp3,,,,,,,,,,,,,,,,,,,,,,,,,,,,,,,,,,,,,,,,,,,,,,,,,,,,,,,,,,,,,,,,,,,,,
,,,,,,,,,R_1QuuhlsJpymk9Ar,2022-07-09_17h24.16.956,jpn_C02,2022.1.2,MacIntel,55.55555556,,,space,1.02,0,31,31,34,1,パツ　ドキ　ホレト,,,CartoonStims/boxer_shoot_chef_r.jpg,audio/patsudokihoreto.mp3,,,,,,,,,,,,,,,,,,,,,,,,,,,,,,,,,,,,,,,,,,,,,,,,,,,,,,,,,,,,,,,,,,,,,
,,,,,,,,,R_1QuuhlsJpymk9Ar,2022-07-09_17h24.16.956,jpn_C02,2022.1.2,MacIntel,55.55555556,,,space,1.243,0,32,32,40,1,プミ　ホレト　シド,,,CartoonStims/chef_punch_artist_r.jpg,audio/pumihoretosido.mp3,,,,,,,,,,,,,,,,,,,,,,,,,,,,,,,,,,,,,,,,,,,,,,,,,,,,,,,,,,,,,,,,,,,,,
,,,,,,,,,R_1QuuhlsJpymk9Ar,2022-07-09_17h24.16.956,jpn_C02,2022.1.2,MacIntel,55.55555556,,,space,1.293,0,33,33,7,1,セル　ムク　ドキ,,,CartoonStims/cowboy_kick_boxer_r.jpg,audio/serumukudoki.mp3,,,,,,,,,,,,,,,,,,,,,,,,,,,,,,,,,,,,,,,,,,,,,,,,,,,,,,,,,,,,,,,,,,,,,
,,,,,,,,,R_1QuuhlsJpymk9Ar,2022-07-09_17h24.16.956,jpn_C02,2022.1.2,MacIntel,55.55555556,,,space,1.346,0,34,34,12,1,トマ　シド　ホレト,,,CartoonStims/artist_point_chef_r.jpg,audio/tomasidohoreto.mp3,,,,,,,,,,,,,,,,,,,,,,,,,,,,,,,,,,,,,,,,,,,,,,,,,,,,,,,,,,,,,,,,,,,,,
,,,,,,,,,R_1QuuhlsJpymk9Ar,2022-07-09_17h24.16.956,jpn_C02,2022.1.2,MacIntel,55.55555556,,,space,1.327,0,35,35,28,1,パツ　ホレト　ドキ,,,CartoonStims/chef_shoot_boxer_r.jpg,audio/patsuhoretodoki.mp3,,,,,,,,,,,,,,,,,,,,,,,,,,,,,,,,,,,,,,,,,,,,,,,,,,,,,,,,,,,,,,,,,,,,,
,,,,,,,,,R_1QuuhlsJpymk9Ar,2022-07-09_17h24.16.956,jpn_C02,2022.1.2,MacIntel,55.55555556,,,space,1.793,0,36,36,3,1,セル　ルピン　ムク,,,CartoonStims/burglar_kick_cowboy_r.jpg,audio/serulupinmuku.mp3,,,,,,,,,,,,,,,,,,,,,,,,,,,,,,,,,,,,,,,,,,,,,,,,,,,,,,,,,,,,,,,,,,,,,
,,,,,,,,,R_1QuuhlsJpymk9Ar,2022-07-09_17h24.16.956,jpn_C02,2022.1.2,MacIntel,55.55555556,,,space,1.245,0,37,37,24,1,パツ　シド　ムク,,,CartoonStims/artist_shoot_cowboy_r.jpg,audio/patsusidomuku.mp3,,,,,,,,,,,,,,,,,,,,,,,,,,,,,,,,,,,,,,,,,,,,,,,,,,,,,,,,,,,,,,,,,,,,,
,,,,,,,,,R_1QuuhlsJpymk9Ar,2022-07-09_17h24.16.956,jpn_C02,2022.1.2,MacIntel,55.55555556,,,space,1.46,0,38,38,31,1,パツ　ムク　ルピン,,,CartoonStims/cowboy_shoot_burglar_r.jpg,audio/patsumukulupin.mp3,,,,,,,,,,,,,,,,,,,,,,,,,,,,,,,,,,,,,,,,,,,,,,,,,,,,,,,,,,,,,,,,,,,,,
,,,,,,,,,R_1QuuhlsJpymk9Ar,2022-07-09_17h24.16.956,jpn_C02,2022.1.2,MacIntel,55.55555556,,,space,1.753,0,39,39,17,1,トマ　ホレト　ドキ,,,CartoonStims/chef_point_boxer_r.jpg,audio/tomahoretodoki.mp3,,,,,,,,,,,,,,,,,,,,,,,,,,,,,,,,,,,,,,,,,,,,,,,,,,,,,,,,,,,,,,,,,,,,,
,,,,,,,,,R_1QuuhlsJpymk9Ar,2022-07-09_17h24.16.956,jpn_C02,2022.1.2,MacIntel,55.55555556,,,space,4.849,0,40,40,6,1,セル　ムク　ピポ,,,CartoonStims/cowboy_kick_doctor_r.jpg,audio/serumukupipo.mp3,,,,,,,,,,,,,,,,,,,,,,,,,,,,,,,,,,,,,,,,,,,,,,,,,,,,,,,,,,,,,,,,,,,,,
,,,,,,,,,R_1QuuhlsJpymk9Ar,2022-07-09_17h24.16.956,jpn_C02,2022.1.2,MacIntel,55.55555556,,,space,3.1,0,41,41,16,1,トマ　ホレト　ピポ,,,CartoonStims/chef_point_doctor_r.jpg,audio/tomahoretopipo.mp3,,,,,,,,,,,,,,,,,,,,,,,,,,,,,,,,,,,,,,,,,,,,,,,,,,,,,,,,,,,,,,,,,,,,,
,,,,,,,,,R_1QuuhlsJpymk9Ar,2022-07-09_17h24.16.956,jpn_C02,2022.1.2,MacIntel,55.55555556,,,space,7.004,0,42,42,45,1,プミ　ピポ　ムク,,,CartoonStims/doctor_punch_cowboy_r.jpg,audio/pumipipomuku.mp3,,,,,,,,,,,,,,,,,,,,,,,,,,,,,,,,,,,,,,,,,,,,,,,,,,,,,,,,,,,,,,,,,,,,,
,,,,,,,,,R_1QuuhlsJpymk9Ar,2022-07-09_17h24.16.956,jpn_C02,2022.1.2,MacIntel,55.55555556,,,space,3.309,0,43,43,32,1,パツ　ピポ　ルピン,,,CartoonStims/doctor_shoot_burglar_r.jpg,audio/patsupipolupin.mp3,,,,,,,,,,,,,,,,,,,,,,,,,,,,,,,,,,,,,,,,,,,,,,,,,,,,,,,,,,,,,,,,,,,,,
,,,,,,,,,R_1QuuhlsJpymk9Ar,2022-07-09_17h24.16.956,jpn_C02,2022.1.2,MacIntel,55.55555556,,,space,3.103,0,44,44,42,1,プミ　ムク　ルピン,,,CartoonStims/cowboy_punch_burglar_r.jpg,audio/pumimukulupin.mp3,,,,,,,,,,,,,,,,,,,,,,,,,,,,,,,,,,,,,,,,,,,,,,,,,,,,,,,,,,,,,,,,,,,,,
,,,,,,,,,R_1QuuhlsJpymk9Ar,2022-07-09_17h24.16.956,jpn_C02,2022.1.2,MacIntel,55.55555556,,,space,1.869,0,45,45,39,1,プミ　ルピン　シド,,,CartoonStims/burglar_punch_artist_r.jpg,audio/pumilupinsido.mp3,,,,,,,,,,,,,,,,,,,,,,,,,,,,,,,,,,,,,,,,,,,,,,,,,,,,,,,,,,,,,,,,,,,,,
,,,,,,,,,R_1QuuhlsJpymk9Ar,2022-07-09_17h24.16.956,jpn_C02,2022.1.2,MacIntel,55.55555556,,,space,1.72,0,46,46,38,1,プミ　ルピン　ドキ,,,CartoonStims/burglar_punch_boxer_r.jpg,audio/pumilupindoki.mp3,,,,,,,,,,,,,,,,,,,,,,,,,,,,,,,,,,,,,,,,,,,,,,,,,,,,,,,,,,,,,,,,,,,,,
,,,,,,,,,R_1QuuhlsJpymk9Ar,2022-07-09_17h24.16.956,jpn_C02,2022.1.2,MacIntel,55.55555556,,,space,1.734,0,47,47,9,1,セル　ピポ　シド,,,CartoonStims/doctor_kick_artist_r.jpg,audio/serupiposido.mp3,,,,,,,,,,,,,,,,,,,,,,,,,,,,,,,,,,,,,,,,,,,,,,,,,,,,,,,,,,,,,,,,,,,,,
,,,,,,,,,R_1QuuhlsJpymk9Ar,2022-07-09_17h24.16.956,jpn_C02,2022.1.2,MacIntel,55.55555556,,,,,,,,,,,,,,,space,0.037,right,1,5.833,0,0,0,0,1,,,,,,,,,,,,,,,,,,,,,,,,,,,,,,,,,,,,,,,,,,,,,,,,,,,,,,,,,,,
,,,,,,,,,R_1QuuhlsJpymk9Ar,2022-07-09_17h24.16.956,jpn_C02,2022.1.2,MacIntel,55.55555556,,,,,,,,,,,,,,,,,,,,,,,,,0,0,0,7,1,CartoonStims/artist_punch_cowboy_r.jpg,セル　シド　ムク,CartoonStims/artist_kick_cowboy_r.jpg,right,CartoonStims/artist_kick_cowboy_r.jpg,audio/serusidomuku.mp3,残念！ こちらが正しい画像です。,,,,,,,,,,,,,,,,,,,,,,,,,,,,,,,,,,,,,,,,,,,,,,,
,,,,,,,,,R_1QuuhlsJpymk9Ar,2022-07-09_17h24.16.956,jpn_C02,2022.1.2,MacIntel,55.55555556,,,,,,,,,,,,,,,,,right,1,3.233,0,0,0,0,1,,,,,,,,,,,,,,,,,,,,,,,,,,,,,,,,,,,,,,,,,,,,,,,,,,,,,,,,,,,
,,,,,,,,,R_1QuuhlsJpymk9Ar,2022-07-09_17h24.16.956,jpn_C02,2022.1.2,MacIntel,55.55555556,,,,,,,,,,,,,,,,,,,,,,,,,0,1,1,3,1,CartoonStims/cowboy_punch_doctor_r.jpg,プミ　ムク　ドキ,CartoonStims/cowboy_punch_boxer_r.jpg,right,CartoonStims/cowboy_punch_boxer_r.jpg,audio/pumimukudoki.mp3,残念！ こちらが正しい画像です。,,,,,,,,,,,,,,,,,,,,,,,,,,,,,,,,,,,,,,,,,,,,,,,
,,,,,,,,,R_1QuuhlsJpymk9Ar,2022-07-09_17h24.16.956,jpn_C02,2022.1.2,MacIntel,55.55555556,,,,,,,,,,,,,,,,,left,1,2.731,,,,,,,,,,,,,,,,,,0,0,0,0,1,,,,,,,,,,,,,,,,,,,,,,,,,,,,,,,,,,,,,,,,,,
,,,,,,,,,R_1QuuhlsJpymk9Ar,2022-07-09_17h24.16.956,jpn_C02,2022.1.2,MacIntel,55.55555556,,,,,,,,,,,,,,,,,,,,,,,,,0,2,2,8,1,CartoonStims/doctor_point_cowboy_r.jpg,トマ　ピポ　ムク,CartoonStims/boxer_point_cowboy_r.jpg,left,CartoonStims/doctor_point_cowboy_r.jpg,audio/tomapipomuku.mp3,残念！ こちらが正しい画像です。,,,,,,,,,,,,,,,,,,,,,,,,,,,,,,,,,,,,,,,,,,,,,,,
,,,,,,,,,R_1QuuhlsJpymk9Ar,2022-07-09_17h24.16.956,jpn_C02,2022.1.2,MacIntel,55.55555556,,,,,,,,,,,,,,,,,right,1,4.124,0,0,0,0,1,,,,,,,,,,,,,,,,,,,,,,,,,,,,,,,,,,,,,,,,,,,,,,,,,,,,,,,,,,,
,,,,,,,,,R_1QuuhlsJpymk9Ar,2022-07-09_17h24.16.956,jpn_C02,2022.1.2,MacIntel,55.55555556,,,,,,,,,,,,,,,,,,,,,,,,,0,3,3,11,1,CartoonStims/burglar_punch_cowboy_r.jpg,プミ　ホレト　ムク,CartoonStims/chef_punch_cowboy_r.jpg,right,CartoonStims/chef_punch_cowboy_r.jpg,audio/pumihoretomuku.mp3,残念！ こちらが正しい画像です。,,,,,,,,,,,,,,,,,,,,,,,,,,,,,,,,,,,,,,,,,,,,,,,
,,,,,,,,,R_1QuuhlsJpymk9Ar,2022-07-09_17h24.16.956,jpn_C02,2022.1.2,MacIntel,55.55555556,,,,,,,,,,,,,,,,,left,1,7.475,,,,,,,,,,,,,,,,,,0,0,0,0,1,,,,,,,,,,,,,,,,,,,,,,,,,,,,,,,,,,,,,,,,,,
,,,,,,,,,R_1QuuhlsJpymk9Ar,2022-07-09_17h24.16.956,jpn_C02,2022.1.2,MacIntel,55.55555556,,,,,,,,,,,,,,,,,,,,,,,,,0,4,4,0,1,CartoonStims/doctor_kick_burglar_r.jpg,セル　ピポ　ルピン,CartoonStims/doctor_kick_chef_r.jpg,left,CartoonStims/doctor_kick_burglar_r.jpg,audio/serupipolupin.mp3,残念！ こちらが正しい画像です。,,,,,,,,,,,,,,,,,,,,,,,,,,,,,,,,,,,,,,,,,,,,,,,
,,,,,,,,,R_1QuuhlsJpymk9Ar,2022-07-09_17h24.16.956,jpn_C02,2022.1.2,MacIntel,55.55555556,,,,,,,,,,,,,,,,,right,1,2.896,0,0,0,0,1,,,,,,,,,,,,,,,,,,,,,,,,,,,,,,,,,,,,,,,,,,,,,,,,,,,,,,,,,,,
,,,,,,,,,R_1QuuhlsJpymk9Ar,2022-07-09_17h24.16.956,jpn_C02,2022.1.2,MacIntel,55.55555556,,,,,,,,,,,,,,,,,,,,,,,,,0,5,5,9,1,CartoonStims/chef_kick_artist_r.jpg,セル　ムク　シド,CartoonStims/cowboy_kick_artist_r.jpg,right,CartoonStims/cowboy_kick_artist_r.jpg,audio/serumukusido.mp3,残念！ こちらが正しい画像です。,,,,,,,,,,,,,,,,,,,,,,,,,,,,,,,,,,,,,,,,,,,,,,,
,,,,,,,,,R_1QuuhlsJpymk9Ar,2022-07-09_17h24.16.956,jpn_C02,2022.1.2,MacIntel,55.55555556,,,,,,,,,,,,,,,,,left,1,4.392,,,,,,,,,,,,,,,,,,0,0,0,0,1,,,,,,,,,,,,,,,,,,,,,,,,,,,,,,,,,,,,,,,,,,
,,,,,,,,,R_1QuuhlsJpymk9Ar,2022-07-09_17h24.16.956,jpn_C02,2022.1.2,MacIntel,55.55555556,,,,,,,,,,,,,,,,,,,,,,,,,0,6,6,6,1,CartoonStims/doctor_punch_boxer_r.jpg,プミ　ピポ　ドキ,CartoonStims/doctor_shoot_boxer_r.jpg,left,CartoonStims/doctor_punch_boxer_r.jpg,audio/pumipipodoki.mp3,残念！ こちらが正しい画像です。,,,,,,,,,,,,,,,,,,,,,,,,,,,,,,,,,,,,,,,,,,,,,,,
,,,,,,,,,R_1QuuhlsJpymk9Ar,2022-07-09_17h24.16.956,jpn_C02,2022.1.2,MacIntel,55.55555556,,,,,,,,,,,,,,,,,right,1,2.826,0,0,0,0,1,,,,,,,,,,,,,,,,,,,,,,,,,,,,,,,,,,,,,,,,,,,,,,,,,,,,,,,,,,,
,,,,,,,,,R_1QuuhlsJpymk9Ar,2022-07-09_17h24.16.956,jpn_C02,2022.1.2,MacIntel,55.55555556,,,,,,,,,,,,,,,,,,,,,,,,,0,7,7,5,1,CartoonStims/cowboy_point_chef_r.jpg,パツ　ムク　ホレト,CartoonStims/cowboy_shoot_chef_r.jpg,right,CartoonStims/cowboy_shoot_chef_r.jpg,audio/patsumukuhoreto.mp3,残念！ こちらが正しい画像です。,,,,,,,,,,,,,,,,,,,,,,,,,,,,,,,,,,,,,,,,,,,,,,,
,,,,,,,,,R_1QuuhlsJpymk9Ar,2022-07-09_17h24.16.956,jpn_C02,2022.1.2,MacIntel,55.55555556,,,,,,,,,,,,,,,,,right,1,5.19,0,0,0,0,1,,,,,,,,,,,,,,,,,,,,,,,,,,,,,,,,,,,,,,,,,,,,,,,,,,,,,,,,,,,
,,,,,,,,,R_1QuuhlsJpymk9Ar,2022-07-09_17h24.16.956,jpn_C02,2022.1.2,MacIntel,55.55555556,,,,,,,,,,,,,,,,,,,,,,,,,0,8,8,1,1,CartoonStims/chef_point_burglar_r.jpg,トマ　ホレト　シド,CartoonStims/chef_point_artist_r.jpg,right,CartoonStims/chef_point_artist_r.jpg,audio/tomahoretosido.mp3,残念！ こちらが正しい画像です。,,,,,,,,,,,,,,,,,,,,,,,,,,,,,,,,,,,,,,,,,,,,,,,
,,,,,,,,,R_1QuuhlsJpymk9Ar,2022-07-09_17h24.16.956,jpn_C02,2022.1.2,MacIntel,55.55555556,,,,,,,,,,,,,,,,,left,1,2.872,,,,,,,,,,,,,,,,,,0,0,0,0,1,,,,,,,,,,,,,,,,,,,,,,,,,,,,,,,,,,,,,,,,,,
,,,,,,,,,R_1QuuhlsJpymk9Ar,2022-07-09_17h24.16.956,jpn_C02,2022.1.2,MacIntel,55.55555556,,,,,,,,,,,,,,,,,,,,,,,,,0,9,9,10,1,CartoonStims/artist_shoot_burglar_r.jpg,パツ　シド　ルピン,CartoonStims/chef_shoot_burglar_r.jpg,left,CartoonStims/artist_shoot_burglar_r.jpg,audio/patsusidolupin.mp3,残念！ こちらが正しい画像です。,,,,,,,,,,,,,,,,,,,,,,,,,,,,,,,,,,,,,,,,,,,,,,,
,,,,,,,,,R_1QuuhlsJpymk9Ar,2022-07-09_17h24.16.956,jpn_C02,2022.1.2,MacIntel,55.55555556,,,,,,,,,,,,,,,,,left,1,3.752,,,,,,,,,,,,,,,,,,0,0,0,0,1,,,,,,,,,,,,,,,,,,,,,,,,,,,,,,,,,,,,,,,,,,
,,,,,,,,,R_1QuuhlsJpymk9Ar,2022-07-09_17h24.16.956,jpn_C02,2022.1.2,MacIntel,55.55555556,,,,,,,,,,,,,,,,,,,,,,,,,0,10,10,4,1,CartoonStims/burglar_point_boxer_r.jpg,トマ　ルピン　ドキ,CartoonStims/burglar_kick_boxer_r.jpg,left,CartoonStims/burglar_point_boxer_r.jpg,audio/tomalupindoki.mp3,残念！ こちらが正しい画像です。,,,,,,,,,,,,,,,,,,,,,,,,,,,,,,,,,,,,,,,,,,,,,,,
,,,,,,,,,R_1QuuhlsJpymk9Ar,2022-07-09_17h24.16.956,jpn_C02,2022.1.2,MacIntel,55.55555556,,,,,,,,,,,,,,,,,left,1,2.945,,,,,,,,,,,,,,,,,,0,0,0,0,1,,,,,,,,,,,,,,,,,,,,,,,,,,,,,,,,,,,,,,,,,,
,,,,,,,,,R_1QuuhlsJpymk9Ar,2022-07-09_17h24.16.956,jpn_C02,2022.1.2,MacIntel,55.55555556,,,,,,,,,,,,,,,,,,,,,,,,,0,11,11,2,1,CartoonStims/boxer_shoot_doctor_r.jpg,パツ　ドキ　ピポ,CartoonStims/boxer_shoot_artist_r.jpg,left,CartoonStims/boxer_shoot_doctor_r.jpg,audio/patsudokipipo.mp3,残念！ こちらが正しい画像です。,,,,,,,,,,,,,,,,,,,,,,,,,,,,,,,,,,,,,,,,,,,,,,,
,,,,,,,,,R_1QuuhlsJpymk9Ar,2022-07-09_17h24.16.956,jpn_C02,2022.1.2,MacIntel,55.55555556,,,,,,,,,,,,,,,,,,,,,,,,,,,,,,,,,,,,,,,,,,space,8.32,パツ　ムク　ピポ,right,17.4,0,0,0,0,1,,,,,,,,,,,,,,,,,,,,,,,,,,,,,,,,
,,,,,,,,,R_1QuuhlsJpymk9Ar,2022-07-09_17h24.16.956,jpn_C02,2022.1.2,MacIntel,55.55555556,,,,,,,,,,,,,CartoonStims/cowboy_shoot_doctor_r.jpg,audio/patsumukupipo.mp3,,,,,,,,,,,,,,,,,,,,,,,,,,,,,,,,,,,,,,0,0,0,8,1,パツ　ムク　ピポ,,,,,,,,,,,,,,,,,,,,,,,,,,
,,,,,,,,,R_1QuuhlsJpymk9Ar,2022-07-09_17h24.16.956,jpn_C02,2022.1.2,MacIntel,55.55555556,,,,,,,,,,,,,,,,,,,,,,,,,,,,,,,,,,,,,,,,,,,,セル　ムク　ルピン,right,17.971,0,0,0,0,1,,,,,,,,,,,,,,,,,,,,,,,,,,,,,,,,
,,,,,,,,,R_1QuuhlsJpymk9Ar,2022-07-09_17h24.16.956,jpn_C02,2022.1.2,MacIntel,55.55555556,,,,,,,,,,,,,CartoonStims/cowboy_kick_burglar_r.jpg,audio/serumukulupin.mp3,,,,,,,,,,,,,,,,,,,,,,,,,,,,,,,,,,,,,,0,1,1,0,1,セル　ムク　ルピン,,,,,,,,,,,,,,,,,,,,,,,,,,
,,,,,,,,,R_1QuuhlsJpymk9Ar,2022-07-09_17h24.16.956,jpn_C02,2022.1.2,MacIntel,55.55555556,,,,,,,,,,,,,,,,,,,,,,,,,,,,,,,,,,,,,,,,,,,,トメ　ルピン　シド,right,26.176,0,0,0,0,1,,,,,,,,,,,,,,,,,,,,,,,,,,,,,,,,
,,,,,,,,,R_1QuuhlsJpymk9Ar,2022-07-09_17h24.16.956,jpn_C02,2022.1.2,MacIntel,55.55555556,,,,,,,,,,,,,CartoonStims/burglar_point_artist_r.jpg,audio/tomalupinsido.mp3,,,,,,,,,,,,,,,,,,,,,,,,,,,,,,,,,,,,,,0,2,2,4,1,トマ　ルピン　シド,,,,,,,,,,,,,,,,,,,,,,,,,,
,,,,,,,,,R_1QuuhlsJpymk9Ar,2022-07-09_17h24.16.956,jpn_C02,2022.1.2,MacIntel,55.55555556,,,,,,,,,,,,,,,,,,,,,,,,,,,,,,,,,,,,,,,,,,,,プニ　ドキ　シド,right,16.964,0,0,0,0,1,,,,,,,,,,,,,,,,,,,,,,,,,,,,,,,,
,,,,,,,,,R_1QuuhlsJpymk9Ar,2022-07-09_17h24.16.956,jpn_C02,2022.1.2,MacIntel,55.55555556,,,,,,,,,,,,,CartoonStims/boxer_punch_artist_r.jpg,audio/pumidokisido.mp3,,,,,,,,,,,,,,,,,,,,,,,,,,,,,,,,,,,,,,0,3,3,11,1,プミ　ドキ　シド,,,,,,,,,,,,,,,,,,,,,,,,,,
,,,,,,,,,R_1QuuhlsJpymk9Ar,2022-07-09_17h24.16.956,jpn_C02,2022.1.2,MacIntel,55.55555556,,,,,,,,,,,,,,,,,,,,,,,,,,,,,,,,,,,,,,,,,,,,プミ,right,5.454,0,0,0,0,1,,,,,,,,,,,,,,,,,,,,,,,,,,,,,,,,
,,,,,,,,,R_1QuuhlsJpymk9Ar,2022-07-09_17h24.16.956,jpn_C02,2022.1.2,MacIntel,55.55555556,,,,,,,,,,,,,CartoonStims/artist_punch_burglar_r.jpg,audio/pumisidolupin.mp3,,,,,,,,,,,,,,,,,,,,,,,,,,,,,,,,,,,,,,0,4,4,9,1,プミ　シド　ルピン,,,,,,,,,,,,,,,,,,,,,,,,,,
,,,,,,,,,R_1QuuhlsJpymk9Ar,2022-07-09_17h24.16.956,jpn_C02,2022.1.2,MacIntel,55.55555556,,,,,,,,,,,,,,,,,,,,,,,,,,,,,,,,,,,,,,,,,,,,トマ　ホレト　ルピン,right,29.901,0,0,0,0,1,,,,,,,,,,,,,,,,,,,,,,,,,,,,,,,,
,,,,,,,,,R_1QuuhlsJpymk9Ar,2022-07-09_17h24.16.956,jpn_C02,2022.1.2,MacIntel,55.55555556,,,,,,,,,,,,,CartoonStims/chef_point_burglar_r.jpg,audio/tomahoretolupin.mp3,,,,,,,,,,,,,,,,,,,,,,,,,,,,,,,,,,,,,,0,5,5,5,1,トマ　ホレト　ルピン,,,,,,,,,,,,,,,,,,,,,,,,,,
,,,,,,,,,R_1QuuhlsJpymk9Ar,2022-07-09_17h24.16.956,jpn_C02,2022.1.2,MacIntel,55.55555556,,,,,,,,,,,,,,,,,,,,,,,,,,,,,,,,,,,,,,,,,,,,トマ　シド　ドキ,right,6.375,0,0,0,0,1,,,,,,,,,,,,,,,,,,,,,,,,,,,,,,,,
,,,,,,,,,R_1QuuhlsJpymk9Ar,2022-07-09_17h24.16.956,jpn_C02,2022.1.2,MacIntel,55.55555556,,,,,,,,,,,,,CartoonStims/artist_point_boxer_r.jpg,audio/tomasidodoki.mp3,,,,,,,,,,,,,,,,,,,,,,,,,,,,,,,,,,,,,,0,6,6,3,1,トマ　シド　ドキ,,,,,,,,,,,,,,,,,,,,,,,,,,
,,,,,,,,,R_1QuuhlsJpymk9Ar,2022-07-09_17h24.16.956,jpn_C02,2022.1.2,MacIntel,55.55555556,,,,,,,,,,,,,,,,,,,,,,,,,,,,,,,,,,,,,,,,,,,,パツ　ルピン　ホレト,right,16.333,0,0,0,0,1,,,,,,,,,,,,,,,,,,,,,,,,,,,,,,,,
,,,,,,,,,R_1QuuhlsJpymk9Ar,2022-07-09_17h24.16.956,jpn_C02,2022.1.2,MacIntel,55.55555556,,,,,,,,,,,,,CartoonStims/burglar_shoot_chef_r.jpg,audio/patsulupinhoreto.mp3,,,,,,,,,,,,,,,,,,,,,,,,,,,,,,,,,,,,,,0,7,7,6,1,パツ　ルピン　ホレト,,,,,,,,,,,,,,,,,,,,,,,,,,
,,,,,,,,,R_1QuuhlsJpymk9Ar,2022-07-09_17h24.16.956,jpn_C02,2022.1.2,MacIntel,55.55555556,,,,,,,,,,,,,,,,,,,,,,,,,,,,,,,,,,,,,,,,,,,,セル　ドキ　ムク,right,5.834,0,0,0,0,1,,,,,,,,,,,,,,,,,,,,,,,,,,,,,,,,
,,,,,,,,,R_1QuuhlsJpymk9Ar,2022-07-09_17h24.16.956,jpn_C02,2022.1.2,MacIntel,55.55555556,,,,,,,,,,,,,CartoonStims/boxer_kick_cowboy_r.jpg,audio/serudokimuku.mp3,,,,,,,,,,,,,,,,,,,,,,,,,,,,,,,,,,,,,,0,8,8,2,1,セル　ドキ　ムク,,,,,,,,,,,,,,,,,,,,,,,,,,
,,,,,,,,,R_1QuuhlsJpymk9Ar,2022-07-09_17h24.16.956,jpn_C02,2022.1.2,MacIntel,55.55555556,,,,,,,,,,,,,,,,,,,,,,,,,,,,,,,,,,,,,,,,,,,,セル　ピポ　ホレト,right,6.567,0,0,0,0,1,,,,,,,,,,,,,,,,,,,,,,,,,,,,,,,,
,,,,,,,,,R_1QuuhlsJpymk9Ar,2022-07-09_17h24.16.956,jpn_C02,2022.1.2,MacIntel,55.55555556,,,,,,,,,,,,,CartoonStims/doctor_kick_chef_r.jpg,audio/serupipohoreto.mp3,,,,,,,,,,,,,,,,,,,,,,,,,,,,,,,,,,,,,,0,9,9,1,1,セル　ピポ　ホレト,,,,,,,,,,,,,,,,,,,,,,,,,,
,,,,,,,,,R_1QuuhlsJpymk9Ar,2022-07-09_17h24.16.956,jpn_C02,2022.1.2,MacIntel,55.55555556,,,,,,,,,,,,,,,,,,,,,,,,,,,,,,,,,,,,,,,,,,,,パツ　ホレト　ムク,right,9.052,0,0,0,0,1,,,,,,,,,,,,,,,,,,,,,,,,,,,,,,,,
,,,,,,,,,R_1QuuhlsJpymk9Ar,2022-07-09_17h24.16.956,jpn_C02,2022.1.2,MacIntel,55.55555556,,,,,,,,,,,,,CartoonStims/chef_shoot_cowboy_r.jpg,audio/patsuhoretomuku.mp3,,,,,,,,,,,,,,,,,,,,,,,,,,,,,,,,,,,,,,0,10,10,7,1,パツ　ホレト　ムク,,,,,,,,,,,,,,,,,,,,,,,,,,
,,,,,,,,,R_1QuuhlsJpymk9Ar,2022-07-09_17h24.16.956,jpn_C02,2022.1.2,MacIntel,55.55555556,,,,,,,,,,,,,,,,,,,,,,,,,,,,,,,,,,,,,,,,,,,,プニ　ピポ　ドキ,right,10.47,0,0,0,0,1,,,,,,,,,,,,,,,,,,,,,,,,,,,,,,,,
,,,,,,,,,R_1QuuhlsJpymk9Ar,2022-07-09_17h24.16.956,jpn_C02,2022.1.2,MacIntel,55.55555556,,,,,,,,,,,,,CartoonStims/doctor_punch_boxer_r.jpg,audio/pumipipodoki.mp3,,,,,,,,,,,,,,,,,,,,,,,,,,,,,,,,,,,,,,0,11,11,10,1,プミ　ピポ　ドキ,,,,,,,,,,,,,,,,,,,,,,,,,,
,,,,,,,,,R_1QuuhlsJpymk9Ar,2022-07-09_17h24.16.956,jpn_C02,2022.1.2,MacIntel,55.55555556,,,,,,,,,,,,,,,,,,,,,,,,,,,,,,,,,,,,,,,,,,,,,,,,,,,,,,,,,,,space,1.735,0,1,1,1,1,AffExposure.xlsx,"第二のトライアルの学習では、この言語で書かれた文を見ていただきます。引き続き注意して、 聞こえた音を復唱してください。


スペースキーを押してください。",1,AffFCT.xlsx,ここからクイズが始まります。 スクリーンに表示されるテキストに合う画像を選んでください。,AffTest.xlsx,1,次にここまで学んだことをアウトプットしていただきます。 表示される画像を描写していると思う単語を、テキストボックスにタイプしてください。 答えを提出したあとに正しい正解が少しの間画面に写ります。,1,"これで第二のトライアルが終了しました。 ここで休憩をとっていただいても構いません。

休憩が終わりましたら、 スペースキーを押して続きの学習を行いましょう。",,,,,,,,
,,,,,,,,,R_1QuuhlsJpymk9Ar,2022-07-09_17h24.16.956,jpn_C02,2022.1.2,MacIntel,55.55555556,space,1.792,space,5.398,0,0,0,14,1,ピク　トマ　ルピン　ムク,,,CartoonStims/burglar_point_cowboy_r_no.jpg,audio/pikutomalupinmuku.mp3,,,,,,,,,,,,,,,,,,,,,,,,,,,,,,,,,,,,,,,,,,,,,,,,,,,,,,,,,,,,,,,,,,,,,
,,,,,,,,,R_1QuuhlsJpymk9Ar,2022-07-09_17h24.16.956,jpn_C02,2022.1.2,MacIntel,55.55555556,,,space,1.904,0,1,1,31,1,ピク　パツ　ムク　ルピン,,,CartoonStims/cowboy_shoot_burglar_r_no.jpg,audio/pikupatsumukulupin.mp3,,,,,,,,,,,,,,,,,,,,,,,,,,,,,,,,,,,,,,,,,,,,,,,,,,,,,,,,,,,,,,,,,,,,,
,,,,,,,,,R_1QuuhlsJpymk9Ar,2022-07-09_17h24.16.956,jpn_C02,2022.1.2,MacIntel,55.55555556,,,space,1.674,0,2,2,17,1,ピク　トマ　ホレト　ドキ,,,CartoonStims/chef_point_boxer_r_no.jpg,audio/pikutomahoretodoki.mp3,,,,,,,,,,,,,,,,,,,,,,,,,,,,,,,,,,,,,,,,,,,,,,,,,,,,,,,,,,,,,,,,,,,,,
,,,,,,,,,R_1QuuhlsJpymk9Ar,2022-07-09_17h24.16.956,jpn_C02,2022.1.2,MacIntel,55.55555556,,,space,1.337,0,3,3,19,1,トマ　ピク　ムク　シド,,,CartoonStims/cowboy_point_artist_r_no.jpg,audio/tomapikumukusido.mp3,,,,,,,,,,,,,,,,,,,,,,,,,,,,,,,,,,,,,,,,,,,,,,,,,,,,,,,,,,,,,,,,,,,,,
,,,,,,,,,R_1QuuhlsJpymk9Ar,2022-07-09_17h24.16.956,jpn_C02,2022.1.2,MacIntel,55.55555556,,,space,5.802,0,4,4,9,1,ピク　セル　ピポ　シド,,,CartoonStims/doctor_kick_artist_r_no.jpg,audio/pikuserupiposido.mp3,,,,,,,,,,,,,,,,,,,,,,,,,,,,,,,,,,,,,,,,,,,,,,,,,,,,,,,,,,,,,,,,,,,,,
,,,,,,,,,R_1QuuhlsJpymk9Ar,2022-07-09_17h24.16.956,jpn_C02,2022.1.2,MacIntel,55.55555556,,,space,8.815,0,5,5,27,1,パツ　ピク　ルピン　ドキ,,,CartoonStims/burglar_shoot_boxer_r_no.jpg,audio/patsupikulupindoki.mp3,,,,,,,,,,,,,,,,,,,,,,,,,,,,,,,,,,,,,,,,,,,,,,,,,,,,,,,,,,,,,,,,,,,,,
,,,,,,,,,R_1QuuhlsJpymk9Ar,2022-07-09_17h24.16.956,jpn_C02,2022.1.2,MacIntel,55.55555556,,,space,3.991,0,6,6,29,1,パツ　ピク　ホレト　シド,,,CartoonStims/chef_shoot_artist_r_no.jpg,audio/patsupikuhoretosido.mp3,,,,,,,,,,,,,,,,,,,,,,,,,,,,,,,,,,,,,,,,,,,,,,,,,,,,,,,,,,,,,,,,,,,,,
,,,,,,,,,R_1QuuhlsJpymk9Ar,2022-07-09_17h24.16.956,jpn_C02,2022.1.2,MacIntel,55.55555556,,,space,9.027,0,7,7,33,1,ピク　パツ　ピポ　ホレト,,,CartoonStims/doctor_shoot_chef_r_no.jpg,audio/pikupatsupipohoreto.mp3,,,,,,,,,,,,,,,,,,,,,,,,,,,,,,,,,,,,,,,,,,,,,,,,,,,,,,,,,,,,,,,,,,,,,
,,,,,,,,,R_1QuuhlsJpymk9Ar,2022-07-09_17h24.16.956,jpn_C02,2022.1.2,MacIntel,55.55555556,,,space,11.623,0,8,8,23,1,トマ　ピク　ドキ　ホレト,,,CartoonStims/boxer_point_chef_r_no.jpg,audio/tomapikudokihoreto.mp3,,,,,,,,,,,,,,,,,,,,,,,,,,,,,,,,,,,,,,,,,,,,,,,,,,,,,,,,,,,,,,,,,,,,,
,,,,,,,,,R_1QuuhlsJpymk9Ar,2022-07-09_17h24.16.956,jpn_C02,2022.1.2,MacIntel,55.55555556,,,space,13.073,0,9,9,13,1,ピク　トマ　シド　ムク,,,CartoonStims/artist_point_cowboy_r_no.jpg,audio/pikutomasidomuku.mp3,,,,,,,,,,,,,,,,,,,,,,,,,,,,,,,,,,,,,,,,,,,,,,,,,,,,,,,,,,,,,,,,,,,,,
,,,,,,,,,R_1QuuhlsJpymk9Ar,2022-07-09_17h24.16.956,jpn_C02,2022.1.2,MacIntel,55.55555556,,,space,5.244,0,10,10,42,1,プミ　ピク　ムク　ルピン,,,CartoonStims/cowboy_punch_burglar_r_no.jpg,audio/pumipikumukulupin.mp3,,,,,,,,,,,,,,,,,,,,,,,,,,,,,,,,,,,,,,,,,,,,,,,,,,,,,,,,,,,,,,,,,,,,,
,,,,,,,,,R_1QuuhlsJpymk9Ar,2022-07-09_17h24.16.956,jpn_C02,2022.1.2,MacIntel,55.55555556,,,space,3.771,0,11,11,45,1,ピク　プミ　ピポ　ムク,,,CartoonStims/doctor_punch_cowboy_r_no.jpg,audio/pikupumipipomuku.mp3,,,,,,,,,,,,,,,,,,,,,,,,,,,,,,,,,,,,,,,,,,,,,,,,,,,,,,,,,,,,,,,,,,,,,
,,,,,,,,,R_1QuuhlsJpymk9Ar,2022-07-09_17h24.16.956,jpn_C02,2022.1.2,MacIntel,55.55555556,,,space,2.222,0,12,12,3,1,ピク　セル　ルピン　ムク,,,CartoonStims/burglar_kick_cowboy_r_no.jpg,audio/pikuserulupinmuku.mp3,,,,,,,,,,,,,,,,,,,,,,,,,,,,,,,,,,,,,,,,,,,,,,,,,,,,,,,,,,,,,,,,,,,,,
,,,,,,,,,R_1QuuhlsJpymk9Ar,2022-07-09_17h24.16.956,jpn_C02,2022.1.2,MacIntel,55.55555556,,,space,3.605,0,13,13,2,1,ピク　セル　ルピン　ホレト,,,CartoonStims/burglar_kick_chef_r_no.jpg,audio/pikuserulupinhoreto.mp3,,,,,,,,,,,,,,,,,,,,,,,,,,,,,,,,,,,,,,,,,,,,,,,,,,,,,,,,,,,,,,,,,,,,,
,,,,,,,,,R_1QuuhlsJpymk9Ar,2022-07-09_17h24.16.956,jpn_C02,2022.1.2,MacIntel,55.55555556,,,space,3.086,0,14,14,7,1,ピク　セル　ムク　ドキ,,,CartoonStims/cowboy_kick_boxer_r_no.jpg,audio/pikuserumukudoki.mp3,,,,,,,,,,,,,,,,,,,,,,,,,,,,,,,,,,,,,,,,,,,,,,,,,,,,,,,,,,,,,,,,,,,,,
,,,,,,,,,R_1QuuhlsJpymk9Ar,2022-07-09_17h24.16.956,jpn_C02,2022.1.2,MacIntel,55.55555556,,,space,2.406,0,15,15,1,1,ピク　セル　シド　ホレト,,,CartoonStims/artist_kick_chef_r_no.jpg,audio/pikuserusidohoreto.mp3,,,,,,,,,,,,,,,,,,,,,,,,,,,,,,,,,,,,,,,,,,,,,,,,,,,,,,,,,,,,,,,,,,,,,
,,,,,,,,,R_1QuuhlsJpymk9Ar,2022-07-09_17h24.16.956,jpn_C02,2022.1.2,MacIntel,55.55555556,,,space,2.658,0,16,16,22,1,ピク　トマ　ドキ　ルピン,,,CartoonStims/boxer_point_burglar_r_no.jpg,audio/pikutomadokilupin.mp3,,,,,,,,,,,,,,,,,,,,,,,,,,,,,,,,,,,,,,,,,,,,,,,,,,,,,,,,,,,,,,,,,,,,,
,,,,,,,,,R_1QuuhlsJpymk9Ar,2022-07-09_17h24.16.956,jpn_C02,2022.1.2,MacIntel,55.55555556,,,space,1.834,0,17,17,21,1,ピク　トマ　ピポ　ルピン,,,CartoonStims/doctor_point_burglar_r_no.jpg,audio/pikutomapipolupin.mp3,,,,,,,,,,,,,,,,,,,,,,,,,,,,,,,,,,,,,,,,,,,,,,,,,,,,,,,,,,,,,,,,,,,,,
,,,,,,,,,R_1QuuhlsJpymk9Ar,2022-07-09_17h24.16.956,jpn_C02,2022.1.2,MacIntel,55.55555556,,,space,3.579,0,18,18,0,1,セル　ピク　シド　ルピン,,,CartoonStims/artist_kick_burglar_r_no.jpg,audio/serupikusidolupin.mp3,,,,,,,,,,,,,,,,,,,,,,,,,,,,,,,,,,,,,,,,,,,,,,,,,,,,,,,,,,,,,,,,,,,,,
,,,,,,,,,R_1QuuhlsJpymk9Ar,2022-07-09_17h24.16.956,jpn_C02,2022.1.2,MacIntel,55.55555556,,,space,2.21,0,19,19,8,1,セル　ピク　ピポ　ドキ,,,CartoonStims/doctor_kick_boxer_r_no.jpg,audio/serupikupipodoki.mp3,,,,,,,,,,,,,,,,,,,,,,,,,,,,,,,,,,,,,,,,,,,,,,,,,,,,,,,,,,,,,,,,,,,,,
,,,,,,,,,R_1QuuhlsJpymk9Ar,2022-07-09_17h24.16.956,jpn_C02,2022.1.2,MacIntel,55.55555556,,,space,3.149,0,20,20,26,1,ピク　パツ　ルピン　ピポ,,,CartoonStims/burglar_shoot_doctor_r_no.jpg,audio/pikupatsulupinpipo.mp3,,,,,,,,,,,,,,,,,,,,,,,,,,,,,,,,,,,,,,,,,,,,,,,,,,,,,,,,,,,,,,,,,,,,,
,,,,,,,,,R_1QuuhlsJpymk9Ar,2022-07-09_17h24.16.956,jpn_C02,2022.1.2,MacIntel,55.55555556,,,space,2.084,0,21,21,35,1,ピク　パツ　ドキ　ムク,,,CartoonStims/boxer_shoot_cowboy_r_no.jpg,audio/pikupatsudokimuku.mp3,,,,,,,,,,,,,,,,,,,,,,,,,,,,,,,,,,,,,,,,,,,,,,,,,,,,,,,,,,,,,,,,,,,,,
,,,,,,,,,R_1QuuhlsJpymk9Ar,2022-07-09_17h24.16.956,jpn_C02,2022.1.2,MacIntel,55.55555556,,,space,2.463,0,22,22,36,1,ピク　プミ　シド　ピポ,,,CartoonStims/artist_punch_doctor_r_no.jpg,audio/pikupumisidopipo.mp3,,,,,,,,,,,,,,,,,,,,,,,,,,,,,,,,,,,,,,,,,,,,,,,,,,,,,,,,,,,,,,,,,,,,,
,,,,,,,,,R_1QuuhlsJpymk9Ar,2022-07-09_17h24.16.956,jpn_C02,2022.1.2,MacIntel,55.55555556,,,space,5.009,0,23,23,30,1,ピク　パツ　ムク　シド,,,CartoonStims/cowboy_shoot_artist_r_no.jpg,audio/pikupatsumukusido.mp3,,,,,,,,,,,,,,,,,,,,,,,,,,,,,,,,,,,,,,,,,,,,,,,,,,,,,,,,,,,,,,,,,,,,,
,,,,,,,,,R_1QuuhlsJpymk9Ar,2022-07-09_17h24.16.956,jpn_C02,2022.1.2,MacIntel,55.55555556,,,space,4.415,0,24,24,32,1,ピク　パツ　ピポ　ルピン,,,CartoonStims/doctor_shoot_burglar_r_no.jpg,audio/pikupatsupipolupin.mp3,,,,,,,,,,,,,,,,,,,,,,,,,,,,,,,,,,,,,,,,,,,,,,,,,,,,,,,,,,,,,,,,,,,,,
,,,,,,,,,R_1QuuhlsJpymk9Ar,2022-07-09_17h24.16.956,jpn_C02,2022.1.2,MacIntel,55.55555556,,,space,2.263,0,25,25,47,1,ピク　プミ　ドキ　ピポ,,,CartoonStims/boxer_punch_doctor_r_no.jpg,audio/pikupumidokipipo.mp3,,,,,,,,,,,,,,,,,,,,,,,,,,,,,,,,,,,,,,,,,,,,,,,,,,,,,,,,,,,,,,,,,,,,,
,,,,,,,,,R_1QuuhlsJpymk9Ar,2022-07-09_17h24.16.956,jpn_C02,2022.1.2,MacIntel,55.55555556,,,space,1.555,0,26,26,20,1,ピク　トマ　ピポ　シド,,,CartoonStims/doctor_point_artist_r_no.jpg,audio/pikutomapiposido.mp3,,,,,,,,,,,,,,,,,,,,,,,,,,,,,,,,,,,,,,,,,,,,,,,,,,,,,,,,,,,,,,,,,,,,,
,,,,,,,,,R_1QuuhlsJpymk9Ar,2022-07-09_17h24.16.956,jpn_C02,2022.1.2,MacIntel,55.55555556,,,space,7.396,0,27,27,46,1,プミ　ピク　ドキ　ムク,,,CartoonStims/boxer_punch_cowboy_r_no.jpg,audio/pumipikudokimuku.mp3,,,,,,,,,,,,,,,,,,,,,,,,,,,,,,,,,,,,,,,,,,,,,,,,,,,,,,,,,,,,,,,,,,,,,
,,,,,,,,,R_1QuuhlsJpymk9Ar,2022-07-09_17h24.16.956,jpn_C02,2022.1.2,MacIntel,55.55555556,,,space,6.777,0,28,28,38,1,ピク　プミ　ルピン　ドキ,,,CartoonStims/burglar_punch_boxer_r_no.jpg,audio/pikupumilupindoki.mp3,,,,,,,,,,,,,,,,,,,,,,,,,,,,,,,,,,,,,,,,,,,,,,,,,,,,,,,,,,,,,,,,,,,,,
,,,,,,,,,R_1QuuhlsJpymk9Ar,2022-07-09_17h24.16.956,jpn_C02,2022.1.2,MacIntel,55.55555556,,,space,5.493,0,29,29,6,1,ピク　セル　ムク　ピポ,,,CartoonStims/cowboy_kick_doctor_r_no.jpg,audio/pikuserumukupipo.mp3,,,,,,,,,,,,,,,,,,,,,,,,,,,,,,,,,,,,,,,,,,,,,,,,,,,,,,,,,,,,,,,,,,,,,
,,,,,,,,,R_1QuuhlsJpymk9Ar,2022-07-09_17h24.16.956,jpn_C02,2022.1.2,MacIntel,55.55555556,,,space,6.89,0,30,30,24,1,ピク　パツ　シド　ムク,,,CartoonStims/artist_shoot_cowboy_r_no.jpg,audio/pikupatsusidomuku.mp3,,,,,,,,,,,,,,,,,,,,,,,,,,,,,,,,,,,,,,,,,,,,,,,,,,,,,,,,,,,,,,,,,,,,,
,,,,,,,,,R_1QuuhlsJpymk9Ar,2022-07-09_17h24.16.956,jpn_C02,2022.1.2,MacIntel,55.55555556,,,space,3.4,0,31,31,18,1,ピク　トマ　ムク　ドキ,,,CartoonStims/cowboy_point_boxer_r_no.jpg,audio/pikutomamukudoki.mp3,,,,,,,,,,,,,,,,,,,,,,,,,,,,,,,,,,,,,,,,,,,,,,,,,,,,,,,,,,,,,,,,,,,,,
,,,,,,,,,R_1QuuhlsJpymk9Ar,2022-07-09_17h24.16.956,jpn_C02,2022.1.2,MacIntel,55.55555556,,,space,13.686,0,32,32,11,1,ピク　セル　ドキ　ルピン,,,CartoonStims/boxer_kick_burglar_r_no.jpg,audio/pikuserudokilupin.mp3,,,,,,,,,,,,,,,,,,,,,,,,,,,,,,,,,,,,,,,,,,,,,,,,,,,,,,,,,,,,,,,,,,,,,
,,,,,,,,,R_1QuuhlsJpymk9Ar,2022-07-09_17h24.16.956,jpn_C02,2022.1.2,MacIntel,55.55555556,,,space,3.311,0,33,33,4,1,セル　ピク　ホレト　ムク,,,CartoonStims/chef_kick_cowboy_r_no.jpg,audio/serupikuhoretomuku.mp3,,,,,,,,,,,,,,,,,,,,,,,,,,,,,,,,,,,,,,,,,,,,,,,,,,,,,,,,,,,,,,,,,,,,,
,,,,,,,,,R_1QuuhlsJpymk9Ar,2022-07-09_17h24.16.956,jpn_C02,2022.1.2,MacIntel,55.55555556,,,space,2.785,0,34,34,44,1,プミ　ピク　ピポ　ホレト,,,CartoonStims/doctor_punch_chef_r_no.jpg,audio/pumipikupipohoreto.mp3,,,,,,,,,,,,,,,,,,,,,,,,,,,,,,,,,,,,,,,,,,,,,,,,,,,,,,,,,,,,,,,,,,,,,
,,,,,,,,,R_1QuuhlsJpymk9Ar,2022-07-09_17h24.16.956,jpn_C02,2022.1.2,MacIntel,55.55555556,,,space,4.191,0,35,35,40,1,ピク　プミ　ホレト　シド,,,CartoonStims/chef_punch_artist_r_no.jpg,audio/pikupumihoretosido.mp3,,,,,,,,,,,,,,,,,,,,,,,,,,,,,,,,,,,,,,,,,,,,,,,,,,,,,,,,,,,,,,,,,,,,,
,,,,,,,,,R_1QuuhlsJpymk9Ar,2022-07-09_17h24.16.956,jpn_C02,2022.1.2,MacIntel,55.55555556,,,space,9.507,0,36,36,25,1,パツ　ピク　シド　ピポ,,,CartoonStims/artist_shoot_doctor_r_no.jpg,audio/patsupikusidopipo.mp3,,,,,,,,,,,,,,,,,,,,,,,,,,,,,,,,,,,,,,,,,,,,,,,,,,,,,,,,,,,,,,,,,,,,,
,,,,,,,,,R_1QuuhlsJpymk9Ar,2022-07-09_17h24.16.956,jpn_C02,2022.1.2,MacIntel,55.55555556,,,space,1.975,0,37,37,16,1,ピク　トマ　ホレト　ピポ,,,CartoonStims/chef_point_doctor_r_no.jpg,audio/pikutomahoretopipo.mp3,,,,,,,,,,,,,,,,,,,,,,,,,,,,,,,,,,,,,,,,,,,,,,,,,,,,,,,,,,,,,,,,,,,,,
,,,,,,,,,R_1QuuhlsJpymk9Ar,2022-07-09_17h24.16.956,jpn_C02,2022.1.2,MacIntel,55.55555556,,,space,4.816,0,38,38,39,1,ピク　プミ　ルピン　シド,,,CartoonStims/burglar_punch_artist_r_no.jpg,audio/pikupumilupinsido.mp3,,,,,,,,,,,,,,,,,,,,,,,,,,,,,,,,,,,,,,,,,,,,,,,,,,,,,,,,,,,,,,,,,,,,,
,,,,,,,,,R_1QuuhlsJpymk9Ar,2022-07-09_17h24.16.956,jpn_C02,2022.1.2,MacIntel,55.55555556,,,space,1.476,0,39,39,12,1,ピク　トマ　シド　ホレト,,,CartoonStims/artist_point_chef_r_no.jpg,audio/pikutomasidohoreto.mp3,,,,,,,,,,,,,,,,,,,,,,,,,,,,,,,,,,,,,,,,,,,,,,,,,,,,,,,,,,,,,,,,,,,,,
,,,,,,,,,R_1QuuhlsJpymk9Ar,2022-07-09_17h24.16.956,jpn_C02,2022.1.2,MacIntel,55.55555556,,,space,1.946,0,40,40,10,1,ピク　セル　ドキ　シド,,,CartoonStims/boxer_kick_artist_r_no.jpg,audio/pikuserudokisido.mp3,,,,,,,,,,,,,,,,,,,,,,,,,,,,,,,,,,,,,,,,,,,,,,,,,,,,,,,,,,,,,,,,,,,,,
,,,,,,,,,R_1QuuhlsJpymk9Ar,2022-07-09_17h24.16.956,jpn_C02,2022.1.2,MacIntel,55.55555556,,,space,2.389,0,41,41,28,1,ピク　パツ　ホレト　ドキ,,,CartoonStims/chef_shoot_boxer_r_no.jpg,audio/pikupatsuhoretodoki.mp3,,,,,,,,,,,,,,,,,,,,,,,,,,,,,,,,,,,,,,,,,,,,,,,,,,,,,,,,,,,,,,,,,,,,,
,,,,,,,,,R_1QuuhlsJpymk9Ar,2022-07-09_17h24.16.956,jpn_C02,2022.1.2,MacIntel,55.55555556,,,space,1.234,0,42,42,43,1,ピク　プミ　ムク　ホレト,,,CartoonStims/cowboy_punch_chef_r_no.jpg,audio/pikupumimukuhoreto.mp3,,,,,,,,,,,,,,,,,,,,,,,,,,,,,,,,,,,,,,,,,,,,,,,,,,,,,,,,,,,,,,,,,,,,,
,,,,,,,,,R_1QuuhlsJpymk9Ar,2022-07-09_17h24.16.956,jpn_C02,2022.1.2,MacIntel,55.55555556,,,space,1.524,0,43,43,41,1,ピク　プミ　ホレト　ルピン,,,CartoonStims/chef_punch_burglar_r_no.jpg,audio/pikupumihoretolupin.mp3,,,,,,,,,,,,,,,,,,,,,,,,,,,,,,,,,,,,,,,,,,,,,,,,,,,,,,,,,,,,,,,,,,,,,
,,,,,,,,,R_1QuuhlsJpymk9Ar,2022-07-09_17h24.16.956,jpn_C02,2022.1.2,MacIntel,55.55555556,,,space,2.136,0,44,44,34,1,ピク　パツ　ドキ　ホレト,,,CartoonStims/boxer_shoot_chef_r_no.jpg,audio/pikupatsudokihoreto.mp3,,,,,,,,,,,,,,,,,,,,,,,,,,,,,,,,,,,,,,,,,,,,,,,,,,,,,,,,,,,,,,,,,,,,,
,,,,,,,,,R_1QuuhlsJpymk9Ar,2022-07-09_17h24.16.956,jpn_C02,2022.1.2,MacIntel,55.55555556,,,space,5.751,0,45,45,15,1,トマ　ピク　ルピン　ピポ,,,CartoonStims/burglar_point_doctor_r_no.jpg,audio/tomapikulupinpipo.mp3,,,,,,,,,,,,,,,,,,,,,,,,,,,,,,,,,,,,,,,,,,,,,,,,,,,,,,,,,,,,,,,,,,,,,
,,,,,,,,,R_1QuuhlsJpymk9Ar,2022-07-09_17h24.16.956,jpn_C02,2022.1.2,MacIntel,55.55555556,,,space,2.646,0,46,46,5,1,ピク　セル　ホレト　ピポ,,,CartoonStims/chef_kick_doctor_r_no.jpg,audio/pikuseruhoretopipo.mp3,,,,,,,,,,,,,,,,,,,,,,,,,,,,,,,,,,,,,,,,,,,,,,,,,,,,,,,,,,,,,,,,,,,,,
,,,,,,,,,R_1QuuhlsJpymk9Ar,2022-07-09_17h24.16.956,jpn_C02,2022.1.2,MacIntel,55.55555556,,,space,3.844,0,47,47,37,1,ピク　プミ　シド　ドキ,,,CartoonStims/artist_punch_boxer_r_no.jpg,audio/pikupumisidodoki.mp3,,,,,,,,,,,,,,,,,,,,,,,,,,,,,,,,,,,,,,,,,,,,,,,,,,,,,,,,,,,,,,,,,,,,,
,,,,,,,,,R_1QuuhlsJpymk9Ar,2022-07-09_17h24.16.956,jpn_C02,2022.1.2,MacIntel,55.55555556,,,,,,,,,,,,,,,space,0.175,left,0,17.401,,,,,,,,,,,,,,,,,,,,,,,,,,,,,,,,,,,,,,,,,,,,,,,,,,,,,,,,,0,0,0,0,1,,,
,,,,,,,,,R_1QuuhlsJpymk9Ar,2022-07-09_17h24.16.956,jpn_C02,2022.1.2,MacIntel,55.55555556,,,,,,,,,,,,,,,,,,,,,,,,,0,0,0,11,1,CartoonStims/chef_shoot_burglar_r.jpg,ピク　パツ　ホレト　ルピン,CartoonStims/chef_kick_burglar_r.jpg,right,CartoonStims/chef_kick_burglar_r.jpg,audio/pikupatsuhoretolupin.mp3,"残念！ こちらが正しい画像です。

否定文は起きていないことを示しているのを思い出してください。",,,,,,,,,,,,,,,,,,,,,,,,,,,,,,,,,,,,,,,,,,,,,,,
,,,,,,,,,R_1QuuhlsJpymk9Ar,2022-07-09_17h24.16.956,jpn_C02,2022.1.2,MacIntel,55.55555556,,,,,,,,,,,,,,,,,left,1,8.997,,,,,,,,,,,,,,,,,,0,0,0,0,1,,,,,,,,,,,,,,,,,,,,,,,,,,,,,,,,,,,,,,,,,,
,,,,,,,,,R_1QuuhlsJpymk9Ar,2022-07-09_17h24.16.956,jpn_C02,2022.1.2,MacIntel,55.55555556,,,,,,,,,,,,,,,,,,,,,,,,,0,1,1,0,1,CartoonStims/artist_shoot_burglar_r.jpg,プミ　ピク　シド　ルピン,CartoonStims/artist_punch_burglar_r.jpg,left,CartoonStims/artist_shoot_burglar_r.jpg,audio/pumipikusidolupin.mp3,"残念！ こちらが正しい画像です。

否定文は起きていないことを示しているのを思い出してください。",,,,,,,,,,,,,,,,,,,,,,,,,,,,,,,,,,,,,,,,,,,,,,,
,,,,,,,,,R_1QuuhlsJpymk9Ar,2022-07-09_17h24.16.956,jpn_C02,2022.1.2,MacIntel,55.55555556,,,,,,,,,,,,,,,,,right,1,3.052,0,0,0,0,1,,,,,,,,,,,,,,,,,,,,,,,,,,,,,,,,,,,,,,,,,,,,,,,,,,,,,,,,,,,
,,,,,,,,,R_1QuuhlsJpymk9Ar,2022-07-09_17h24.16.956,jpn_C02,2022.1.2,MacIntel,55.55555556,,,,,,,,,,,,,,,,,,,,,,,,,0,2,2,5,1,CartoonStims/boxer_kick_cowboy_r.jpg,ピク　セル　ドキ　ムク,CartoonStims/boxer_punch_cowboy_r.jpg,right,CartoonStims/boxer_punch_cowboy_r.jpg,audio/pikuserudokimuku.mp3,"残念！ こちらが正しい画像です。

否定文は起きていないことを示しているのを思い出してください。",,,,,,,,,,,,,,,,,,,,,,,,,,,,,,,,,,,,,,,,,,,,,,,
,,,,,,,,,R_1QuuhlsJpymk9Ar,2022-07-09_17h24.16.956,jpn_C02,2022.1.2,MacIntel,55.55555556,,,,,,,,,,,,,,,,,left,1,5.706,,,,,,,,,,,,,,,,,,0,0,0,0,1,,,,,,,,,,,,,,,,,,,,,,,,,,,,,,,,,,,,,,,,,,
,,,,,,,,,R_1QuuhlsJpymk9Ar,2022-07-09_17h24.16.956,jpn_C02,2022.1.2,MacIntel,55.55555556,,,,,,,,,,,,,,,,,,,,,,,,,0,3,3,8,1,CartoonStims/burglar_punch_artist_r.jpg,ピク　トマ　ルピン　シド,CartoonStims/burglar_point_artist_r.jpg,left,CartoonStims/burglar_punch_artist_r.jpg,audio/pikutomalupinsido.mp3,"残念！ こちらが正しい画像です。

否定文は起きていないことを示しているのを思い出してください。",,,,,,,,,,,,,,,,,,,,,,,,,,,,,,,,,,,,,,,,,,,,,,,
,,,,,,,,,R_1QuuhlsJpymk9Ar,2022-07-09_17h24.16.956,jpn_C02,2022.1.2,MacIntel,55.55555556,,,,,,,,,,,,,,,,,right,1,2.415,0,0,0,0,1,,,,,,,,,,,,,,,,,,,,,,,,,,,,,,,,,,,,,,,,,,,,,,,,,,,,,,,,,,,
,,,,,,,,,R_1QuuhlsJpymk9Ar,2022-07-09_17h24.16.956,jpn_C02,2022.1.2,MacIntel,55.55555556,,,,,,,,,,,,,,,,,,,,,,,,,0,4,4,3,1,CartoonStims/chef_kick_artist_r.jpg,セル　ピク　ホレト　シド,CartoonStims/chef_point_artist_r.jpg,right,CartoonStims/chef_point_artist_r.jpg,audio/serupikuhoretosido.mp3,"残念！ こちらが正しい画像です。

否定文は起きていないことを示しているのを思い出してください。",,,,,,,,,,,,,,,,,,,,,,,,,,,,,,,,,,,,,,,,,,,,,,,
,,,,,,,,,R_1QuuhlsJpymk9Ar,2022-07-09_17h24.16.956,jpn_C02,2022.1.2,MacIntel,55.55555556,,,,,,,,,,,,,,,,,left,1,2.292,,,,,,,,,,,,,,,,,,0,0,0,0,1,,,,,,,,,,,,,,,,,,,,,,,,,,,,,,,,,,,,,,,,,,
,,,,,,,,,R_1QuuhlsJpymk9Ar,2022-07-09_17h24.16.956,jpn_C02,2022.1.2,MacIntel,55.55555556,,,,,,,,,,,,,,,,,,,,,,,,,0,5,5,2,1,CartoonStims/doctor_point_boxer_r.jpg,ピク　プミ　ピポ　ドキ,CartoonStims/doctor_punch_boxer_r.jpg,left,CartoonStims/doctor_point_boxer_r.jpg,audio/pikupumipipodoki.mp3,"残念！ こちらが正しい画像です。

否定文は起きていないことを示しているのを思い出してください。",,,,,,,,,,,,,,,,,,,,,,,,,,,,,,,,,,,,,,,,,,,,,,,
,,,,,,,,,R_1QuuhlsJpymk9Ar,2022-07-09_17h24.16.956,jpn_C02,2022.1.2,MacIntel,55.55555556,,,,,,,,,,,,,,,,,left,1,3.367,,,,,,,,,,,,,,,,,,0,0,0,0,1,,,,,,,,,,,,,,,,,,,,,,,,,,,,,,,,,,,,,,,,,,
,,,,,,,,,R_1QuuhlsJpymk9Ar,2022-07-09_17h24.16.956,jpn_C02,2022.1.2,MacIntel,55.55555556,,,,,,,,,,,,,,,,,,,,,,,,,0,6,6,6,1,CartoonStims/artist_shoot_boxer_r.jpg,ピク　トマ　シド　ドキ,CartoonStims/artist_point_boxer_r.jpg,left,CartoonStims/artist_shoot_boxer_r.jpg,audio/pikutomasidodoki.mp3,"残念！ こちらが正しい画像です。

否定文は起きていないことを示しているのを思い出してください。",,,,,,,,,,,,,,,,,,,,,,,,,,,,,,,,,,,,,,,,,,,,,,,
,,,,,,,,,R_1QuuhlsJpymk9Ar,2022-07-09_17h24.16.956,jpn_C02,2022.1.2,MacIntel,55.55555556,,,,,,,,,,,,,,,,,right,1,6.199,0,0,0,0,1,,,,,,,,,,,,,,,,,,,,,,,,,,,,,,,,,,,,,,,,,,,,,,,,,,,,,,,,,,,
,,,,,,,,,R_1QuuhlsJpymk9Ar,2022-07-09_17h24.16.956,jpn_C02,2022.1.2,MacIntel,55.55555556,,,,,,,,,,,,,,,,,,,,,,,,,0,7,7,1,1,CartoonStims/chef_punch_cowboy_r.jpg,ピク　プミ　ホレト　ムク,CartoonStims/chef_kick_cowboy_r.jpg,right,CartoonStims/chef_kick_cowboy_r.jpg,audio/pikupumihoretomuku.mp3,"残念！ こちらが正しい画像です。

否定文は起きていないことを示しているのを思い出してください。",,,,,,,,,,,,,,,,,,,,,,,,,,,,,,,,,,,,,,,,,,,,,,,
,,,,,,,,,R_1QuuhlsJpymk9Ar,2022-07-09_17h24.16.956,jpn_C02,2022.1.2,MacIntel,55.55555556,,,,,,,,,,,,,,,,,left,1,18.226,,,,,,,,,,,,,,,,,,0,0,0,0,1,,,,,,,,,,,,,,,,,,,,,,,,,,,,,,,,,,,,,,,,,,
,,,,,,,,,R_1QuuhlsJpymk9Ar,2022-07-09_17h24.16.956,jpn_C02,2022.1.2,MacIntel,55.55555556,,,,,,,,,,,,,,,,,,,,,,,,,0,8,8,10,1,CartoonStims/doctor_punch_cowboy_r.jpg,パツ　ピク　ピポ　ムク,CartoonStims/doctor_shoot_cowboy_r.jpg,left,CartoonStims/doctor_punch_cowboy_r.jpg,audio/patsupikupipomuku.mp3,"残念！ こちらが正しい画像です。

否定文は起きていないことを示しているのを思い出してください。",,,,,,,,,,,,,,,,,,,,,,,,,,,,,,,,,,,,,,,,,,,,,,,
,,,,,,,,,R_1QuuhlsJpymk9Ar,2022-07-09_17h24.16.956,jpn_C02,2022.1.2,MacIntel,55.55555556,,,,,,,,,,,,,,,,,left,1,2.106,,,,,,,,,,,,,,,,,,0,0,0,0,1,,,,,,,,,,,,,,,,,,,,,,,,,,,,,,,,,,,,,,,,,,
,,,,,,,,,R_1QuuhlsJpymk9Ar,2022-07-09_17h24.16.956,jpn_C02,2022.1.2,MacIntel,55.55555556,,,,,,,,,,,,,,,,,,,,,,,,,0,9,9,4,1,CartoonStims/burglar_shoot_doctor_r.jpg,ピク　セル　ルピン　ピポ,CartoonStims/burglar_kick_doctor_r.jpg,left,CartoonStims/burglar_shoot_doctor_r.jpg,audio/pikuserulupinpipo.mp3,"残念！ こちらが正しい画像です。

否定文は起きていないことを示しているのを思い出してください。",,,,,,,,,,,,,,,,,,,,,,,,,,,,,,,,,,,,,,,,,,,,,,,
,,,,,,,,,R_1QuuhlsJpymk9Ar,2022-07-09_17h24.16.956,jpn_C02,2022.1.2,MacIntel,55.55555556,,,,,,,,,,,,,,,,,right,1,6.902,0,0,0,0,1,,,,,,,,,,,,,,,,,,,,,,,,,,,,,,,,,,,,,,,,,,,,,,,,,,,,,,,,,,,
,,,,,,,,,R_1QuuhlsJpymk9Ar,2022-07-09_17h24.16.956,jpn_C02,2022.1.2,MacIntel,55.55555556,,,,,,,,,,,,,,,,,,,,,,,,,0,10,10,7,1,CartoonStims/cowboy_point_chef_r.jpg,トマ　ピク　ムク　ホレト,CartoonStims/cowboy_kick_chef_r.jpg,right,CartoonStims/cowboy_kick_chef_r.jpg,audio/tomapikumukuhoreto.mp3,"残念！ こちらが正しい画像です。

否定文は起きていないことを示しているのを思い出してください。",,,,,,,,,,,,,,,,,,,,,,,,,,,,,,,,,,,,,,,,,,,,,,,
,,,,,,,,,R_1QuuhlsJpymk9Ar,2022-07-09_17h24.16.956,jpn_C02,2022.1.2,MacIntel,55.55555556,,,,,,,,,,,,,,,,,right,1,3.476,0,0,0,0,1,,,,,,,,,,,,,,,,,,,,,,,,,,,,,,,,,,,,,,,,,,,,,,,,,,,,,,,,,,,
,,,,,,,,,R_1QuuhlsJpymk9Ar,2022-07-09_17h24.16.956,jpn_C02,2022.1.2,MacIntel,55.55555556,,,,,,,,,,,,,,,,,,,,,,,,,0,11,11,9,1,CartoonStims/boxer_shoot_doctor_r.jpg,ピク　パツ　ドキ　ピポ,CartoonStims/boxer_point_doctor_r.jpg,right,CartoonStims/boxer_point_doctor_r.jpg,audio/pikupatsudokipipo.mp3,"残念！ こちらが正しい画像です。

否定文は起きていないことを示しているのを思い出してください。",,,,,,,,,,,,,,,,,,,,,,,,,,,,,,,,,,,,,,,,,,,,,,,
,,,,,,,,,R_1QuuhlsJpymk9Ar,2022-07-09_17h24.16.956,jpn_C02,2022.1.2,MacIntel,55.55555556,,,,,,,,,,,,,CartoonStims/boxer_shoot_burglar_r_no.jpg,,,,,,,,,,,,,,,,,,,,,,,,,,,,,space,2.595,ピク　パツ　ドキ　ルピン,right,15.332,,,,,,0,0,0,17,1,,,,,,,,,,,,,,,,,,,,,,,,,ピク　パツ　ドキ　ルピン,パツ　ピク　ドキ　ルピン,1
,,,,,,,,,R_1QuuhlsJpymk9Ar,2022-07-09_17h24.16.956,jpn_C02,2022.1.2,MacIntel,55.55555556,,,,,,,,,,,,,CartoonStims/burglar_point_artist_r.jpg,,,,,,,,,,,,,,,,,,,,,,,,,,,,,,,トマ　ルピン　シド,right,21.867,,,,,,0,1,1,28,1,,,,,,,,,,,,,,,,,,,,,,,,,トマ　ルピン　シド,トマ　ルピン　シド,0
,,,,,,,,,R_1QuuhlsJpymk9Ar,2022-07-09_17h24.16.956,jpn_C02,2022.1.2,MacIntel,55.55555556,,,,,,,,,,,,,CartoonStims/burglar_kick_artist_r_no.jpg,,,,,,,,,,,,,,,,,,,,,,,,,,,,,,,ピク　セル　ルピン　シド,right,11.122,,,,,,0,2,2,1,1,,,,,,,,,,,,,,,,,,,,,,,,,ピク　セル　ルピン　シド,セル　ピク　ルピン　シド,1
,,,,,,,,,R_1QuuhlsJpymk9Ar,2022-07-09_17h24.16.956,jpn_C02,2022.1.2,MacIntel,55.55555556,,,,,,,,,,,,,CartoonStims/chef_kick_burglar_r_no.jpg,,,,,,,,,,,,,,,,,,,,,,,,,,,,,,,ピク　セル　ホレト　ルピン,right,11.073,,,,,,0,3,3,2,1,,,,,,,,,,,,,,,,,,,,,,,,,ピク　セル　ホレト　ルピン,セル　ピク　ホレト　ルピン,1
,,,,,,,,,R_1QuuhlsJpymk9Ar,2022-07-09_17h24.16.956,jpn_C02,2022.1.2,MacIntel,55.55555556,,,,,,,,,,,,,CartoonStims/cowboy_shoot_boxer_r_no.jpg,,,,,,,,,,,,,,,,,,,,,,,,,,,,,,,ピク　パツ　ムク　ドキ,right,17.11,,,,,,0,4,4,15,1,,,,,,,,,,,,,,,,,,,,,,,,,ピク　パツ　ムク　ドキ,パツ　ピク　ムク　ドキ,1
,,,,,,,,,R_1QuuhlsJpymk9Ar,2022-07-09_17h24.16.956,jpn_C02,2022.1.2,MacIntel,55.55555556,,,,,,,,,,,,,CartoonStims/doctor_punch_boxer_r.jpg,,,,,,,,,,,,,,,,,,,,,,,,,,,,,,,ピク　プミ　ピポ　ドキ,right,15.76,,,,,,0,5,5,34,1,,,,,,,,,,,,,,,,,,,,,,,,,プミ　ピポ　ドキ,プミ　ピポ　ドキ,0
,,,,,,,,,R_1QuuhlsJpymk9Ar,2022-07-09_17h24.16.956,jpn_C02,2022.1.2,MacIntel,55.55555556,,,,,,,,,,,,,CartoonStims/cowboy_shoot_doctor_r.jpg,,,,,,,,,,,,,,,,,,,,,,,,,,,,,,,パツ　ムク　ピポ,right,10.153,,,,,,0,6,6,32,1,,,,,,,,,,,,,,,,,,,,,,,,,パツ　ムク　ピポ,パツ　ムク　ピポ,0
,,,,,,,,,R_1QuuhlsJpymk9Ar,2022-07-09_17h24.16.956,jpn_C02,2022.1.2,MacIntel,55.55555556,,,,,,,,,,,,,CartoonStims/boxer_punch_chef_r_no.jpg,,,,,,,,,,,,,,,,,,,,,,,,,,,,,,,ピク,right,4.288,,,,,,0,7,7,23,1,,,,,,,,,,,,,,,,,,,,,,,,,ピク　プミ　ドキ　ホレト,プミ　ピク　ドキ　ホレト,1
,,,,,,,,,R_1QuuhlsJpymk9Ar,2022-07-09_17h24.16.956,jpn_C02,2022.1.2,MacIntel,55.55555556,,,,,,,,,,,,,CartoonStims/artist_shoot_chef_r_no.jpg,,,,,,,,,,,,,,,,,,,,,,,,,,,,,,,ピク　パツ　シド　ホレト,right,14.596,,,,,,0,8,8,12,1,,,,,,,,,,,,,,,,,,,,,,,,,ピク　パツ　シド　ホレト,パツ　ピク　シド　ホレト,1
,,,,,,,,,R_1QuuhlsJpymk9Ar,2022-07-09_17h24.16.956,jpn_C02,2022.1.2,MacIntel,55.55555556,,,,,,,,,,,,,CartoonStims/burglar_punch_doctor_r_no.jpg,,,,,,,,,,,,,,,,,,,,,,,,,,,,,,,ピク　プミ　ルピン　ピポ,right,12.875,,,,,,0,9,9,19,1,,,,,,,,,,,,,,,,,,,,,,,,,ピク　プミ　ルピン　ピポ,プミ　ピク　ルピン　ピポ,1
,,,,,,,,,R_1QuuhlsJpymk9Ar,2022-07-09_17h24.16.956,jpn_C02,2022.1.2,MacIntel,55.55555556,,,,,,,,,,,,,CartoonStims/doctor_shoot_artist_r_no.jpg,,,,,,,,,,,,,,,,,,,,,,,,,,,,,,,ピク　パツ　ピポ　シド,right,19.054,,,,,,0,10,10,16,1,,,,,,,,,,,,,,,,,,,,,,,,,ピク　パツ　ピポ　シド,パツ　ピク　ピポ　シド,1
,,,,,,,,,R_1QuuhlsJpymk9Ar,2022-07-09_17h24.16.956,jpn_C02,2022.1.2,MacIntel,55.55555556,,,,,,,,,,,,,CartoonStims/chef_shoot_doctor_r_no.jpg,,,,,,,,,,,,,,,,,,,,,,,,,,,,,,,ピク　パツ　ホレト　ピポ,right,11.125,,,,,,0,11,11,14,1,,,,,,,,,,,,,,,,,,,,,,,,,ピク　パツ　ホレト　ピポ,パツ　ピク　ホレト　ピポ,1
,,,,,,,,,R_1QuuhlsJpymk9Ar,2022-07-09_17h24.16.956,jpn_C02,2022.1.2,MacIntel,55.55555556,,,,,,,,,,,,,CartoonStims/boxer_kick_cowboy_r.jpg,,,,,,,,,,,,,,,,,,,,,,,,,,,,,,,セル　ドキ　ムク,right,9.55,,,,,,0,12,12,26,1,,,,,,,,,,,,,,,,,,,,,,,,,セル　ドキ　ムク,セル　ドキ　ムク,0
,,,,,,,,,R_1QuuhlsJpymk9Ar,2022-07-09_17h24.16.956,jpn_C02,2022.1.2,MacIntel,55.55555556,,,,,,,,,,,,,CartoonStims/cowboy_punch_artist_r_no.jpg,,,,,,,,,,,,,,,,,,,,,,,,,,,,,,,ピク　プミ　ムク　シド,right,13.217,,,,,,0,13,13,21,1,,,,,,,,,,,,,,,,,,,,,,,,,ピク　プミ　ムク　シド,プミ　ピク　ムク　シド,1
,,,,,,,,,R_1QuuhlsJpymk9Ar,2022-07-09_17h24.16.956,jpn_C02,2022.1.2,MacIntel,55.55555556,,,,,,,,,,,,,CartoonStims/chef_point_burglar_r.jpg,,,,,,,,,,,,,,,,,,,,,,,,,,,,,,,トマ　ホレト　ルピン,right,19.921,,,,,,0,14,14,29,1,,,,,,,,,,,,,,,,,,,,,,,,,トマ　ホレト　ルピン,トマ　ホレト　ルピン,0
,,,,,,,,,R_1QuuhlsJpymk9Ar,2022-07-09_17h24.16.956,jpn_C02,2022.1.2,MacIntel,55.55555556,,,,,,,,,,,,,CartoonStims/artist_punch_cowboy_r_no.jpg,,,,,,,,,,,,,,,,,,,,,,,,,,,,,,,ピク　プミ　シド　ムク,right,7.613,,,,,,0,15,15,18,1,,,,,,,,,,,,,,,,,,,,,,,,,ピク　プミ　シド　ムク,プミ　ピク　シド　ムク,1
,,,,,,,,,R_1QuuhlsJpymk9Ar,2022-07-09_17h24.16.956,jpn_C02,2022.1.2,MacIntel,55.55555556,,,,,,,,,,,,,CartoonStims/burglar_point_chef_r_no.jpg,,,,,,,,,,,,,,,,,,,,,,,,,,,,,,,ピク　トマ　ルピン　ホレト,right,10.906,,,,,,0,16,16,7,1,,,,,,,,,,,,,,,,,,,,,,,,,ピク　トマ　ルピン　ホレト,トマ　ピク　ルピン　ホレト,1
,,,,,,,,,R_1QuuhlsJpymk9Ar,2022-07-09_17h24.16.956,jpn_C02,2022.1.2,MacIntel,55.55555556,,,,,,,,,,,,,CartoonStims/cowboy_kick_burglar_r.jpg,,,,,,,,,,,,,,,,,,,,,,,,,,,,,,,セル　ムク　ルピン,right,9.412,,,,,,0,17,17,24,1,,,,,,,,,,,,,,,,,,,,,,,,,セル　ムク　ルピン,セル　ムク　ルピン,0
,,,,,,,,,R_1QuuhlsJpymk9Ar,2022-07-09_17h24.16.956,jpn_C02,2022.1.2,MacIntel,55.55555556,,,,,,,,,,,,,CartoonStims/cowboy_point_doctor_r_no.jpg,,,,,,,,,,,,,,,,,,,,,,,,,,,,,,,ピク　トマ　ムク　ピポ,right,10.145,,,,,,0,18,18,9,1,,,,,,,,,,,,,,,,,,,,,,,,,ピク　トマ　ムク　ピポ,トマ　ピク　ムク　ピポ,1
,,,,,,,,,R_1QuuhlsJpymk9Ar,2022-07-09_17h24.16.956,jpn_C02,2022.1.2,MacIntel,55.55555556,,,,,,,,,,,,,CartoonStims/burglar_shoot_chef_r.jpg,,,,,,,,,,,,,,,,,,,,,,,,,,,,,,,パツ　ルピン　ホレト,right,6.921,,,,,,0,19,19,30,1,,,,,,,,,,,,,,,,,,,,,,,,,パツ　ルピン　ホレト,パツ　ルピン　ホレト,0
,,,,,,,,,R_1QuuhlsJpymk9Ar,2022-07-09_17h24.16.956,jpn_C02,2022.1.2,MacIntel,55.55555556,,,,,,,,,,,,,CartoonStims/boxer_punch_artist_r.jpg,,,,,,,,,,,,,,,,,,,,,,,,,,,,,,,プミ　ドキ　シド,right,20.876,,,,,,0,20,20,35,1,,,,,,,,,,,,,,,,,,,,,,,,,プミ　ドキ　シド,プミ　ドキ　シド,0
,,,,,,,,,R_1QuuhlsJpymk9Ar,2022-07-09_17h24.16.956,jpn_C02,2022.1.2,MacIntel,55.55555556,,,,,,,,,,,,,CartoonStims/doctor_point_boxer_r_no.jpg,,,,,,,,,,,,,,,,,,,,,,,,,,,,,,,ピク　トマ　ピポ　ドキ,right,16.857,,,,,,0,21,21,10,1,,,,,,,,,,,,,,,,,,,,,,,,,ピク　トマ　ピポ　ドキ,トマ　ピク　ピポ　ドキ,1
,,,,,,,,,R_1QuuhlsJpymk9Ar,2022-07-09_17h24.16.956,jpn_C02,2022.1.2,MacIntel,55.55555556,,,,,,,,,,,,,CartoonStims/doctor_kick_chef_r.jpg,,,,,,,,,,,,,,,,,,,,,,,,,,,,,,,セル　ピポ　ホレト,right,19.613,,,,,,0,22,22,25,1,,,,,,,,,,,,,,,,,,,,,,,,,セル　ピポ　ホレト,セル　ピポ　ホレト,0
,,,,,,,,,R_1QuuhlsJpymk9Ar,2022-07-09_17h24.16.956,jpn_C02,2022.1.2,MacIntel,55.55555556,,,,,,,,,,,,,CartoonStims/artist_point_boxer_r.jpg,,,,,,,,,,,,,,,,,,,,,,,,,,,,,,,トマ　シド　ドキ,right,18.277,,,,,,0,23,23,27,1,,,,,,,,,,,,,,,,,,,,,,,,,トマ　シド　ドキ,トマ　シド　ドキ,0
,,,,,,,,,R_1QuuhlsJpymk9Ar,2022-07-09_17h24.16.956,jpn_C02,2022.1.2,MacIntel,55.55555556,,,,,,,,,,,,,CartoonStims/doctor_kick_cowboy_r_no.jpg,,,,,,,,,,,,,,,,,,,,,,,,,,,,,,,ピク　セル　ピポ　ムク,right,8.051,,,,,,0,24,24,4,1,,,,,,,,,,,,,,,,,,,,,,,,,ピク　セル　ピポ　ムク,セル　ピク　ピポ　ムク,1
,,,,,,,,,R_1QuuhlsJpymk9Ar,2022-07-09_17h24.16.956,jpn_C02,2022.1.2,MacIntel,55.55555556,,,,,,,,,,,,,CartoonStims/boxer_point_artist_r_no.jpg,,,,,,,,,,,,,,,,,,,,,,,,,,,,,,,ピク　トマ　ドキ　シド,right,7.957,,,,,,0,25,25,11,1,,,,,,,,,,,,,,,,,,,,,,,,,ピク　トマ　ドキ　シド,トマ　ピク　ドキ　シド,1
,,,,,,,,,R_1QuuhlsJpymk9Ar,2022-07-09_17h24.16.956,jpn_C02,2022.1.2,MacIntel,55.55555556,,,,,,,,,,,,,CartoonStims/cowboy_kick_chef_r_no.jpg,,,,,,,,,,,,,,,,,,,,,,,,,,,,,,,ピク　セル　ムク　ホレト,right,7.015,,,,,,0,26,26,3,1,,,,,,,,,,,,,,,,,,,,,,,,,ピク　セル　ムク　ホレト,セル　ピク　ムク　ホレト,1
,,,,,,,,,R_1QuuhlsJpymk9Ar,2022-07-09_17h24.16.956,jpn_C02,2022.1.2,MacIntel,55.55555556,,,,,,,,,,,,,CartoonStims/chef_shoot_cowboy_r.jpg,,,,,,,,,,,,,,,,,,,,,,,,,,,,,,,パツ　ホレト　ムク,right,4.665,,,,,,0,27,27,31,1,,,,,,,,,,,,,,,,,,,,,,,,,パツ　ホレト　ムク,パツ　ホレト　ムク,0
,,,,,,,,,R_1QuuhlsJpymk9Ar,2022-07-09_17h24.16.956,jpn_C02,2022.1.2,MacIntel,55.55555556,,,,,,,,,,,,,CartoonStims/artist_punch_burglar_r.jpg,,,,,,,,,,,,,,,,,,,,,,,,,,,,,,,プミ　シド　ルピン,right,6.783,,,,,,0,28,28,33,1,,,,,,,,,,,,,,,,,,,,,,,,,プミ　シド　ルピン,プミ　シド　ルピン,0
,,,,,,,,,R_1QuuhlsJpymk9Ar,2022-07-09_17h24.16.956,jpn_C02,2022.1.2,MacIntel,55.55555556,,,,,,,,,,,,,CartoonStims/artist_kick_boxer_r_no.jpg,,,,,,,,,,,,,,,,,,,,,,,,,,,,,,,ピク　セル　シド　ドキ,right,8.078,,,,,,0,29,29,0,1,,,,,,,,,,,,,,,,,,,,,,,,,ピク　セル　シド　ドキ,セル　ピク　シド　ドキ,1
,,,,,,,,,R_1QuuhlsJpymk9Ar,2022-07-09_17h24.16.956,jpn_C02,2022.1.2,MacIntel,55.55555556,,,,,,,,,,,,,CartoonStims/chef_point_cowboy_r_no.jpg,,,,,,,,,,,,,,,,,,,,,,,,,,,,,,,ピク　トマ　ホレト　ムク,right,8.344,,,,,,0,30,30,8,1,,,,,,,,,,,,,,,,,,,,,,,,,ピク　トマ　ホレト　ムク,トマ　ピク　ホレト　ムク,1
,,,,,,,,,R_1QuuhlsJpymk9Ar,2022-07-09_17h24.16.956,jpn_C02,2022.1.2,MacIntel,55.55555556,,,,,,,,,,,,,CartoonStims/doctor_punch_burglar_r_no.jpg,,,,,,,,,,,,,,,,,,,,,,,,,,,,,,,ピク　プミ　ピポ　ルピン,right,9.742,,,,,,0,31,31,22,1,,,,,,,,,,,,,,,,,,,,,,,,,ピク　プミ　ピポ　ルピン,プミ　ピク　ピポ　ルピン,1
,,,,,,,,,R_1QuuhlsJpymk9Ar,2022-07-09_17h24.16.956,jpn_C02,2022.1.2,MacIntel,55.55555556,,,,,,,,,,,,,CartoonStims/burglar_shoot_cowboy_r_no.jpg,,,,,,,,,,,,,,,,,,,,,,,,,,,,,,,ピク　パツ　ルピン　ムク,right,6.745,,,,,,0,32,32,13,1,,,,,,,,,,,,,,,,,,,,,,,,,ピク　パツ　ルピン　ムク,パツ　ピク　ルピン　ムク,1
,,,,,,,,,R_1QuuhlsJpymk9Ar,2022-07-09_17h24.16.956,jpn_C02,2022.1.2,MacIntel,55.55555556,,,,,,,,,,,,,CartoonStims/chef_punch_boxer_r_no.jpg,,,,,,,,,,,,,,,,,,,,,,,,,,,,,,,ピク　プミ　ホレト　ドキ,right,11.291,,,,,,0,33,33,20,1,,,,,,,,,,,,,,,,,,,,,,,,,ピク　プミ　ホレト　ドキ,プミ　ピク　ホレト　ドキ,1
,,,,,,,,,R_1QuuhlsJpymk9Ar,2022-07-09_17h24.16.956,jpn_C02,2022.1.2,MacIntel,55.55555556,,,,,,,,,,,,,CartoonStims/artist_point_burglar_r_no.jpg,,,,,,,,,,,,,,,,,,,,,,,,,,,,,,,ピク　トマ　シド　ルピン,right,12.663,,,,,,0,34,34,6,1,,,,,,,,,,,,,,,,,,,,,,,,,ピク　トマ　シド　ルピン,トマ　ピク　シド　ルピン,1
,,,,,,,,,R_1QuuhlsJpymk9Ar,2022-07-09_17h24.16.956,jpn_C02,2022.1.2,MacIntel,55.55555556,,,,,,,,,,,,,CartoonStims/boxer_kick_doctor_r_no.jpg,,,,,,,,,,,,,,,,,,,,,,,,,,,,,,,ピク　セル　ドキ　ピポ,right,6.977,,,,,,0,35,35,5,1,,,,,,,,,,,,,,,,,,,,,,,,,ピク　セル　ドキ　ピポ,セル　ピク　ドキ　ピポ,1
,,,,,,,,,R_1QuuhlsJpymk9Ar,2022-07-09_17h24.16.956,jpn_C02,2022.1.2,MacIntel,55.55555556,,,,,,,,,,,,,,,,,,,,,,,,,,,,,,,,,,,,,,,,,,,,,,,,,,,,,,,,,,,space,0.508,0,2,2,2,1,NegVCondition.xlsx,"ここではこの言語における否定の文を学習していただきます。引き続き注意して、 聞こえた音を復唱してください。

スペースキーを押してください。",1,NegVFCT.xlsx,ここからクイズが始まります。 スクリーンに表示されるテキストに合うイメージを選んでください。,NegTest.xlsx,1,最後にここまで学んだことをアウトプットしていただきます。 テキストボックスにあるイメージを描写するテキストを入力してください。 このタスクでは、 答え合わせは行いません。,0,これですべての実験が終わりました。 お疲れさまです。 この後はアンケートに答えていただきます。,,,,,,,,