key_resp_instr_a.keys,key_resp_instr_a.rt,key_resp_instr_b.keys,key_resp_instr_b.rt,dummy.thisRepN,dummy.thisTrialN,dummy.thisN,dummy.thisIndex,dummy.ran,participant,date,expName,psychopyVersion,OS,frameRate,key_resp_instr1.keys,key_resp_instr1.rt,key_resp.keys,key_resp.rt,exp_loop.thisRepN,exp_loop.thisTrialN,exp_loop.thisN,exp_loop.thisIndex,exp_loop.ran,Word,English,Flip,Path,Audio,key_resp_instr2.keys,key_resp_instr2.rt,key_resp_fct.keys,key_resp_fct.corr,key_resp_fct.rt,trials_2.thisRepN,trials_2.thisTrialN,trials_2.thisN,trials_2.thisIndex,trials_2.ran,fct_loop.thisRepN,fct_loop.thisTrialN,fct_loop.thisN,fct_loop.thisIndex,fct_loop.ran,left_img,word,right_img,correctans,correct_img,audio,incorrect_feedback,trials.thisRepN,trials.thisTrialN,trials.thisN,trials.thisIndex,trials.ran,key_resp_instr3.keys,key_resp_instr3.rt,textbox.text,key_resp_2.keys,key_resp_2.rt,fb_yn.thisRepN,fb_yn.thisTrialN,fb_yn.thisN,fb_yn.thisIndex,fb_yn.ran,gather_loop.thisRepN,gather_loop.thisTrialN,gather_loop.thisN,gather_loop.thisIndex,gather_loop.ran,Text,Wordbank,key_resp_instr4.keys,key_resp_instr4.rt,master_loop.thisRepN,master_loop.thisTrialN,master_loop.thisN,master_loop.thisIndex,master_loop.ran,exposure_file,instr_1,exp_reps,fct_file,instr_2,gather_file,gather_reps,instr_3,fReps,instr_4,trials_3.thisRepN,trials_3.thisTrialN,trials_3.thisN,trials_3.thisIndex,trials_3.ran,trials_4.thisRepN,trials_4.thisTrialN,trials_4.thisN,trials_4.thisIndex,trials_4.ran,NegVSentence,VNegSentence,NegTF
space,8.3318,space,7.1388,0,0,0,0,1,R_3KNQJQzzHVvq2Py,2022-09-11_11h59.25.405,jpn_C03,2022.1.2,Win32,60.07088364,,,,,,,,,,,,,,,,,,,,,,,,,,,,,,,,,,,,,,,,,,,,,,,,,,,,,,,,,,,,,,,,,,,,,,,,,,,,,,,,,,,,,,,,
,,,,,,,,,R_3KNQJQzzHVvq2Py,2022-09-11_11h59.25.405,jpn_C03,2022.1.2,Win32,60.07088364,space,12.2758,space,9.3121,0,0,0,1,1,ルピン,burglar,,CartoonStims/burglar_r.jpg,audio/lupin.mp3,,,,,,,,,,,,,,,,,,,,,,,,,,,,,,,,,,,,,,,,,,,,,,,,,,,,,,,,,,,,,,,,,,,,,,,,,,
,,,,,,,,,R_3KNQJQzzHVvq2Py,2022-09-11_11h59.25.405,jpn_C03,2022.1.2,Win32,60.07088364,,,space,3.8178,0,1,1,3,1,ムク,cowboy,,CartoonStims/cowboy_r.jpg,audio/muku.mp3,,,,,,,,,,,,,,,,,,,,,,,,,,,,,,,,,,,,,,,,,,,,,,,,,,,,,,,,,,,,,,,,,,,,,,,,,,
,,,,,,,,,R_3KNQJQzzHVvq2Py,2022-09-11_11h59.25.405,jpn_C03,2022.1.2,Win32,60.07088364,,,space,3.2653,0,2,2,2,1,ホレト,chef,,CartoonStims/chef_r.jpg,audio/horeto.mp3,,,,,,,,,,,,,,,,,,,,,,,,,,,,,,,,,,,,,,,,,,,,,,,,,,,,,,,,,,,,,,,,,,,,,,,,,,
,,,,,,,,,R_3KNQJQzzHVvq2Py,2022-09-11_11h59.25.405,jpn_C03,2022.1.2,Win32,60.07088364,,,space,2.6565,0,3,3,5,1,ドキ,boxer,,CartoonStims/boxer_r.jpg,audio/doki.mp3,,,,,,,,,,,,,,,,,,,,,,,,,,,,,,,,,,,,,,,,,,,,,,,,,,,,,,,,,,,,,,,,,,,,,,,,,,
,,,,,,,,,R_3KNQJQzzHVvq2Py,2022-09-11_11h59.25.405,jpn_C03,2022.1.2,Win32,60.07088364,,,space,2.5494,0,4,4,4,1,ピポ,doctor,,CartoonStims/doctor_r.jpg,audio/pipo.mp3,,,,,,,,,,,,,,,,,,,,,,,,,,,,,,,,,,,,,,,,,,,,,,,,,,,,,,,,,,,,,,,,,,,,,,,,,,
,,,,,,,,,R_3KNQJQzzHVvq2Py,2022-09-11_11h59.25.405,jpn_C03,2022.1.2,Win32,60.07088364,,,space,4.6544,0,5,5,0,1,シド,artist,,CartoonStims/artist_r.jpg,audio/sido.mp3,,,,,,,,,,,,,,,,,,,,,,,,,,,,,,,,,,,,,,,,,,,,,,,,,,,,,,,,,,,,,,,,,,,,,,,,,,
,,,,,,,,,R_3KNQJQzzHVvq2Py,2022-09-11_11h59.25.405,jpn_C03,2022.1.2,Win32,60.07088364,,,space,1.3439,1,0,6,1,1,ルピン,burglar,,CartoonStims/burglar_r.jpg,audio/lupin.mp3,,,,,,,,,,,,,,,,,,,,,,,,,,,,,,,,,,,,,,,,,,,,,,,,,,,,,,,,,,,,,,,,,,,,,,,,,,
,,,,,,,,,R_3KNQJQzzHVvq2Py,2022-09-11_11h59.25.405,jpn_C03,2022.1.2,Win32,60.07088364,,,space,4.0652,1,1,7,2,1,ホレト,chef,,CartoonStims/chef_r.jpg,audio/horeto.mp3,,,,,,,,,,,,,,,,,,,,,,,,,,,,,,,,,,,,,,,,,,,,,,,,,,,,,,,,,,,,,,,,,,,,,,,,,,
,,,,,,,,,R_3KNQJQzzHVvq2Py,2022-09-11_11h59.25.405,jpn_C03,2022.1.2,Win32,60.07088364,,,space,2.1194,1,2,8,5,1,ドキ,boxer,,CartoonStims/boxer_r.jpg,audio/doki.mp3,,,,,,,,,,,,,,,,,,,,,,,,,,,,,,,,,,,,,,,,,,,,,,,,,,,,,,,,,,,,,,,,,,,,,,,,,,
,,,,,,,,,R_3KNQJQzzHVvq2Py,2022-09-11_11h59.25.405,jpn_C03,2022.1.2,Win32,60.07088364,,,space,2.5365,1,3,9,4,1,ピポ,doctor,,CartoonStims/doctor_r.jpg,audio/pipo.mp3,,,,,,,,,,,,,,,,,,,,,,,,,,,,,,,,,,,,,,,,,,,,,,,,,,,,,,,,,,,,,,,,,,,,,,,,,,
,,,,,,,,,R_3KNQJQzzHVvq2Py,2022-09-11_11h59.25.405,jpn_C03,2022.1.2,Win32,60.07088364,,,space,1.96,1,4,10,3,1,ムク,cowboy,,CartoonStims/cowboy_r.jpg,audio/muku.mp3,,,,,,,,,,,,,,,,,,,,,,,,,,,,,,,,,,,,,,,,,,,,,,,,,,,,,,,,,,,,,,,,,,,,,,,,,,
,,,,,,,,,R_3KNQJQzzHVvq2Py,2022-09-11_11h59.25.405,jpn_C03,2022.1.2,Win32,60.07088364,,,space,1.9199,1,5,11,0,1,シド,artist,,CartoonStims/artist_r.jpg,audio/sido.mp3,,,,,,,,,,,,,,,,,,,,,,,,,,,,,,,,,,,,,,,,,,,,,,,,,,,,,,,,,,,,,,,,,,,,,,,,,,
,,,,,,,,,R_3KNQJQzzHVvq2Py,2022-09-11_11h59.25.405,jpn_C03,2022.1.2,Win32,60.07088364,,,space,1.6664,2,0,12,5,1,ドキ,boxer,,CartoonStims/boxer_r.jpg,audio/doki.mp3,,,,,,,,,,,,,,,,,,,,,,,,,,,,,,,,,,,,,,,,,,,,,,,,,,,,,,,,,,,,,,,,,,,,,,,,,,
,,,,,,,,,R_3KNQJQzzHVvq2Py,2022-09-11_11h59.25.405,jpn_C03,2022.1.2,Win32,60.07088364,,,space,6.5295,2,1,13,3,1,ムク,cowboy,,CartoonStims/cowboy_r.jpg,audio/muku.mp3,,,,,,,,,,,,,,,,,,,,,,,,,,,,,,,,,,,,,,,,,,,,,,,,,,,,,,,,,,,,,,,,,,,,,,,,,,
,,,,,,,,,R_3KNQJQzzHVvq2Py,2022-09-11_11h59.25.405,jpn_C03,2022.1.2,Win32,60.07088364,,,space,1.6204,2,2,14,4,1,ピポ,doctor,,CartoonStims/doctor_r.jpg,audio/pipo.mp3,,,,,,,,,,,,,,,,,,,,,,,,,,,,,,,,,,,,,,,,,,,,,,,,,,,,,,,,,,,,,,,,,,,,,,,,,,
,,,,,,,,,R_3KNQJQzzHVvq2Py,2022-09-11_11h59.25.405,jpn_C03,2022.1.2,Win32,60.07088364,,,space,2.5661,2,3,15,0,1,シド,artist,,CartoonStims/artist_r.jpg,audio/sido.mp3,,,,,,,,,,,,,,,,,,,,,,,,,,,,,,,,,,,,,,,,,,,,,,,,,,,,,,,,,,,,,,,,,,,,,,,,,,
,,,,,,,,,R_3KNQJQzzHVvq2Py,2022-09-11_11h59.25.405,jpn_C03,2022.1.2,Win32,60.07088364,,,space,2.0648,2,4,16,2,1,ホレト,chef,,CartoonStims/chef_r.jpg,audio/horeto.mp3,,,,,,,,,,,,,,,,,,,,,,,,,,,,,,,,,,,,,,,,,,,,,,,,,,,,,,,,,,,,,,,,,,,,,,,,,,
,,,,,,,,,R_3KNQJQzzHVvq2Py,2022-09-11_11h59.25.405,jpn_C03,2022.1.2,Win32,60.07088364,,,space,1.8985,2,5,17,1,1,ルピン,burglar,,CartoonStims/burglar_r.jpg,audio/lupin.mp3,,,,,,,,,,,,,,,,,,,,,,,,,,,,,,,,,,,,,,,,,,,,,,,,,,,,,,,,,,,,,,,,,,,,,,,,,,
,,,,,,,,,R_3KNQJQzzHVvq2Py,2022-09-11_11h59.25.405,jpn_C03,2022.1.2,Win32,60.07088364,,,,,,,,,,,,,,,space,4.6396,right,1,2.3309,0,0,0,0,1,,,,,,,,,,,,,,,,,,,,,,,,,,,,,,,,,,,,,,,,,,,,,,,,,,,,,,,,,,,,,,,,
,,,,,,,,,R_3KNQJQzzHVvq2Py,2022-09-11_11h59.25.405,jpn_C03,2022.1.2,Win32,60.07088364,,,,,,,,,,,,,,,,,,,,,,,,,0,0,0,11,1,CartoonStims/burglar_r.jpg,ドキ,CartoonStims/boxer_r.jpg,right,CartoonStims/boxer_r.jpg,audio/doki.mp3,残念！ こちらが正しい画像です。,,,,,,,,,,,,,,,,,,,,,,,,,,,,,,,,,,,,,,,,,,,,,,,,,,,,
,,,,,,,,,R_3KNQJQzzHVvq2Py,2022-09-11_11h59.25.405,jpn_C03,2022.1.2,Win32,60.07088364,,,,,,,,,,,,,,,,,left,1,1.71,,,,,,,,,,,,,,,,,,0,0,0,0,1,,,,,,,,,,,,,,,,,,,,,,,,,,,,,,,,,,,,,,,,,,,,,,,
,,,,,,,,,R_3KNQJQzzHVvq2Py,2022-09-11_11h59.25.405,jpn_C03,2022.1.2,Win32,60.07088364,,,,,,,,,,,,,,,,,,,,,,,,,0,1,1,0,1,CartoonStims/artist_r.jpg,シド,CartoonStims/burglar_r.jpg,left,CartoonStims/artist_r.jpg,audio/sido.mp3,残念！ こちらが正しい画像です。,,,,,,,,,,,,,,,,,,,,,,,,,,,,,,,,,,,,,,,,,,,,,,,,,,,,
,,,,,,,,,R_3KNQJQzzHVvq2Py,2022-09-11_11h59.25.405,jpn_C03,2022.1.2,Win32,60.07088364,,,,,,,,,,,,,,,,,left,1,2.2724,,,,,,,,,,,,,,,,,,0,0,0,0,1,,,,,,,,,,,,,,,,,,,,,,,,,,,,,,,,,,,,,,,,,,,,,,,
,,,,,,,,,R_3KNQJQzzHVvq2Py,2022-09-11_11h59.25.405,jpn_C03,2022.1.2,Win32,60.07088364,,,,,,,,,,,,,,,,,,,,,,,,,0,2,2,3,1,CartoonStims/cowboy_r.jpg,ムク,CartoonStims/doctor_r.jpg,left,CartoonStims/cowboy_r.jpg,audio/muku.mp3,残念！ こちらが正しい画像です。,,,,,,,,,,,,,,,,,,,,,,,,,,,,,,,,,,,,,,,,,,,,,,,,,,,,
,,,,,,,,,R_3KNQJQzzHVvq2Py,2022-09-11_11h59.25.405,jpn_C03,2022.1.2,Win32,60.07088364,,,,,,,,,,,,,,,,,right,1,1.8671,0,0,0,0,1,,,,,,,,,,,,,,,,,,,,,,,,,,,,,,,,,,,,,,,,,,,,,,,,,,,,,,,,,,,,,,,,
,,,,,,,,,R_3KNQJQzzHVvq2Py,2022-09-11_11h59.25.405,jpn_C03,2022.1.2,Win32,60.07088364,,,,,,,,,,,,,,,,,,,,,,,,,0,3,3,6,1,CartoonStims/chef_r.jpg,シド,CartoonStims/artist_r.jpg,right,CartoonStims/artist_r.jpg,audio/sido.mp3,残念！ こちらが正しい画像です。,,,,,,,,,,,,,,,,,,,,,,,,,,,,,,,,,,,,,,,,,,,,,,,,,,,,
,,,,,,,,,R_3KNQJQzzHVvq2Py,2022-09-11_11h59.25.405,jpn_C03,2022.1.2,Win32,60.07088364,,,,,,,,,,,,,,,,,left,1,2.0397,,,,,,,,,,,,,,,,,,0,0,0,0,1,,,,,,,,,,,,,,,,,,,,,,,,,,,,,,,,,,,,,,,,,,,,,,,
,,,,,,,,,R_3KNQJQzzHVvq2Py,2022-09-11_11h59.25.405,jpn_C03,2022.1.2,Win32,60.07088364,,,,,,,,,,,,,,,,,,,,,,,,,0,4,4,5,1,CartoonStims/boxer_r.jpg,ドキ,CartoonStims/artist_r.jpg,left,CartoonStims/boxer_r.jpg,audio/doki.mp3,残念！ こちらが正しい画像です。,,,,,,,,,,,,,,,,,,,,,,,,,,,,,,,,,,,,,,,,,,,,,,,,,,,,
,,,,,,,,,R_3KNQJQzzHVvq2Py,2022-09-11_11h59.25.405,jpn_C03,2022.1.2,Win32,60.07088364,,,,,,,,,,,,,,,,,right,1,1.7515,0,0,0,0,1,,,,,,,,,,,,,,,,,,,,,,,,,,,,,,,,,,,,,,,,,,,,,,,,,,,,,,,,,,,,,,,,
,,,,,,,,,R_3KNQJQzzHVvq2Py,2022-09-11_11h59.25.405,jpn_C03,2022.1.2,Win32,60.07088364,,,,,,,,,,,,,,,,,,,,,,,,,0,5,5,9,1,CartoonStims/boxer_r.jpg,ムク,CartoonStims/cowboy_r.jpg,right,CartoonStims/cowboy_r.jpg,audio/muku.mp3,残念！ こちらが正しい画像です。,,,,,,,,,,,,,,,,,,,,,,,,,,,,,,,,,,,,,,,,,,,,,,,,,,,,
,,,,,,,,,R_3KNQJQzzHVvq2Py,2022-09-11_11h59.25.405,jpn_C03,2022.1.2,Win32,60.07088364,,,,,,,,,,,,,,,,,right,1,0.8019,0,0,0,0,1,,,,,,,,,,,,,,,,,,,,,,,,,,,,,,,,,,,,,,,,,,,,,,,,,,,,,,,,,,,,,,,,
,,,,,,,,,R_3KNQJQzzHVvq2Py,2022-09-11_11h59.25.405,jpn_C03,2022.1.2,Win32,60.07088364,,,,,,,,,,,,,,,,,,,,,,,,,0,6,6,7,1,CartoonStims/cowboy_r.jpg,ルピン,CartoonStims/burglar_r.jpg,right,CartoonStims/burglar_r.jpg,audio/lupin.mp3,残念！ こちらが正しい画像です。,,,,,,,,,,,,,,,,,,,,,,,,,,,,,,,,,,,,,,,,,,,,,,,,,,,,
,,,,,,,,,R_3KNQJQzzHVvq2Py,2022-09-11_11h59.25.405,jpn_C03,2022.1.2,Win32,60.07088364,,,,,,,,,,,,,,,,,left,1,1.2602,,,,,,,,,,,,,,,,,,0,0,0,0,1,,,,,,,,,,,,,,,,,,,,,,,,,,,,,,,,,,,,,,,,,,,,,,,
,,,,,,,,,R_3KNQJQzzHVvq2Py,2022-09-11_11h59.25.405,jpn_C03,2022.1.2,Win32,60.07088364,,,,,,,,,,,,,,,,,,,,,,,,,0,7,7,4,1,CartoonStims/doctor_r.jpg,ピポ,CartoonStims/boxer_r.jpg,left,CartoonStims/doctor_r.jpg,audio/pipo.mp3,残念！ こちらが正しい画像です。,,,,,,,,,,,,,,,,,,,,,,,,,,,,,,,,,,,,,,,,,,,,,,,,,,,,
,,,,,,,,,R_3KNQJQzzHVvq2Py,2022-09-11_11h59.25.405,jpn_C03,2022.1.2,Win32,60.07088364,,,,,,,,,,,,,,,,,right,1,2.9304,0,0,0,0,1,,,,,,,,,,,,,,,,,,,,,,,,,,,,,,,,,,,,,,,,,,,,,,,,,,,,,,,,,,,,,,,,
,,,,,,,,,R_3KNQJQzzHVvq2Py,2022-09-11_11h59.25.405,jpn_C03,2022.1.2,Win32,60.07088364,,,,,,,,,,,,,,,,,,,,,,,,,0,8,8,8,1,CartoonStims/doctor_r.jpg,ホレト,CartoonStims/chef_r.jpg,right,CartoonStims/chef_r.jpg,audio/horeto.mp3,残念！ こちらが正しい画像です。,,,,,,,,,,,,,,,,,,,,,,,,,,,,,,,,,,,,,,,,,,,,,,,,,,,,
,,,,,,,,,R_3KNQJQzzHVvq2Py,2022-09-11_11h59.25.405,jpn_C03,2022.1.2,Win32,60.07088364,,,,,,,,,,,,,,,,,left,1,0.7567,,,,,,,,,,,,,,,,,,0,0,0,0,1,,,,,,,,,,,,,,,,,,,,,,,,,,,,,,,,,,,,,,,,,,,,,,,
,,,,,,,,,R_3KNQJQzzHVvq2Py,2022-09-11_11h59.25.405,jpn_C03,2022.1.2,Win32,60.07088364,,,,,,,,,,,,,,,,,,,,,,,,,0,9,9,1,1,CartoonStims/burglar_r.jpg,ルピン,CartoonStims/chef_r.jpg,left,CartoonStims/burglar_r.jpg,audio/lupin.mp3,残念！ こちらが正しい画像です。,,,,,,,,,,,,,,,,,,,,,,,,,,,,,,,,,,,,,,,,,,,,,,,,,,,,
,,,,,,,,,R_3KNQJQzzHVvq2Py,2022-09-11_11h59.25.405,jpn_C03,2022.1.2,Win32,60.07088364,,,,,,,,,,,,,,,,,right,1,3.0343,0,0,0,0,1,,,,,,,,,,,,,,,,,,,,,,,,,,,,,,,,,,,,,,,,,,,,,,,,,,,,,,,,,,,,,,,,
,,,,,,,,,R_3KNQJQzzHVvq2Py,2022-09-11_11h59.25.405,jpn_C03,2022.1.2,Win32,60.07088364,,,,,,,,,,,,,,,,,,,,,,,,,0,10,10,10,1,CartoonStims/artist_r.jpg,ピポ,CartoonStims/doctor_r.jpg,right,CartoonStims/doctor_r.jpg,audio/pipo.mp3,残念！ こちらが正しい画像です。,,,,,,,,,,,,,,,,,,,,,,,,,,,,,,,,,,,,,,,,,,,,,,,,,,,,
,,,,,,,,,R_3KNQJQzzHVvq2Py,2022-09-11_11h59.25.405,jpn_C03,2022.1.2,Win32,60.07088364,,,,,,,,,,,,,,,,,left,1,1.0998,,,,,,,,,,,,,,,,,,0,0,0,0,1,,,,,,,,,,,,,,,,,,,,,,,,,,,,,,,,,,,,,,,,,,,,,,,
,,,,,,,,,R_3KNQJQzzHVvq2Py,2022-09-11_11h59.25.405,jpn_C03,2022.1.2,Win32,60.07088364,,,,,,,,,,,,,,,,,,,,,,,,,0,11,11,2,1,CartoonStims/chef_r.jpg,ホレト,CartoonStims/cowboy_r.jpg,left,CartoonStims/chef_r.jpg,audio/horeto.mp3,残念！ こちらが正しい画像です。,,,,,,,,,,,,,,,,,,,,,,,,,,,,,,,,,,,,,,,,,,,,,,,,,,,,
,,,,,,,,,R_3KNQJQzzHVvq2Py,2022-09-11_11h59.25.405,jpn_C03,2022.1.2,Win32,60.07088364,,,,,,,,,,,,,,,,,,,,,,,,,,,,,,,,,,,,,,,,,,space,6.1135,ルピン,right,13.2036,0,0,0,0,1,,,,,,,,,,,,,,,,,,,,,,,,,,,,,,,,,,,,,
,,,,,,,,,R_3KNQJQzzHVvq2Py,2022-09-11_11h59.25.405,jpn_C03,2022.1.2,Win32,60.07088364,,,,,,,,,,,,,CartoonStims/burglar_r.jpg,audio/lupin.mp3,,,,,,,,,,,,,,,,,,,,,,,,,,,,,,,,,,,,,,0,0,0,1,1,ルピン,,,,,,,,,,,,,,,,,,,,,,,,,,,,,,,
,,,,,,,,,R_3KNQJQzzHVvq2Py,2022-09-11_11h59.25.405,jpn_C03,2022.1.2,Win32,60.07088364,,,,,,,,,,,,,,,,,,,,,,,,,,,,,,,,,,,,,,,,,,,,ムク,right,20.4435,0,0,0,0,1,,,,,,,,,,,,,,,,,,,,,,,,,,,,,,,,,,,,,
,,,,,,,,,R_3KNQJQzzHVvq2Py,2022-09-11_11h59.25.405,jpn_C03,2022.1.2,Win32,60.07088364,,,,,,,,,,,,,CartoonStims/cowboy_r.jpg,audio/muku.mp3,,,,,,,,,,,,,,,,,,,,,,,,,,,,,,,,,,,,,,0,1,1,3,1,ムク,,,,,,,,,,,,,,,,,,,,,,,,,,,,,,,
,,,,,,,,,R_3KNQJQzzHVvq2Py,2022-09-11_11h59.25.405,jpn_C03,2022.1.2,Win32,60.07088364,,,,,,,,,,,,,,,,,,,,,,,,,,,,,,,,,,,,,,,,,,,,ポレン,right,12.6412,0,0,0,0,1,,,,,,,,,,,,,,,,,,,,,,,,,,,,,,,,,,,,,
,,,,,,,,,R_3KNQJQzzHVvq2Py,2022-09-11_11h59.25.405,jpn_C03,2022.1.2,Win32,60.07088364,,,,,,,,,,,,,CartoonStims/doctor_r.jpg,audio/pipo.mp3,,,,,,,,,,,,,,,,,,,,,,,,,,,,,,,,,,,,,,0,2,2,4,1,ピポ,,,,,,,,,,,,,,,,,,,,,,,,,,,,,,,
,,,,,,,,,R_3KNQJQzzHVvq2Py,2022-09-11_11h59.25.405,jpn_C03,2022.1.2,Win32,60.07088364,,,,,,,,,,,,,,,,,,,,,,,,,,,,,,,,,,,,,,,,,,,,ドキ,right,8.336,0,0,0,0,1,,,,,,,,,,,,,,,,,,,,,,,,,,,,,,,,,,,,,
,,,,,,,,,R_3KNQJQzzHVvq2Py,2022-09-11_11h59.25.405,jpn_C03,2022.1.2,Win32,60.07088364,,,,,,,,,,,,,CartoonStims/boxer_r.jpg,audio/doki.mp3,,,,,,,,,,,,,,,,,,,,,,,,,,,,,,,,,,,,,,0,3,3,5,1,ドキ,,,,,,,,,,,,,,,,,,,,,,,,,,,,,,,
,,,,,,,,,R_3KNQJQzzHVvq2Py,2022-09-11_11h59.25.405,jpn_C03,2022.1.2,Win32,60.07088364,,,,,,,,,,,,,,,,,,,,,,,,,,,,,,,,,,,,,,,,,,,,ポレト,right,10.4235,0,0,0,0,1,,,,,,,,,,,,,,,,,,,,,,,,,,,,,,,,,,,,,
,,,,,,,,,R_3KNQJQzzHVvq2Py,2022-09-11_11h59.25.405,jpn_C03,2022.1.2,Win32,60.07088364,,,,,,,,,,,,,CartoonStims/chef_r.jpg,audio/horeto.mp3,,,,,,,,,,,,,,,,,,,,,,,,,,,,,,,,,,,,,,0,4,4,2,1,ホレト,,,,,,,,,,,,,,,,,,,,,,,,,,,,,,,
,,,,,,,,,R_3KNQJQzzHVvq2Py,2022-09-11_11h59.25.405,jpn_C03,2022.1.2,Win32,60.07088364,,,,,,,,,,,,,,,,,,,,,,,,,,,,,,,,,,,,,,,,,,,,ムク,right,5.951,0,0,0,0,1,,,,,,,,,,,,,,,,,,,,,,,,,,,,,,,,,,,,,
,,,,,,,,,R_3KNQJQzzHVvq2Py,2022-09-11_11h59.25.405,jpn_C03,2022.1.2,Win32,60.07088364,,,,,,,,,,,,,CartoonStims/artist_r.jpg,audio/sido.mp3,,,,,,,,,,,,,,,,,,,,,,,,,,,,,,,,,,,,,,0,5,5,0,1,シド,,,,,,,,,,,,,,,,,,,,,,,,,,,,,,,
,,,,,,,,,R_3KNQJQzzHVvq2Py,2022-09-11_11h59.25.405,jpn_C03,2022.1.2,Win32,60.07088364,,,,,,,,,,,,,,,,,,,,,,,,,,,,,,,,,,,,,,,,,,,,ホレト,right,17.24,0,0,0,0,1,,,,,,,,,,,,,,,,,,,,,,,,,,,,,,,,,,,,,
,,,,,,,,,R_3KNQJQzzHVvq2Py,2022-09-11_11h59.25.405,jpn_C03,2022.1.2,Win32,60.07088364,,,,,,,,,,,,,CartoonStims/chef_r.jpg,audio/horeto.mp3,,,,,,,,,,,,,,,,,,,,,,,,,,,,,,,,,,,,,,1,0,6,2,1,ホレト,,,,,,,,,,,,,,,,,,,,,,,,,,,,,,,
,,,,,,,,,R_3KNQJQzzHVvq2Py,2022-09-11_11h59.25.405,jpn_C03,2022.1.2,Win32,60.07088364,,,,,,,,,,,,,,,,,,,,,,,,,,,,,,,,,,,,,,,,,,,,シド,right,11.8224,0,0,0,0,1,,,,,,,,,,,,,,,,,,,,,,,,,,,,,,,,,,,,,
,,,,,,,,,R_3KNQJQzzHVvq2Py,2022-09-11_11h59.25.405,jpn_C03,2022.1.2,Win32,60.07088364,,,,,,,,,,,,,CartoonStims/artist_r.jpg,audio/sido.mp3,,,,,,,,,,,,,,,,,,,,,,,,,,,,,,,,,,,,,,1,1,7,0,1,シド,,,,,,,,,,,,,,,,,,,,,,,,,,,,,,,
,,,,,,,,,R_3KNQJQzzHVvq2Py,2022-09-11_11h59.25.405,jpn_C03,2022.1.2,Win32,60.07088364,,,,,,,,,,,,,,,,,,,,,,,,,,,,,,,,,,,,,,,,,,,,ドキ,right,5.3478,0,0,0,0,1,,,,,,,,,,,,,,,,,,,,,,,,,,,,,,,,,,,,,
,,,,,,,,,R_3KNQJQzzHVvq2Py,2022-09-11_11h59.25.405,jpn_C03,2022.1.2,Win32,60.07088364,,,,,,,,,,,,,CartoonStims/boxer_r.jpg,audio/doki.mp3,,,,,,,,,,,,,,,,,,,,,,,,,,,,,,,,,,,,,,1,2,8,5,1,ドキ,,,,,,,,,,,,,,,,,,,,,,,,,,,,,,,
,,,,,,,,,R_3KNQJQzzHVvq2Py,2022-09-11_11h59.25.405,jpn_C03,2022.1.2,Win32,60.07088364,,,,,,,,,,,,,,,,,,,,,,,,,,,,,,,,,,,,,,,,,,,,ムク,right,11.3901,0,0,0,0,1,,,,,,,,,,,,,,,,,,,,,,,,,,,,,,,,,,,,,
,,,,,,,,,R_3KNQJQzzHVvq2Py,2022-09-11_11h59.25.405,jpn_C03,2022.1.2,Win32,60.07088364,,,,,,,,,,,,,CartoonStims/cowboy_r.jpg,audio/muku.mp3,,,,,,,,,,,,,,,,,,,,,,,,,,,,,,,,,,,,,,1,3,9,3,1,ムク,,,,,,,,,,,,,,,,,,,,,,,,,,,,,,,
,,,,,,,,,R_3KNQJQzzHVvq2Py,2022-09-11_11h59.25.405,jpn_C03,2022.1.2,Win32,60.07088364,,,,,,,,,,,,,,,,,,,,,,,,,,,,,,,,,,,,,,,,,,,,ルピン,right,4.8455,0,0,0,0,1,,,,,,,,,,,,,,,,,,,,,,,,,,,,,,,,,,,,,
,,,,,,,,,R_3KNQJQzzHVvq2Py,2022-09-11_11h59.25.405,jpn_C03,2022.1.2,Win32,60.07088364,,,,,,,,,,,,,CartoonStims/burglar_r.jpg,audio/lupin.mp3,,,,,,,,,,,,,,,,,,,,,,,,,,,,,,,,,,,,,,1,4,10,1,1,ルピン,,,,,,,,,,,,,,,,,,,,,,,,,,,,,,,
,,,,,,,,,R_3KNQJQzzHVvq2Py,2022-09-11_11h59.25.405,jpn_C03,2022.1.2,Win32,60.07088364,,,,,,,,,,,,,,,,,,,,,,,,,,,,,,,,,,,,,,,,,,,,ホレト,right,9.1244,0,0,0,0,1,,,,,,,,,,,,,,,,,,,,,,,,,,,,,,,,,,,,,
,,,,,,,,,R_3KNQJQzzHVvq2Py,2022-09-11_11h59.25.405,jpn_C03,2022.1.2,Win32,60.07088364,,,,,,,,,,,,,CartoonStims/doctor_r.jpg,audio/pipo.mp3,,,,,,,,,,,,,,,,,,,,,,,,,,,,,,,,,,,,,,1,5,11,4,1,ピポ,,,,,,,,,,,,,,,,,,,,,,,,,,,,,,,
,,,,,,,,,R_3KNQJQzzHVvq2Py,2022-09-11_11h59.25.405,jpn_C03,2022.1.2,Win32,60.07088364,,,,,,,,,,,,,,,,,,,,,,,,,,,,,,,,,,,,,,,,,,,,,,,,,,,,,,,,,,,space,3.8678,0,0,0,0,1,NounExposure.xlsx,"最初のトライアルでは、 画像が表示され、 その画像の下に単語が出てきます。 またこの単語の音も聞くことができます。 この音を大きな声で復唱してください。 そしてこの画像がどのような単語を示しているのか, 考えてみてください。 その後、 続きのボタンを押すと次の単語の学習が始まります。

スペースキーを押して、学習を始めましょう。",3,NounFCT.xlsx,ここから語彙のクイズが始まります。スクリーンに表示される単語に合う画像をキーボードの右と左の矢印キーを使って選択してください。,NounTest.xlsx,2,次に、これまで学習してきたことをアウトプットしていただきます。 表示される画像を描写していると思う単語を、テキストボックスにタイプしてください。,1,"ここまでが最初のトライアルです。ここで休憩をとっても構いません。

休憩が済みましたら、スペースキーを押して続きを始めましょう。",,,,,,,,,,,,,
,,,,,,,,,R_3KNQJQzzHVvq2Py,2022-09-11_11h59.25.405,jpn_C03,2022.1.2,Win32,60.07088364,space,5.2948,space,7.0975,0,0,0,35,1,パツ　ドキ　ムク,,,CartoonStims/boxer_shoot_cowboy_r.jpg,audio/patsudokimuku.mp3,,,,,,,,,,,,,,,,,,,,,,,,,,,,,,,,,,,,,,,,,,,,,,,,,,,,,,,,,,,,,,,,,,,,,,,,,,
,,,,,,,,,R_3KNQJQzzHVvq2Py,2022-09-11_11h59.25.405,jpn_C03,2022.1.2,Win32,60.07088364,,,space,3.9087,0,1,1,9,1,セル　ピポ　シド,,,CartoonStims/doctor_kick_artist_r.jpg,audio/serupiposido.mp3,,,,,,,,,,,,,,,,,,,,,,,,,,,,,,,,,,,,,,,,,,,,,,,,,,,,,,,,,,,,,,,,,,,,,,,,,,
,,,,,,,,,R_3KNQJQzzHVvq2Py,2022-09-11_11h59.25.405,jpn_C03,2022.1.2,Win32,60.07088364,,,space,10.8281,0,2,2,26,1,パツ　ルピン　ピポ,,,CartoonStims/burglar_shoot_doctor_r.jpg,audio/patsulupinpipo.mp3,,,,,,,,,,,,,,,,,,,,,,,,,,,,,,,,,,,,,,,,,,,,,,,,,,,,,,,,,,,,,,,,,,,,,,,,,,
,,,,,,,,,R_3KNQJQzzHVvq2Py,2022-09-11_11h59.25.405,jpn_C03,2022.1.2,Win32,60.07088364,,,space,5.4648,0,3,3,45,1,プミ　ピポ　ムク,,,CartoonStims/doctor_punch_cowboy_r.jpg,audio/pumipipomuku.mp3,,,,,,,,,,,,,,,,,,,,,,,,,,,,,,,,,,,,,,,,,,,,,,,,,,,,,,,,,,,,,,,,,,,,,,,,,,
,,,,,,,,,R_3KNQJQzzHVvq2Py,2022-09-11_11h59.25.405,jpn_C03,2022.1.2,Win32,60.07088364,,,space,6.4503,0,4,4,22,1,トマ　ドキ　ルピン,,,CartoonStims/boxer_point_burglar_r.jpg,audio/tomadokilupin.mp3,,,,,,,,,,,,,,,,,,,,,,,,,,,,,,,,,,,,,,,,,,,,,,,,,,,,,,,,,,,,,,,,,,,,,,,,,,
,,,,,,,,,R_3KNQJQzzHVvq2Py,2022-09-11_11h59.25.405,jpn_C03,2022.1.2,Win32,60.07088364,,,space,6.7945,0,5,5,44,1,プミ　ピポ　ホレト,,,CartoonStims/doctor_punch_chef_r.jpg,audio/pumipipohoreto.mp3,,,,,,,,,,,,,,,,,,,,,,,,,,,,,,,,,,,,,,,,,,,,,,,,,,,,,,,,,,,,,,,,,,,,,,,,,,
,,,,,,,,,R_3KNQJQzzHVvq2Py,2022-09-11_11h59.25.405,jpn_C03,2022.1.2,Win32,60.07088364,,,space,4.7153,0,6,6,21,1,トマ　ピポ　ルピン,,,CartoonStims/doctor_point_burglar_r.jpg,audio/tomapipolupin.mp3,,,,,,,,,,,,,,,,,,,,,,,,,,,,,,,,,,,,,,,,,,,,,,,,,,,,,,,,,,,,,,,,,,,,,,,,,,
,,,,,,,,,R_3KNQJQzzHVvq2Py,2022-09-11_11h59.25.405,jpn_C03,2022.1.2,Win32,60.07088364,,,space,8.9254,0,7,7,24,1,パツ　シド　ムク,,,CartoonStims/artist_shoot_cowboy_r.jpg,audio/patsusidomuku.mp3,,,,,,,,,,,,,,,,,,,,,,,,,,,,,,,,,,,,,,,,,,,,,,,,,,,,,,,,,,,,,,,,,,,,,,,,,,
,,,,,,,,,R_3KNQJQzzHVvq2Py,2022-09-11_11h59.25.405,jpn_C03,2022.1.2,Win32,60.07088364,,,space,3.6555,0,8,8,3,1,セル　ルピン　ムク,,,CartoonStims/burglar_kick_cowboy_r.jpg,audio/serulupinmuku.mp3,,,,,,,,,,,,,,,,,,,,,,,,,,,,,,,,,,,,,,,,,,,,,,,,,,,,,,,,,,,,,,,,,,,,,,,,,,
,,,,,,,,,R_3KNQJQzzHVvq2Py,2022-09-11_11h59.25.405,jpn_C03,2022.1.2,Win32,60.07088364,,,space,6.2804,0,9,9,30,1,パツ　ムク　シド,,,CartoonStims/cowboy_shoot_artist_r.jpg,audio/patsumukusido.mp3,,,,,,,,,,,,,,,,,,,,,,,,,,,,,,,,,,,,,,,,,,,,,,,,,,,,,,,,,,,,,,,,,,,,,,,,,,
,,,,,,,,,R_3KNQJQzzHVvq2Py,2022-09-11_11h59.25.405,jpn_C03,2022.1.2,Win32,60.07088364,,,space,18.4838,0,10,10,17,1,トマ　ホレト　ドキ,,,CartoonStims/chef_point_boxer_r.jpg,audio/tomahoretodoki.mp3,,,,,,,,,,,,,,,,,,,,,,,,,,,,,,,,,,,,,,,,,,,,,,,,,,,,,,,,,,,,,,,,,,,,,,,,,,
,,,,,,,,,R_3KNQJQzzHVvq2Py,2022-09-11_11h59.25.405,jpn_C03,2022.1.2,Win32,60.07088364,,,space,4.1928,0,11,11,16,1,トマ　ホレト　ピポ,,,CartoonStims/chef_point_doctor_r.jpg,audio/tomahoretopipo.mp3,,,,,,,,,,,,,,,,,,,,,,,,,,,,,,,,,,,,,,,,,,,,,,,,,,,,,,,,,,,,,,,,,,,,,,,,,,
,,,,,,,,,R_3KNQJQzzHVvq2Py,2022-09-11_11h59.25.405,jpn_C03,2022.1.2,Win32,60.07088364,,,space,6.3382,0,12,12,36,1,プミ　シド　ピポ,,,CartoonStims/artist_punch_doctor_r.jpg,audio/pumisidopipo.mp3,,,,,,,,,,,,,,,,,,,,,,,,,,,,,,,,,,,,,,,,,,,,,,,,,,,,,,,,,,,,,,,,,,,,,,,,,,
,,,,,,,,,R_3KNQJQzzHVvq2Py,2022-09-11_11h59.25.405,jpn_C03,2022.1.2,Win32,60.07088364,,,space,3.8428,0,13,13,0,1,セル　シド　ルピン,,,CartoonStims/artist_kick_burglar_r.jpg,audio/serusidolupin.mp3,,,,,,,,,,,,,,,,,,,,,,,,,,,,,,,,,,,,,,,,,,,,,,,,,,,,,,,,,,,,,,,,,,,,,,,,,,
,,,,,,,,,R_3KNQJQzzHVvq2Py,2022-09-11_11h59.25.405,jpn_C03,2022.1.2,Win32,60.07088364,,,space,4.3033,0,14,14,37,1,プミ　シド　ドキ,,,CartoonStims/artist_punch_boxer_r.jpg,audio/pumisidodoki.mp3,,,,,,,,,,,,,,,,,,,,,,,,,,,,,,,,,,,,,,,,,,,,,,,,,,,,,,,,,,,,,,,,,,,,,,,,,,
,,,,,,,,,R_3KNQJQzzHVvq2Py,2022-09-11_11h59.25.405,jpn_C03,2022.1.2,Win32,60.07088364,,,space,2.9048,0,15,15,5,1,セル　ホレト　ピポ,,,CartoonStims/chef_kick_doctor_r.jpg,audio/seruhoretopipo.mp3,,,,,,,,,,,,,,,,,,,,,,,,,,,,,,,,,,,,,,,,,,,,,,,,,,,,,,,,,,,,,,,,,,,,,,,,,,
,,,,,,,,,R_3KNQJQzzHVvq2Py,2022-09-11_11h59.25.405,jpn_C03,2022.1.2,Win32,60.07088364,,,space,3.0691,0,16,16,4,1,セル　ホレト　ムク,,,CartoonStims/chef_kick_cowboy_r.jpg,audio/seruhoretomuku.mp3,,,,,,,,,,,,,,,,,,,,,,,,,,,,,,,,,,,,,,,,,,,,,,,,,,,,,,,,,,,,,,,,,,,,,,,,,,
,,,,,,,,,R_3KNQJQzzHVvq2Py,2022-09-11_11h59.25.405,jpn_C03,2022.1.2,Win32,60.07088364,,,space,39.5374,0,17,17,1,1,セル 　シド 　ホレト,,,CartoonStims/artist_kick_chef_r.jpg,audio/serusidohoreto.mp3,,,,,,,,,,,,,,,,,,,,,,,,,,,,,,,,,,,,,,,,,,,,,,,,,,,,,,,,,,,,,,,,,,,,,,,,,,
,,,,,,,,,R_3KNQJQzzHVvq2Py,2022-09-11_11h59.25.405,jpn_C03,2022.1.2,Win32,60.07088364,,,space,2.6344,0,18,18,33,1,パツ　ピポ　ホレト,,,CartoonStims/doctor_shoot_chef_r.jpg,audio/patsupipohoreto.mp3,,,,,,,,,,,,,,,,,,,,,,,,,,,,,,,,,,,,,,,,,,,,,,,,,,,,,,,,,,,,,,,,,,,,,,,,,,
,,,,,,,,,R_3KNQJQzzHVvq2Py,2022-09-11_11h59.25.405,jpn_C03,2022.1.2,Win32,60.07088364,,,space,2.2078,0,19,19,7,1,セル　ムク　ドキ,,,CartoonStims/cowboy_kick_boxer_r.jpg,audio/serumukudoki.mp3,,,,,,,,,,,,,,,,,,,,,,,,,,,,,,,,,,,,,,,,,,,,,,,,,,,,,,,,,,,,,,,,,,,,,,,,,,
,,,,,,,,,R_3KNQJQzzHVvq2Py,2022-09-11_11h59.25.405,jpn_C03,2022.1.2,Win32,60.07088364,,,space,2.5403,0,20,20,32,1,パツ　ピポ　ルピン,,,CartoonStims/doctor_shoot_burglar_r.jpg,audio/patsupipolupin.mp3,,,,,,,,,,,,,,,,,,,,,,,,,,,,,,,,,,,,,,,,,,,,,,,,,,,,,,,,,,,,,,,,,,,,,,,,,,
,,,,,,,,,R_3KNQJQzzHVvq2Py,2022-09-11_11h59.25.405,jpn_C03,2022.1.2,Win32,60.07088364,,,space,3.177,0,21,21,29,1,パツ　ホレト　シド,,,CartoonStims/chef_shoot_artist_r.jpg,audio/patsuhoretosido.mp3,,,,,,,,,,,,,,,,,,,,,,,,,,,,,,,,,,,,,,,,,,,,,,,,,,,,,,,,,,,,,,,,,,,,,,,,,,
,,,,,,,,,R_3KNQJQzzHVvq2Py,2022-09-11_11h59.25.405,jpn_C03,2022.1.2,Win32,60.07088364,,,space,4.063,0,22,22,19,1,トマ　ムク　シド,,,CartoonStims/cowboy_point_artist_r.jpg,audio/tomamukusido.mp3,,,,,,,,,,,,,,,,,,,,,,,,,,,,,,,,,,,,,,,,,,,,,,,,,,,,,,,,,,,,,,,,,,,,,,,,,,
,,,,,,,,,R_3KNQJQzzHVvq2Py,2022-09-11_11h59.25.405,jpn_C03,2022.1.2,Win32,60.07088364,,,space,3.2324,0,23,23,14,1,トマ　ルピン　ムク,,,CartoonStims/burglar_point_cowboy_r.jpg,audio/tomalupinmuku.mp3,,,,,,,,,,,,,,,,,,,,,,,,,,,,,,,,,,,,,,,,,,,,,,,,,,,,,,,,,,,,,,,,,,,,,,,,,,
,,,,,,,,,R_3KNQJQzzHVvq2Py,2022-09-11_11h59.25.405,jpn_C03,2022.1.2,Win32,60.07088364,,,space,3.3714,0,24,24,15,1,トマ　ルピン　ピポ,,,CartoonStims/burglar_point_doctor_r.jpg,audio/tomalupinpipo.mp3,,,,,,,,,,,,,,,,,,,,,,,,,,,,,,,,,,,,,,,,,,,,,,,,,,,,,,,,,,,,,,,,,,,,,,,,,,
,,,,,,,,,R_3KNQJQzzHVvq2Py,2022-09-11_11h59.25.405,jpn_C03,2022.1.2,Win32,60.07088364,,,space,4.1968,0,25,25,41,1,プミ　ホレト　ルピン,,,CartoonStims/chef_punch_burglar_r.jpg,audio/pumihoretolupin.mp3,,,,,,,,,,,,,,,,,,,,,,,,,,,,,,,,,,,,,,,,,,,,,,,,,,,,,,,,,,,,,,,,,,,,,,,,,,
,,,,,,,,,R_3KNQJQzzHVvq2Py,2022-09-11_11h59.25.405,jpn_C03,2022.1.2,Win32,60.07088364,,,space,5.8822,0,26,26,2,1,セル 　ルピン 　ホレト,,,CartoonStims/burglar_kick_chef_r.jpg,audio/serulupinhoreto.mp3,,,,,,,,,,,,,,,,,,,,,,,,,,,,,,,,,,,,,,,,,,,,,,,,,,,,,,,,,,,,,,,,,,,,,,,,,,
,,,,,,,,,R_3KNQJQzzHVvq2Py,2022-09-11_11h59.25.405,jpn_C03,2022.1.2,Win32,60.07088364,,,space,4.441,0,27,27,27,1,パツ　ルピン　ドキ,,,CartoonStims/burglar_shoot_boxer_r.jpg,audio/patsulupindoki.mp3,,,,,,,,,,,,,,,,,,,,,,,,,,,,,,,,,,,,,,,,,,,,,,,,,,,,,,,,,,,,,,,,,,,,,,,,,,
,,,,,,,,,R_3KNQJQzzHVvq2Py,2022-09-11_11h59.25.405,jpn_C03,2022.1.2,Win32,60.07088364,,,space,5.1286,0,28,28,23,1,トマ　ドキ　ホレト,,,CartoonStims/boxer_point_chef_r.jpg,audio/tomadokihoreto.mp3,,,,,,,,,,,,,,,,,,,,,,,,,,,,,,,,,,,,,,,,,,,,,,,,,,,,,,,,,,,,,,,,,,,,,,,,,,
,,,,,,,,,R_3KNQJQzzHVvq2Py,2022-09-11_11h59.25.405,jpn_C03,2022.1.2,Win32,60.07088364,,,space,4.4344,0,29,29,6,1,セル　ムク　ピポ,,,CartoonStims/cowboy_kick_doctor_r.jpg,audio/serumukupipo.mp3,,,,,,,,,,,,,,,,,,,,,,,,,,,,,,,,,,,,,,,,,,,,,,,,,,,,,,,,,,,,,,,,,,,,,,,,,,
,,,,,,,,,R_3KNQJQzzHVvq2Py,2022-09-11_11h59.25.405,jpn_C03,2022.1.2,Win32,60.07088364,,,space,3.3028,0,30,30,11,1,セル　ドキ　ルピン,,,CartoonStims/boxer_kick_burglar_r.jpg,audio/serudokilupin.mp3,,,,,,,,,,,,,,,,,,,,,,,,,,,,,,,,,,,,,,,,,,,,,,,,,,,,,,,,,,,,,,,,,,,,,,,,,,
,,,,,,,,,R_3KNQJQzzHVvq2Py,2022-09-11_11h59.25.405,jpn_C03,2022.1.2,Win32,60.07088364,,,space,3.3214,0,31,31,20,1,トマ　ピポ　シド,,,CartoonStims/doctor_point_artist_r.jpg,audio/tomapiposido.mp3,,,,,,,,,,,,,,,,,,,,,,,,,,,,,,,,,,,,,,,,,,,,,,,,,,,,,,,,,,,,,,,,,,,,,,,,,,
,,,,,,,,,R_3KNQJQzzHVvq2Py,2022-09-11_11h59.25.405,jpn_C03,2022.1.2,Win32,60.07088364,,,space,5.2616,0,32,32,42,1,プミ　ムク　ルピン,,,CartoonStims/cowboy_punch_burglar_r.jpg,audio/pumimukulupin.mp3,,,,,,,,,,,,,,,,,,,,,,,,,,,,,,,,,,,,,,,,,,,,,,,,,,,,,,,,,,,,,,,,,,,,,,,,,,
,,,,,,,,,R_3KNQJQzzHVvq2Py,2022-09-11_11h59.25.405,jpn_C03,2022.1.2,Win32,60.07088364,,,space,4.3795,0,33,33,34,1,パツ　ドキ　ホレト,,,CartoonStims/boxer_shoot_chef_r.jpg,audio/patsudokihoreto.mp3,,,,,,,,,,,,,,,,,,,,,,,,,,,,,,,,,,,,,,,,,,,,,,,,,,,,,,,,,,,,,,,,,,,,,,,,,,
,,,,,,,,,R_3KNQJQzzHVvq2Py,2022-09-11_11h59.25.405,jpn_C03,2022.1.2,Win32,60.07088364,,,space,6.1332,0,34,34,38,1,プミ　ルピン　ドキ,,,CartoonStims/burglar_punch_boxer_r.jpg,audio/pumilupindoki.mp3,,,,,,,,,,,,,,,,,,,,,,,,,,,,,,,,,,,,,,,,,,,,,,,,,,,,,,,,,,,,,,,,,,,,,,,,,,
,,,,,,,,,R_3KNQJQzzHVvq2Py,2022-09-11_11h59.25.405,jpn_C03,2022.1.2,Win32,60.07088364,,,space,3.5511,0,35,35,13,1,トマ　シド　ムク,,,CartoonStims/artist_point_cowboy_r.jpg,audio/tomasidomuku.mp3,,,,,,,,,,,,,,,,,,,,,,,,,,,,,,,,,,,,,,,,,,,,,,,,,,,,,,,,,,,,,,,,,,,,,,,,,,
,,,,,,,,,R_3KNQJQzzHVvq2Py,2022-09-11_11h59.25.405,jpn_C03,2022.1.2,Win32,60.07088364,,,space,2.7044,0,36,36,28,1,パツ　ホレト　ドキ,,,CartoonStims/chef_shoot_boxer_r.jpg,audio/patsuhoretodoki.mp3,,,,,,,,,,,,,,,,,,,,,,,,,,,,,,,,,,,,,,,,,,,,,,,,,,,,,,,,,,,,,,,,,,,,,,,,,,
,,,,,,,,,R_3KNQJQzzHVvq2Py,2022-09-11_11h59.25.405,jpn_C03,2022.1.2,Win32,60.07088364,,,space,3.3432,0,37,37,18,1,トマ　ムク　ドキ,,,CartoonStims/cowboy_point_boxer_r.jpg,audio/tomamukudoki.mp3,,,,,,,,,,,,,,,,,,,,,,,,,,,,,,,,,,,,,,,,,,,,,,,,,,,,,,,,,,,,,,,,,,,,,,,,,,
,,,,,,,,,R_3KNQJQzzHVvq2Py,2022-09-11_11h59.25.405,jpn_C03,2022.1.2,Win32,60.07088364,,,space,2.3216,0,38,38,12,1,トマ　シド　ホレト,,,CartoonStims/artist_point_chef_r.jpg,audio/tomasidohoreto.mp3,,,,,,,,,,,,,,,,,,,,,,,,,,,,,,,,,,,,,,,,,,,,,,,,,,,,,,,,,,,,,,,,,,,,,,,,,,
,,,,,,,,,R_3KNQJQzzHVvq2Py,2022-09-11_11h59.25.405,jpn_C03,2022.1.2,Win32,60.07088364,,,space,4.2652,0,39,39,31,1,パツ　ムク　ルピン,,,CartoonStims/cowboy_shoot_burglar_r.jpg,audio/patsumukulupin.mp3,,,,,,,,,,,,,,,,,,,,,,,,,,,,,,,,,,,,,,,,,,,,,,,,,,,,,,,,,,,,,,,,,,,,,,,,,,
,,,,,,,,,R_3KNQJQzzHVvq2Py,2022-09-11_11h59.25.405,jpn_C03,2022.1.2,Win32,60.07088364,,,space,3.3323,0,40,40,10,1,セル　ドキ　シド,,,CartoonStims/boxer_kick_artist_r.jpg,audio/serudokisido.mp3,,,,,,,,,,,,,,,,,,,,,,,,,,,,,,,,,,,,,,,,,,,,,,,,,,,,,,,,,,,,,,,,,,,,,,,,,,
,,,,,,,,,R_3KNQJQzzHVvq2Py,2022-09-11_11h59.25.405,jpn_C03,2022.1.2,Win32,60.07088364,,,space,4.0355,0,41,41,43,1,プミ　ムク　ホレト,,,CartoonStims/cowboy_punch_chef_r.jpg,audio/pumimukuhoreto.mp3,,,,,,,,,,,,,,,,,,,,,,,,,,,,,,,,,,,,,,,,,,,,,,,,,,,,,,,,,,,,,,,,,,,,,,,,,,
,,,,,,,,,R_3KNQJQzzHVvq2Py,2022-09-11_11h59.25.405,jpn_C03,2022.1.2,Win32,60.07088364,,,space,2.8564,0,42,42,8,1,セル　ピポ　ドキ,,,CartoonStims/doctor_kick_boxer_r.jpg,audio/serupipodoki.mp3,,,,,,,,,,,,,,,,,,,,,,,,,,,,,,,,,,,,,,,,,,,,,,,,,,,,,,,,,,,,,,,,,,,,,,,,,,
,,,,,,,,,R_3KNQJQzzHVvq2Py,2022-09-11_11h59.25.405,jpn_C03,2022.1.2,Win32,60.07088364,,,space,2.4989,0,43,43,46,1,プミ　ドキ　ムク,,,CartoonStims/boxer_punch_cowboy_r.jpg,audio/pumidokimuku.mp3,,,,,,,,,,,,,,,,,,,,,,,,,,,,,,,,,,,,,,,,,,,,,,,,,,,,,,,,,,,,,,,,,,,,,,,,,,
,,,,,,,,,R_3KNQJQzzHVvq2Py,2022-09-11_11h59.25.405,jpn_C03,2022.1.2,Win32,60.07088364,,,space,6.1447,0,44,44,25,1,パツ　シド　ピポ,,,CartoonStims/artist_shoot_doctor_r.jpg,audio/patsusidopipo.mp3,,,,,,,,,,,,,,,,,,,,,,,,,,,,,,,,,,,,,,,,,,,,,,,,,,,,,,,,,,,,,,,,,,,,,,,,,,
,,,,,,,,,R_3KNQJQzzHVvq2Py,2022-09-11_11h59.25.405,jpn_C03,2022.1.2,Win32,60.07088364,,,space,3.1004,0,45,45,39,1,プミ　ルピン　シド,,,CartoonStims/burglar_punch_artist_r.jpg,audio/pumilupinsido.mp3,,,,,,,,,,,,,,,,,,,,,,,,,,,,,,,,,,,,,,,,,,,,,,,,,,,,,,,,,,,,,,,,,,,,,,,,,,
,,,,,,,,,R_3KNQJQzzHVvq2Py,2022-09-11_11h59.25.405,jpn_C03,2022.1.2,Win32,60.07088364,,,space,5.0126,0,46,46,40,1,プミ　ホレト　シド,,,CartoonStims/chef_punch_artist_r.jpg,audio/pumihoretosido.mp3,,,,,,,,,,,,,,,,,,,,,,,,,,,,,,,,,,,,,,,,,,,,,,,,,,,,,,,,,,,,,,,,,,,,,,,,,,
,,,,,,,,,R_3KNQJQzzHVvq2Py,2022-09-11_11h59.25.405,jpn_C03,2022.1.2,Win32,60.07088364,,,space,2.4337,0,47,47,47,1,プミ　ドキ　ピポ,,,CartoonStims/boxer_punch_doctor_r.jpg,audio/pumidokipipo.mp3,,,,,,,,,,,,,,,,,,,,,,,,,,,,,,,,,,,,,,,,,,,,,,,,,,,,,,,,,,,,,,,,,,,,,,,,,,
,,,,,,,,,R_3KNQJQzzHVvq2Py,2022-09-11_11h59.25.405,jpn_C03,2022.1.2,Win32,60.07088364,,,,,,,,,,,,,,,space,2.8201,right,1,5.4786,0,0,0,0,1,,,,,,,,,,,,,,,,,,,,,,,,,,,,,,,,,,,,,,,,,,,,,,,,,,,,,,,,,,,,,,,,
,,,,,,,,,R_3KNQJQzzHVvq2Py,2022-09-11_11h59.25.405,jpn_C03,2022.1.2,Win32,60.07088364,,,,,,,,,,,,,,,,,,,,,,,,,0,0,0,5,1,CartoonStims/cowboy_point_chef_r.jpg,パツ　ムク　ホレト,CartoonStims/cowboy_shoot_chef_r.jpg,right,CartoonStims/cowboy_shoot_chef_r.jpg,audio/patsumukuhoreto.mp3,残念！ こちらが正しい画像です。,,,,,,,,,,,,,,,,,,,,,,,,,,,,,,,,,,,,,,,,,,,,,,,,,,,,
,,,,,,,,,R_3KNQJQzzHVvq2Py,2022-09-11_11h59.25.405,jpn_C03,2022.1.2,Win32,60.07088364,,,,,,,,,,,,,,,,,right,1,2.137,0,0,0,0,1,,,,,,,,,,,,,,,,,,,,,,,,,,,,,,,,,,,,,,,,,,,,,,,,,,,,,,,,,,,,,,,,
,,,,,,,,,R_3KNQJQzzHVvq2Py,2022-09-11_11h59.25.405,jpn_C03,2022.1.2,Win32,60.07088364,,,,,,,,,,,,,,,,,,,,,,,,,0,1,1,7,1,CartoonStims/artist_punch_cowboy_r.jpg,セル　シド　ムク,CartoonStims/artist_kick_cowboy_r.jpg,right,CartoonStims/artist_kick_cowboy_r.jpg,audio/serusidomuku.mp3,残念！ こちらが正しい画像です。,,,,,,,,,,,,,,,,,,,,,,,,,,,,,,,,,,,,,,,,,,,,,,,,,,,,
,,,,,,,,,R_3KNQJQzzHVvq2Py,2022-09-11_11h59.25.405,jpn_C03,2022.1.2,Win32,60.07088364,,,,,,,,,,,,,,,,,right,1,3.6545,0,0,0,0,1,,,,,,,,,,,,,,,,,,,,,,,,,,,,,,,,,,,,,,,,,,,,,,,,,,,,,,,,,,,,,,,,
,,,,,,,,,R_3KNQJQzzHVvq2Py,2022-09-11_11h59.25.405,jpn_C03,2022.1.2,Win32,60.07088364,,,,,,,,,,,,,,,,,,,,,,,,,0,2,2,1,1,CartoonStims/chef_point_burglar_r.jpg,トマ　ホレト　シド,CartoonStims/chef_point_artist_r.jpg,right,CartoonStims/chef_point_artist_r.jpg,audio/tomahoretosido.mp3,残念！ こちらが正しい画像です。,,,,,,,,,,,,,,,,,,,,,,,,,,,,,,,,,,,,,,,,,,,,,,,,,,,,
,,,,,,,,,R_3KNQJQzzHVvq2Py,2022-09-11_11h59.25.405,jpn_C03,2022.1.2,Win32,60.07088364,,,,,,,,,,,,,,,,,left,1,2.3544,,,,,,,,,,,,,,,,,,0,0,0,0,1,,,,,,,,,,,,,,,,,,,,,,,,,,,,,,,,,,,,,,,,,,,,,,,
,,,,,,,,,R_3KNQJQzzHVvq2Py,2022-09-11_11h59.25.405,jpn_C03,2022.1.2,Win32,60.07088364,,,,,,,,,,,,,,,,,,,,,,,,,0,3,3,4,1,CartoonStims/burglar_point_boxer_r.jpg,トマ　ルピン　ドキ,CartoonStims/burglar_kick_boxer_r.jpg,left,CartoonStims/burglar_point_boxer_r.jpg,audio/tomalupindoki.mp3,残念！ こちらが正しい画像です。,,,,,,,,,,,,,,,,,,,,,,,,,,,,,,,,,,,,,,,,,,,,,,,,,,,,
,,,,,,,,,R_3KNQJQzzHVvq2Py,2022-09-11_11h59.25.405,jpn_C03,2022.1.2,Win32,60.07088364,,,,,,,,,,,,,,,,,right,1,5.2633,0,0,0,0,1,,,,,,,,,,,,,,,,,,,,,,,,,,,,,,,,,,,,,,,,,,,,,,,,,,,,,,,,,,,,,,,,
,,,,,,,,,R_3KNQJQzzHVvq2Py,2022-09-11_11h59.25.405,jpn_C03,2022.1.2,Win32,60.07088364,,,,,,,,,,,,,,,,,,,,,,,,,0,4,4,9,1,CartoonStims/chef_kick_artist_r.jpg,セル　ムク　シド,CartoonStims/cowboy_kick_artist_r.jpg,right,CartoonStims/cowboy_kick_artist_r.jpg,audio/serumukusido.mp3,残念！ こちらが正しい画像です。,,,,,,,,,,,,,,,,,,,,,,,,,,,,,,,,,,,,,,,,,,,,,,,,,,,,
,,,,,,,,,R_3KNQJQzzHVvq2Py,2022-09-11_11h59.25.405,jpn_C03,2022.1.2,Win32,60.07088364,,,,,,,,,,,,,,,,,right,1,4.0314,0,0,0,0,1,,,,,,,,,,,,,,,,,,,,,,,,,,,,,,,,,,,,,,,,,,,,,,,,,,,,,,,,,,,,,,,,
,,,,,,,,,R_3KNQJQzzHVvq2Py,2022-09-11_11h59.25.405,jpn_C03,2022.1.2,Win32,60.07088364,,,,,,,,,,,,,,,,,,,,,,,,,0,5,5,3,1,CartoonStims/cowboy_punch_doctor_r.jpg,プミ　ムク　ドキ,CartoonStims/cowboy_punch_boxer_r.jpg,right,CartoonStims/cowboy_punch_boxer_r.jpg,audio/pumimukudoki.mp3,残念！ こちらが正しい画像です。,,,,,,,,,,,,,,,,,,,,,,,,,,,,,,,,,,,,,,,,,,,,,,,,,,,,
,,,,,,,,,R_3KNQJQzzHVvq2Py,2022-09-11_11h59.25.405,jpn_C03,2022.1.2,Win32,60.07088364,,,,,,,,,,,,,,,,,right,1,2.0393,0,0,0,0,1,,,,,,,,,,,,,,,,,,,,,,,,,,,,,,,,,,,,,,,,,,,,,,,,,,,,,,,,,,,,,,,,
,,,,,,,,,R_3KNQJQzzHVvq2Py,2022-09-11_11h59.25.405,jpn_C03,2022.1.2,Win32,60.07088364,,,,,,,,,,,,,,,,,,,,,,,,,0,6,6,11,1,CartoonStims/burglar_punch_cowboy_r.jpg,プミ　ホレト　ムク,CartoonStims/chef_punch_cowboy_r.jpg,right,CartoonStims/chef_punch_cowboy_r.jpg,audio/pumihoretomuku.mp3,残念！ こちらが正しい画像です。,,,,,,,,,,,,,,,,,,,,,,,,,,,,,,,,,,,,,,,,,,,,,,,,,,,,
,,,,,,,,,R_3KNQJQzzHVvq2Py,2022-09-11_11h59.25.405,jpn_C03,2022.1.2,Win32,60.07088364,,,,,,,,,,,,,,,,,left,1,3.2091,,,,,,,,,,,,,,,,,,0,0,0,0,1,,,,,,,,,,,,,,,,,,,,,,,,,,,,,,,,,,,,,,,,,,,,,,,
,,,,,,,,,R_3KNQJQzzHVvq2Py,2022-09-11_11h59.25.405,jpn_C03,2022.1.2,Win32,60.07088364,,,,,,,,,,,,,,,,,,,,,,,,,0,7,7,8,1,CartoonStims/doctor_point_cowboy_r.jpg,トマ　ピポ　ムク,CartoonStims/boxer_point_cowboy_r.jpg,left,CartoonStims/doctor_point_cowboy_r.jpg,audio/tomapipomuku.mp3,残念！ こちらが正しい画像です。,,,,,,,,,,,,,,,,,,,,,,,,,,,,,,,,,,,,,,,,,,,,,,,,,,,,
,,,,,,,,,R_3KNQJQzzHVvq2Py,2022-09-11_11h59.25.405,jpn_C03,2022.1.2,Win32,60.07088364,,,,,,,,,,,,,,,,,left,1,2.001,,,,,,,,,,,,,,,,,,0,0,0,0,1,,,,,,,,,,,,,,,,,,,,,,,,,,,,,,,,,,,,,,,,,,,,,,,
,,,,,,,,,R_3KNQJQzzHVvq2Py,2022-09-11_11h59.25.405,jpn_C03,2022.1.2,Win32,60.07088364,,,,,,,,,,,,,,,,,,,,,,,,,0,8,8,0,1,CartoonStims/doctor_kick_burglar_r.jpg,セル　ピポ　ルピン,CartoonStims/doctor_kick_chef_r.jpg,left,CartoonStims/doctor_kick_burglar_r.jpg,audio/serupipolupin.mp3,残念！ こちらが正しい画像です。,,,,,,,,,,,,,,,,,,,,,,,,,,,,,,,,,,,,,,,,,,,,,,,,,,,,
,,,,,,,,,R_3KNQJQzzHVvq2Py,2022-09-11_11h59.25.405,jpn_C03,2022.1.2,Win32,60.07088364,,,,,,,,,,,,,,,,,left,1,10.7627,,,,,,,,,,,,,,,,,,0,0,0,0,1,,,,,,,,,,,,,,,,,,,,,,,,,,,,,,,,,,,,,,,,,,,,,,,
,,,,,,,,,R_3KNQJQzzHVvq2Py,2022-09-11_11h59.25.405,jpn_C03,2022.1.2,Win32,60.07088364,,,,,,,,,,,,,,,,,,,,,,,,,0,9,9,6,1,CartoonStims/doctor_punch_boxer_r.jpg,プミ　ピポ　ドキ,CartoonStims/doctor_shoot_boxer_r.jpg,left,CartoonStims/doctor_punch_boxer_r.jpg,audio/pumipipodoki.mp3,残念！ こちらが正しい画像です。,,,,,,,,,,,,,,,,,,,,,,,,,,,,,,,,,,,,,,,,,,,,,,,,,,,,
,,,,,,,,,R_3KNQJQzzHVvq2Py,2022-09-11_11h59.25.405,jpn_C03,2022.1.2,Win32,60.07088364,,,,,,,,,,,,,,,,,right,0,5.0525,,,,,,,,,,,,,,,,,,,,,,,,,,,,,,,,,,,,,,,,,,,,,,,,,,,,,,,,,0,0,0,0,1,,,,,,,,
,,,,,,,,,R_3KNQJQzzHVvq2Py,2022-09-11_11h59.25.405,jpn_C03,2022.1.2,Win32,60.07088364,,,,,,,,,,,,,,,,,,,,,,,,,0,10,10,2,1,CartoonStims/boxer_shoot_doctor_r.jpg,パツ　ドキ　ピポ,CartoonStims/boxer_shoot_artist_r.jpg,left,CartoonStims/boxer_shoot_doctor_r.jpg,audio/patsudokipipo.mp3,残念！ こちらが正しい画像です。,,,,,,,,,,,,,,,,,,,,,,,,,,,,,,,,,,,,,,,,,,,,,,,,,,,,
,,,,,,,,,R_3KNQJQzzHVvq2Py,2022-09-11_11h59.25.405,jpn_C03,2022.1.2,Win32,60.07088364,,,,,,,,,,,,,,,,,left,1,4.4129,,,,,,,,,,,,,,,,,,0,0,0,0,1,,,,,,,,,,,,,,,,,,,,,,,,,,,,,,,,,,,,,,,,,,,,,,,
,,,,,,,,,R_3KNQJQzzHVvq2Py,2022-09-11_11h59.25.405,jpn_C03,2022.1.2,Win32,60.07088364,,,,,,,,,,,,,,,,,,,,,,,,,0,11,11,10,1,CartoonStims/artist_shoot_burglar_r.jpg,パツ　シド　ルピン,CartoonStims/chef_shoot_burglar_r.jpg,left,CartoonStims/artist_shoot_burglar_r.jpg,audio/patsusidolupin.mp3,残念！ こちらが正しい画像です。,,,,,,,,,,,,,,,,,,,,,,,,,,,,,,,,,,,,,,,,,,,,,,,,,,,,
,,,,,,,,,R_3KNQJQzzHVvq2Py,2022-09-11_11h59.25.405,jpn_C03,2022.1.2,Win32,60.07088364,,,,,,,,,,,,,,,,,,,,,,,,,,,,,,,,,,,,,,,,,,space,5.0384,パツ　ルピン　ホレト,right,43.0631,0,0,0,0,1,,,,,,,,,,,,,,,,,,,,,,,,,,,,,,,,,,,,,
,,,,,,,,,R_3KNQJQzzHVvq2Py,2022-09-11_11h59.25.405,jpn_C03,2022.1.2,Win32,60.07088364,,,,,,,,,,,,,CartoonStims/burglar_shoot_chef_r.jpg,audio/patsulupinhoreto.mp3,,,,,,,,,,,,,,,,,,,,,,,,,,,,,,,,,,,,,,0,0,0,6,1,パツ　ルピン　ホレト,,,,,,,,,,,,,,,,,,,,,,,,,,,,,,,
,,,,,,,,,R_3KNQJQzzHVvq2Py,2022-09-11_11h59.25.405,jpn_C03,2022.1.2,Win32,60.07088364,,,,,,,,,,,,,,,,,,,,,,,,,,,,,,,,,,,,,,,,,,,,ドキ　シド,right,15.8521,0,0,0,0,1,,,,,,,,,,,,,,,,,,,,,,,,,,,,,,,,,,,,,
,,,,,,,,,R_3KNQJQzzHVvq2Py,2022-09-11_11h59.25.405,jpn_C03,2022.1.2,Win32,60.07088364,,,,,,,,,,,,,CartoonStims/boxer_kick_cowboy_r.jpg,audio/serudokimuku.mp3,,,,,,,,,,,,,,,,,,,,,,,,,,,,,,,,,,,,,,0,1,1,2,1,セル　ドキ　ムク,,,,,,,,,,,,,,,,,,,,,,,,,,,,,,,
,,,,,,,,,R_3KNQJQzzHVvq2Py,2022-09-11_11h59.25.405,jpn_C03,2022.1.2,Win32,60.07088364,,,,,,,,,,,,,,,,,,,,,,,,,,,,,,,,,,,,,,,,,,,,セル　シド　ルピン,right,14.0377,0,0,0,0,1,,,,,,,,,,,,,,,,,,,,,,,,,,,,,,,,,,,,,
,,,,,,,,,R_3KNQJQzzHVvq2Py,2022-09-11_11h59.25.405,jpn_C03,2022.1.2,Win32,60.07088364,,,,,,,,,,,,,CartoonStims/cowboy_kick_burglar_r.jpg,audio/serumukulupin.mp3,,,,,,,,,,,,,,,,,,,,,,,,,,,,,,,,,,,,,,0,2,2,0,1,セル　ムク　ルピン,,,,,,,,,,,,,,,,,,,,,,,,,,,,,,,
,,,,,,,,,R_3KNQJQzzHVvq2Py,2022-09-11_11h59.25.405,jpn_C03,2022.1.2,Win32,60.07088364,,,,,,,,,,,,,,,,,,,,,,,,,,,,,,,,,,,,,,,,,,,,セル　シド　ホレト,right,9.9443,0,0,0,0,1,,,,,,,,,,,,,,,,,,,,,,,,,,,,,,,,,,,,,
,,,,,,,,,R_3KNQJQzzHVvq2Py,2022-09-11_11h59.25.405,jpn_C03,2022.1.2,Win32,60.07088364,,,,,,,,,,,,,CartoonStims/doctor_kick_chef_r.jpg,audio/serupipohoreto.mp3,,,,,,,,,,,,,,,,,,,,,,,,,,,,,,,,,,,,,,0,3,3,1,1,セル　ピポ　ホレト,,,,,,,,,,,,,,,,,,,,,,,,,,,,,,,
,,,,,,,,,R_3KNQJQzzHVvq2Py,2022-09-11_11h59.25.405,jpn_C03,2022.1.2,Win32,60.07088364,,,,,,,,,,,,,,,,,,,,,,,,,,,,,,,,,,,,,,,,,,,,パツ　シド　ムク,right,16.1026,0,0,0,0,1,,,,,,,,,,,,,,,,,,,,,,,,,,,,,,,,,,,,,
,,,,,,,,,R_3KNQJQzzHVvq2Py,2022-09-11_11h59.25.405,jpn_C03,2022.1.2,Win32,60.07088364,,,,,,,,,,,,,CartoonStims/cowboy_shoot_doctor_r.jpg,audio/patsumukupipo.mp3,,,,,,,,,,,,,,,,,,,,,,,,,,,,,,,,,,,,,,0,4,4,8,1,パツ　ムク　ピポ,,,,,,,,,,,,,,,,,,,,,,,,,,,,,,,
,,,,,,,,,R_3KNQJQzzHVvq2Py,2022-09-11_11h59.25.405,jpn_C03,2022.1.2,Win32,60.07088364,,,,,,,,,,,,,,,,,,,,,,,,,,,,,,,,,,,,,,,,,,,,トマ　ホレト　ルピン,right,12.9725,0,0,0,0,1,,,,,,,,,,,,,,,,,,,,,,,,,,,,,,,,,,,,,
,,,,,,,,,R_3KNQJQzzHVvq2Py,2022-09-11_11h59.25.405,jpn_C03,2022.1.2,Win32,60.07088364,,,,,,,,,,,,,CartoonStims/chef_point_burglar_r.jpg,audio/tomahoretolupin.mp3,,,,,,,,,,,,,,,,,,,,,,,,,,,,,,,,,,,,,,0,5,5,5,1,トマ　ホレト　ルピン,,,,,,,,,,,,,,,,,,,,,,,,,,,,,,,
,,,,,,,,,R_3KNQJQzzHVvq2Py,2022-09-11_11h59.25.405,jpn_C03,2022.1.2,Win32,60.07088364,,,,,,,,,,,,,,,,,,,,,,,,,,,,,,,,,,,,,,,,,,,,トマ　ルピン　シド,right,21.0642,0,0,0,0,1,,,,,,,,,,,,,,,,,,,,,,,,,,,,,,,,,,,,,
,,,,,,,,,R_3KNQJQzzHVvq2Py,2022-09-11_11h59.25.405,jpn_C03,2022.1.2,Win32,60.07088364,,,,,,,,,,,,,CartoonStims/burglar_point_artist_r.jpg,audio/tomalupinsido.mp3,,,,,,,,,,,,,,,,,,,,,,,,,,,,,,,,,,,,,,0,6,6,4,1,トマ　ルピン　シド,,,,,,,,,,,,,,,,,,,,,,,,,,,,,,,
,,,,,,,,,R_3KNQJQzzHVvq2Py,2022-09-11_11h59.25.405,jpn_C03,2022.1.2,Win32,60.07088364,,,,,,,,,,,,,,,,,,,,,,,,,,,,,,,,,,,,,,,,,,,,パツ　ホレト　シド,right,15.2372,0,0,0,0,1,,,,,,,,,,,,,,,,,,,,,,,,,,,,,,,,,,,,,
,,,,,,,,,R_3KNQJQzzHVvq2Py,2022-09-11_11h59.25.405,jpn_C03,2022.1.2,Win32,60.07088364,,,,,,,,,,,,,CartoonStims/chef_shoot_cowboy_r.jpg,audio/patsuhoretomuku.mp3,,,,,,,,,,,,,,,,,,,,,,,,,,,,,,,,,,,,,,0,7,7,7,1,パツ　ホレト　ムク,,,,,,,,,,,,,,,,,,,,,,,,,,,,,,,
,,,,,,,,,R_3KNQJQzzHVvq2Py,2022-09-11_11h59.25.405,jpn_C03,2022.1.2,Win32,60.07088364,,,,,,,,,,,,,,,,,,,,,,,,,,,,,,,,,,,,,,,,,,,,シド　ルピン,right,32.1266,0,0,0,0,1,,,,,,,,,,,,,,,,,,,,,,,,,,,,,,,,,,,,,
,,,,,,,,,R_3KNQJQzzHVvq2Py,2022-09-11_11h59.25.405,jpn_C03,2022.1.2,Win32,60.07088364,,,,,,,,,,,,,CartoonStims/artist_punch_burglar_r.jpg,audio/pumisidolupin.mp3,,,,,,,,,,,,,,,,,,,,,,,,,,,,,,,,,,,,,,0,8,8,9,1,プミ　シド　ルピン,,,,,,,,,,,,,,,,,,,,,,,,,,,,,,,
,,,,,,,,,R_3KNQJQzzHVvq2Py,2022-09-11_11h59.25.405,jpn_C03,2022.1.2,Win32,60.07088364,,,,,,,,,,,,,,,,,,,,,,,,,,,,,,,,,,,,,,,,,,,,プミ　ドキ　ムク,right,12.1897,0,0,0,0,1,,,,,,,,,,,,,,,,,,,,,,,,,,,,,,,,,,,,,
,,,,,,,,,R_3KNQJQzzHVvq2Py,2022-09-11_11h59.25.405,jpn_C03,2022.1.2,Win32,60.07088364,,,,,,,,,,,,,CartoonStims/boxer_punch_artist_r.jpg,audio/pumidokisido.mp3,,,,,,,,,,,,,,,,,,,,,,,,,,,,,,,,,,,,,,0,9,9,11,1,プミ　ドキ　シド,,,,,,,,,,,,,,,,,,,,,,,,,,,,,,,
,,,,,,,,,R_3KNQJQzzHVvq2Py,2022-09-11_11h59.25.405,jpn_C03,2022.1.2,Win32,60.07088364,,,,,,,,,,,,,,,,,,,,,,,,,,,,,,,,,,,,,,,,,,,,トマ　シド　ドキ,right,29.2734,0,0,0,0,1,,,,,,,,,,,,,,,,,,,,,,,,,,,,,,,,,,,,,
,,,,,,,,,R_3KNQJQzzHVvq2Py,2022-09-11_11h59.25.405,jpn_C03,2022.1.2,Win32,60.07088364,,,,,,,,,,,,,CartoonStims/artist_point_boxer_r.jpg,audio/tomasidodoki.mp3,,,,,,,,,,,,,,,,,,,,,,,,,,,,,,,,,,,,,,0,10,10,3,1,トマ　シド　ドキ,,,,,,,,,,,,,,,,,,,,,,,,,,,,,,,
,,,,,,,,,R_3KNQJQzzHVvq2Py,2022-09-11_11h59.25.405,jpn_C03,2022.1.2,Win32,60.07088364,,,,,,,,,,,,,,,,,,,,,,,,,,,,,,,,,,,,,,,,,,,,プミ　ムク　ドキ,right,15.7125,0,0,0,0,1,,,,,,,,,,,,,,,,,,,,,,,,,,,,,,,,,,,,,
,,,,,,,,,R_3KNQJQzzHVvq2Py,2022-09-11_11h59.25.405,jpn_C03,2022.1.2,Win32,60.07088364,,,,,,,,,,,,,CartoonStims/doctor_punch_boxer_r.jpg,audio/pumipipodoki.mp3,,,,,,,,,,,,,,,,,,,,,,,,,,,,,,,,,,,,,,0,11,11,10,1,プミ　ピポ　ドキ,,,,,,,,,,,,,,,,,,,,,,,,,,,,,,,
,,,,,,,,,R_3KNQJQzzHVvq2Py,2022-09-11_11h59.25.405,jpn_C03,2022.1.2,Win32,60.07088364,,,,,,,,,,,,,,,,,,,,,,,,,,,,,,,,,,,,,,,,,,,,,,,,,,,,,,,,,,,space,4.0286,0,1,1,1,1,AffExposure.xlsx,"第二のトライアルの学習では、この言語で書かれた文を見ていただきます。引き続き注意して、 聞こえた音を復唱してください。


スペースキーを押してください。",1,AffFCT.xlsx,ここからクイズが始まります。 スクリーンに表示されるテキストに合う画像を選んでください。,AffTest.xlsx,1,次にここまで学んだことをアウトプットしていただきます。 表示される画像を描写していると思う単語を、テキストボックスにタイプしてください。 答えを提出したあとに正しい正解が少しの間画面に写ります。,1,"これで第二のトライアルが終了しました。 ここで休憩をとっていただいても構いません。

休憩が終わりましたら、 スペースキーを押して続きの学習を行いましょう。",,,,,,,,,,,,,
,,,,,,,,,R_3KNQJQzzHVvq2Py,2022-09-11_11h59.25.405,jpn_C03,2022.1.2,Win32,60.07088364,space,4.3495,space,21.4031,0,0,0,4,1,ピク　セル　ホレト　ムク,,,CartoonStims/chef_kick_cowboy_r_no.jpg,audio/pikuseruhoretomuku.mp3,,,,,,,,,,,,,,,,,,,,,,,,,,,,,,,,,,,,,,,,,,,,,,,,,,,,,,,,,,,,,,,,,,,,,,,,,,
,,,,,,,,,R_3KNQJQzzHVvq2Py,2022-09-11_11h59.25.405,jpn_C03,2022.1.2,Win32,60.07088364,,,space,7.9996,0,1,1,12,1,トマ　ピク　シド　ホレト,,,CartoonStims/artist_point_chef_r_no.jpg,audio/tomapikusidohoreto.mp3,,,,,,,,,,,,,,,,,,,,,,,,,,,,,,,,,,,,,,,,,,,,,,,,,,,,,,,,,,,,,,,,,,,,,,,,,,
,,,,,,,,,R_3KNQJQzzHVvq2Py,2022-09-11_11h59.25.405,jpn_C03,2022.1.2,Win32,60.07088364,,,space,6.1491,0,2,2,30,1,パツ　ピク　ムク　シド,,,CartoonStims/cowboy_shoot_artist_r_no.jpg,audio/patsupikumukusido.mp3,,,,,,,,,,,,,,,,,,,,,,,,,,,,,,,,,,,,,,,,,,,,,,,,,,,,,,,,,,,,,,,,,,,,,,,,,,
,,,,,,,,,R_3KNQJQzzHVvq2Py,2022-09-11_11h59.25.405,jpn_C03,2022.1.2,Win32,60.07088364,,,space,5.3018,0,3,3,45,1,プミ　ピク　ピポ　ムク,,,CartoonStims/doctor_punch_cowboy_r_no.jpg,audio/pumipikupipomuku.mp3,,,,,,,,,,,,,,,,,,,,,,,,,,,,,,,,,,,,,,,,,,,,,,,,,,,,,,,,,,,,,,,,,,,,,,,,,,
,,,,,,,,,R_3KNQJQzzHVvq2Py,2022-09-11_11h59.25.405,jpn_C03,2022.1.2,Win32,60.07088364,,,space,5.9833,0,4,4,33,1,パツ　ピク　ピポ　ホレト,,,CartoonStims/doctor_shoot_chef_r_no.jpg,audio/patsupikupipohoreto.mp3,,,,,,,,,,,,,,,,,,,,,,,,,,,,,,,,,,,,,,,,,,,,,,,,,,,,,,,,,,,,,,,,,,,,,,,,,,
,,,,,,,,,R_3KNQJQzzHVvq2Py,2022-09-11_11h59.25.405,jpn_C03,2022.1.2,Win32,60.07088364,,,space,5.0627,0,5,5,21,1,トマ　ピク　ピポ　ルピン,,,CartoonStims/doctor_point_burglar_r_no.jpg,audio/tomapikupipolupin.mp3,,,,,,,,,,,,,,,,,,,,,,,,,,,,,,,,,,,,,,,,,,,,,,,,,,,,,,,,,,,,,,,,,,,,,,,,,,
,,,,,,,,,R_3KNQJQzzHVvq2Py,2022-09-11_11h59.25.405,jpn_C03,2022.1.2,Win32,60.07088364,,,space,12.6969,0,6,6,23,1,ピク　トマ　ドキ　ホレト,,,CartoonStims/boxer_point_chef_r_no.jpg,audio/pikutomadokihoreto.mp3,,,,,,,,,,,,,,,,,,,,,,,,,,,,,,,,,,,,,,,,,,,,,,,,,,,,,,,,,,,,,,,,,,,,,,,,,,
,,,,,,,,,R_3KNQJQzzHVvq2Py,2022-09-11_11h59.25.405,jpn_C03,2022.1.2,Win32,60.07088364,,,space,8.6434,0,7,7,15,1,ピク　トマ　ルピン　ピポ,,,CartoonStims/burglar_point_doctor_r_no.jpg,audio/pikutomalupinpipo.mp3,,,,,,,,,,,,,,,,,,,,,,,,,,,,,,,,,,,,,,,,,,,,,,,,,,,,,,,,,,,,,,,,,,,,,,,,,,
,,,,,,,,,R_3KNQJQzzHVvq2Py,2022-09-11_11h59.25.405,jpn_C03,2022.1.2,Win32,60.07088364,,,space,7.9605,0,8,8,6,1,セル　ピク　ムク　ピポ,,,CartoonStims/cowboy_kick_doctor_r_no.jpg,audio/serupikumukupipo.mp3,,,,,,,,,,,,,,,,,,,,,,,,,,,,,,,,,,,,,,,,,,,,,,,,,,,,,,,,,,,,,,,,,,,,,,,,,,
,,,,,,,,,R_3KNQJQzzHVvq2Py,2022-09-11_11h59.25.405,jpn_C03,2022.1.2,Win32,60.07088364,,,space,7.0133,0,9,9,40,1,プミ　ピク　ホレト　シド,,,CartoonStims/chef_punch_artist_r_no.jpg,audio/pumipikuhoretosido.mp3,,,,,,,,,,,,,,,,,,,,,,,,,,,,,,,,,,,,,,,,,,,,,,,,,,,,,,,,,,,,,,,,,,,,,,,,,,
,,,,,,,,,R_3KNQJQzzHVvq2Py,2022-09-11_11h59.25.405,jpn_C03,2022.1.2,Win32,60.07088364,,,space,5.1281,0,10,10,34,1,パツ　ピク　ドキ　ホレト,,,CartoonStims/boxer_shoot_chef_r_no.jpg,audio/patsupikudokihoreto.mp3,,,,,,,,,,,,,,,,,,,,,,,,,,,,,,,,,,,,,,,,,,,,,,,,,,,,,,,,,,,,,,,,,,,,,,,,,,
,,,,,,,,,R_3KNQJQzzHVvq2Py,2022-09-11_11h59.25.405,jpn_C03,2022.1.2,Win32,60.07088364,,,space,5.2348,0,11,11,3,1,セル　ピク　ルピン　ムク,,,CartoonStims/burglar_kick_cowboy_r_no.jpg,audio/serupikulupinmuku.mp3,,,,,,,,,,,,,,,,,,,,,,,,,,,,,,,,,,,,,,,,,,,,,,,,,,,,,,,,,,,,,,,,,,,,,,,,,,
,,,,,,,,,R_3KNQJQzzHVvq2Py,2022-09-11_11h59.25.405,jpn_C03,2022.1.2,Win32,60.07088364,,,space,4.0633,0,12,12,31,1,パツ　ピク　ムク　ルピン,,,CartoonStims/cowboy_shoot_burglar_r_no.jpg,audio/patsupikumukulupin.mp3,,,,,,,,,,,,,,,,,,,,,,,,,,,,,,,,,,,,,,,,,,,,,,,,,,,,,,,,,,,,,,,,,,,,,,,,,,
,,,,,,,,,R_3KNQJQzzHVvq2Py,2022-09-11_11h59.25.405,jpn_C03,2022.1.2,Win32,60.07088364,,,space,10.8596,0,13,13,42,1,ピク　プミ　ムク　ルピン,,,CartoonStims/cowboy_punch_burglar_r_no.jpg,audio/pikupumimukulupin.mp3,,,,,,,,,,,,,,,,,,,,,,,,,,,,,,,,,,,,,,,,,,,,,,,,,,,,,,,,,,,,,,,,,,,,,,,,,,
,,,,,,,,,R_3KNQJQzzHVvq2Py,2022-09-11_11h59.25.405,jpn_C03,2022.1.2,Win32,60.07088364,,,space,8.6168,0,14,14,32,1,パツ　ピク　ピポ　ルピン,,,CartoonStims/doctor_shoot_burglar_r_no.jpg,audio/patsupikupipolupin.mp3,,,,,,,,,,,,,,,,,,,,,,,,,,,,,,,,,,,,,,,,,,,,,,,,,,,,,,,,,,,,,,,,,,,,,,,,,,
,,,,,,,,,R_3KNQJQzzHVvq2Py,2022-09-11_11h59.25.405,jpn_C03,2022.1.2,Win32,60.07088364,,,space,5.1341,0,15,15,41,1,プミ　ピク　ホレト　ルピン,,,CartoonStims/chef_punch_burglar_r_no.jpg,audio/pumipikuhoretolupin.mp3,,,,,,,,,,,,,,,,,,,,,,,,,,,,,,,,,,,,,,,,,,,,,,,,,,,,,,,,,,,,,,,,,,,,,,,,,,
,,,,,,,,,R_3KNQJQzzHVvq2Py,2022-09-11_11h59.25.405,jpn_C03,2022.1.2,Win32,60.07088364,,,space,5.2393,0,16,16,18,1,トマ　ピク　ムク　ドキ,,,CartoonStims/cowboy_point_boxer_r_no.jpg,audio/tomapikumukudoki.mp3,,,,,,,,,,,,,,,,,,,,,,,,,,,,,,,,,,,,,,,,,,,,,,,,,,,,,,,,,,,,,,,,,,,,,,,,,,
,,,,,,,,,R_3KNQJQzzHVvq2Py,2022-09-11_11h59.25.405,jpn_C03,2022.1.2,Win32,60.07088364,,,space,11.1614,0,17,17,46,1,ピク　プミ　ドキ　ムク,,,CartoonStims/boxer_punch_cowboy_r_no.jpg,audio/pikupumidokimuku.mp3,,,,,,,,,,,,,,,,,,,,,,,,,,,,,,,,,,,,,,,,,,,,,,,,,,,,,,,,,,,,,,,,,,,,,,,,,,
,,,,,,,,,R_3KNQJQzzHVvq2Py,2022-09-11_11h59.25.405,jpn_C03,2022.1.2,Win32,60.07088364,,,space,8.5937,0,18,18,29,1,ピク　パツ　ホレト　シド,,,CartoonStims/chef_shoot_artist_r_no.jpg,audio/pikupatsuhoretosido.mp3,,,,,,,,,,,,,,,,,,,,,,,,,,,,,,,,,,,,,,,,,,,,,,,,,,,,,,,,,,,,,,,,,,,,,,,,,,
,,,,,,,,,R_3KNQJQzzHVvq2Py,2022-09-11_11h59.25.405,jpn_C03,2022.1.2,Win32,60.07088364,,,space,4.34,0,19,19,22,1,トマ　ピク　ドキ　ルピン,,,CartoonStims/boxer_point_burglar_r_no.jpg,audio/tomapikudokilupin.mp3,,,,,,,,,,,,,,,,,,,,,,,,,,,,,,,,,,,,,,,,,,,,,,,,,,,,,,,,,,,,,,,,,,,,,,,,,,
,,,,,,,,,R_3KNQJQzzHVvq2Py,2022-09-11_11h59.25.405,jpn_C03,2022.1.2,Win32,60.07088364,,,space,6.0044,0,20,20,9,1,セル　ピク　ピポ　シド,,,CartoonStims/doctor_kick_artist_r_no.jpg,audio/serupikupiposido.mp3,,,,,,,,,,,,,,,,,,,,,,,,,,,,,,,,,,,,,,,,,,,,,,,,,,,,,,,,,,,,,,,,,,,,,,,,,,
,,,,,,,,,R_3KNQJQzzHVvq2Py,2022-09-11_11h59.25.405,jpn_C03,2022.1.2,Win32,60.07088364,,,space,7.2769,0,21,21,27,1,ピク　パツ　ルピン　ドキ,,,CartoonStims/burglar_shoot_boxer_r_no.jpg,audio/pikupatsulupindoki.mp3,,,,,,,,,,,,,,,,,,,,,,,,,,,,,,,,,,,,,,,,,,,,,,,,,,,,,,,,,,,,,,,,,,,,,,,,,,
,,,,,,,,,R_3KNQJQzzHVvq2Py,2022-09-11_11h59.25.405,jpn_C03,2022.1.2,Win32,60.07088364,,,space,6.3337,0,22,22,19,1,ピク　トマ　ムク　シド,,,CartoonStims/cowboy_point_artist_r_no.jpg,audio/pikutomamukusido.mp3,,,,,,,,,,,,,,,,,,,,,,,,,,,,,,,,,,,,,,,,,,,,,,,,,,,,,,,,,,,,,,,,,,,,,,,,,,
,,,,,,,,,R_3KNQJQzzHVvq2Py,2022-09-11_11h59.25.405,jpn_C03,2022.1.2,Win32,60.07088364,,,space,6.9486,0,23,23,5,1,セル　ピク　ホレト　ピポ,,,CartoonStims/chef_kick_doctor_r_no.jpg,audio/serupikuhoretopipo.mp3,,,,,,,,,,,,,,,,,,,,,,,,,,,,,,,,,,,,,,,,,,,,,,,,,,,,,,,,,,,,,,,,,,,,,,,,,,
,,,,,,,,,R_3KNQJQzzHVvq2Py,2022-09-11_11h59.25.405,jpn_C03,2022.1.2,Win32,60.07088364,,,space,5.108,0,24,24,39,1,プミ　ピク　ルピン　シド,,,CartoonStims/burglar_punch_artist_r_no.jpg,audio/pumipikulupinsido.mp3,,,,,,,,,,,,,,,,,,,,,,,,,,,,,,,,,,,,,,,,,,,,,,,,,,,,,,,,,,,,,,,,,,,,,,,,,,
,,,,,,,,,R_3KNQJQzzHVvq2Py,2022-09-11_11h59.25.405,jpn_C03,2022.1.2,Win32,60.07088364,,,space,5.5187,0,25,25,24,1,パツ　ピク　シド　ムク,,,CartoonStims/artist_shoot_cowboy_r_no.jpg,audio/patsupikusidomuku.mp3,,,,,,,,,,,,,,,,,,,,,,,,,,,,,,,,,,,,,,,,,,,,,,,,,,,,,,,,,,,,,,,,,,,,,,,,,,
,,,,,,,,,R_3KNQJQzzHVvq2Py,2022-09-11_11h59.25.405,jpn_C03,2022.1.2,Win32,60.07088364,,,space,5.3183,0,26,26,7,1,セル　ピク　ムク　ドキ,,,CartoonStims/cowboy_kick_boxer_r_no.jpg,audio/serupikumukudoki.mp3,,,,,,,,,,,,,,,,,,,,,,,,,,,,,,,,,,,,,,,,,,,,,,,,,,,,,,,,,,,,,,,,,,,,,,,,,,
,,,,,,,,,R_3KNQJQzzHVvq2Py,2022-09-11_11h59.25.405,jpn_C03,2022.1.2,Win32,60.07088364,,,space,9.1787,0,27,27,17,1,トマ　ピク　ホレト　ドキ,,,CartoonStims/chef_point_boxer_r_no.jpg,audio/tomapikuhoretodoki.mp3,,,,,,,,,,,,,,,,,,,,,,,,,,,,,,,,,,,,,,,,,,,,,,,,,,,,,,,,,,,,,,,,,,,,,,,,,,
,,,,,,,,,R_3KNQJQzzHVvq2Py,2022-09-11_11h59.25.405,jpn_C03,2022.1.2,Win32,60.07088364,,,space,8.7223,0,28,28,38,1,プミ　ピク　ルピン　ドキ,,,CartoonStims/burglar_punch_boxer_r_no.jpg,audio/pumipikulupindoki.mp3,,,,,,,,,,,,,,,,,,,,,,,,,,,,,,,,,,,,,,,,,,,,,,,,,,,,,,,,,,,,,,,,,,,,,,,,,,
,,,,,,,,,R_3KNQJQzzHVvq2Py,2022-09-11_11h59.25.405,jpn_C03,2022.1.2,Win32,60.07088364,,,space,5.8719,0,29,29,36,1,プミ　ピク　シド　ピポ,,,CartoonStims/artist_punch_doctor_r_no.jpg,audio/pumipikusidopipo.mp3,,,,,,,,,,,,,,,,,,,,,,,,,,,,,,,,,,,,,,,,,,,,,,,,,,,,,,,,,,,,,,,,,,,,,,,,,,
,,,,,,,,,R_3KNQJQzzHVvq2Py,2022-09-11_11h59.25.405,jpn_C03,2022.1.2,Win32,60.07088364,,,space,5.8902,0,30,30,11,1,セル　ピク　ドキ　ルピン,,,CartoonStims/boxer_kick_burglar_r_no.jpg,audio/serupikudokilupin.mp3,,,,,,,,,,,,,,,,,,,,,,,,,,,,,,,,,,,,,,,,,,,,,,,,,,,,,,,,,,,,,,,,,,,,,,,,,,
,,,,,,,,,R_3KNQJQzzHVvq2Py,2022-09-11_11h59.25.405,jpn_C03,2022.1.2,Win32,60.07088364,,,space,2.848,0,31,31,35,1,パツ　ピク　ドキ　ムク,,,CartoonStims/boxer_shoot_cowboy_r_no.jpg,audio/patsupikudokimuku.mp3,,,,,,,,,,,,,,,,,,,,,,,,,,,,,,,,,,,,,,,,,,,,,,,,,,,,,,,,,,,,,,,,,,,,,,,,,,
,,,,,,,,,R_3KNQJQzzHVvq2Py,2022-09-11_11h59.25.405,jpn_C03,2022.1.2,Win32,60.07088364,,,space,7.0366,0,32,32,14,1,トマ　ピク　ルピン　ムク,,,CartoonStims/burglar_point_cowboy_r_no.jpg,audio/tomapikulupinmuku.mp3,,,,,,,,,,,,,,,,,,,,,,,,,,,,,,,,,,,,,,,,,,,,,,,,,,,,,,,,,,,,,,,,,,,,,,,,,,
,,,,,,,,,R_3KNQJQzzHVvq2Py,2022-09-11_11h59.25.405,jpn_C03,2022.1.2,Win32,60.07088364,,,space,3.3644,0,33,33,13,1,トマ　ピク　シド　ムク,,,CartoonStims/artist_point_cowboy_r_no.jpg,audio/tomapikusidomuku.mp3,,,,,,,,,,,,,,,,,,,,,,,,,,,,,,,,,,,,,,,,,,,,,,,,,,,,,,,,,,,,,,,,,,,,,,,,,,
,,,,,,,,,R_3KNQJQzzHVvq2Py,2022-09-11_11h59.25.405,jpn_C03,2022.1.2,Win32,60.07088364,,,space,3.2066,0,34,34,1,1,セル　ピク　シド　ホレト,,,CartoonStims/artist_kick_chef_r_no.jpg,audio/serupikusidohoreto.mp3,,,,,,,,,,,,,,,,,,,,,,,,,,,,,,,,,,,,,,,,,,,,,,,,,,,,,,,,,,,,,,,,,,,,,,,,,,
,,,,,,,,,R_3KNQJQzzHVvq2Py,2022-09-11_11h59.25.405,jpn_C03,2022.1.2,Win32,60.07088364,,,space,3.0645,0,35,35,37,1,プミ　ピク　シド　ドキ,,,CartoonStims/artist_punch_boxer_r_no.jpg,audio/pumipikusidodoki.mp3,,,,,,,,,,,,,,,,,,,,,,,,,,,,,,,,,,,,,,,,,,,,,,,,,,,,,,,,,,,,,,,,,,,,,,,,,,
,,,,,,,,,R_3KNQJQzzHVvq2Py,2022-09-11_11h59.25.405,jpn_C03,2022.1.2,Win32,60.07088364,,,space,3.1826,0,36,36,47,1,プミ　ピク　ドキ　ピポ,,,CartoonStims/boxer_punch_doctor_r_no.jpg,audio/pumipikudokipipo.mp3,,,,,,,,,,,,,,,,,,,,,,,,,,,,,,,,,,,,,,,,,,,,,,,,,,,,,,,,,,,,,,,,,,,,,,,,,,
,,,,,,,,,R_3KNQJQzzHVvq2Py,2022-09-11_11h59.25.405,jpn_C03,2022.1.2,Win32,60.07088364,,,space,4.1549,0,37,37,10,1,セル　ピク　ドキ　シド,,,CartoonStims/boxer_kick_artist_r_no.jpg,audio/serupikudokisido.mp3,,,,,,,,,,,,,,,,,,,,,,,,,,,,,,,,,,,,,,,,,,,,,,,,,,,,,,,,,,,,,,,,,,,,,,,,,,
,,,,,,,,,R_3KNQJQzzHVvq2Py,2022-09-11_11h59.25.405,jpn_C03,2022.1.2,Win32,60.07088364,,,space,3.8206,0,38,38,20,1,トマ　ピク　ピポ　シド,,,CartoonStims/doctor_point_artist_r_no.jpg,audio/tomapikupiposido.mp3,,,,,,,,,,,,,,,,,,,,,,,,,,,,,,,,,,,,,,,,,,,,,,,,,,,,,,,,,,,,,,,,,,,,,,,,,,
,,,,,,,,,R_3KNQJQzzHVvq2Py,2022-09-11_11h59.25.405,jpn_C03,2022.1.2,Win32,60.07088364,,,space,5.2788,0,39,39,43,1,プミ　ピク　ムク　ホレト,,,CartoonStims/cowboy_punch_chef_r_no.jpg,audio/pumipikumukuhoreto.mp3,,,,,,,,,,,,,,,,,,,,,,,,,,,,,,,,,,,,,,,,,,,,,,,,,,,,,,,,,,,,,,,,,,,,,,,,,,
,,,,,,,,,R_3KNQJQzzHVvq2Py,2022-09-11_11h59.25.405,jpn_C03,2022.1.2,Win32,60.07088364,,,space,4.501,0,40,40,8,1,ピク　セル　ピポ　ドキ,,,CartoonStims/doctor_kick_boxer_r_no.jpg,audio/pikuserupipodoki.mp3,,,,,,,,,,,,,,,,,,,,,,,,,,,,,,,,,,,,,,,,,,,,,,,,,,,,,,,,,,,,,,,,,,,,,,,,,,
,,,,,,,,,R_3KNQJQzzHVvq2Py,2022-09-11_11h59.25.405,jpn_C03,2022.1.2,Win32,60.07088364,,,space,6.4449,0,41,41,0,1,ピク　セル　シド　ルピン,,,CartoonStims/artist_kick_burglar_r_no.jpg,audio/pikuserusidolupin.mp3,,,,,,,,,,,,,,,,,,,,,,,,,,,,,,,,,,,,,,,,,,,,,,,,,,,,,,,,,,,,,,,,,,,,,,,,,,
,,,,,,,,,R_3KNQJQzzHVvq2Py,2022-09-11_11h59.25.405,jpn_C03,2022.1.2,Win32,60.07088364,,,space,5.2402,0,42,42,16,1,トマ　ピク　ホレト　ピポ,,,CartoonStims/chef_point_doctor_r_no.jpg,audio/tomapikuhoretopipo.mp3,,,,,,,,,,,,,,,,,,,,,,,,,,,,,,,,,,,,,,,,,,,,,,,,,,,,,,,,,,,,,,,,,,,,,,,,,,
,,,,,,,,,R_3KNQJQzzHVvq2Py,2022-09-11_11h59.25.405,jpn_C03,2022.1.2,Win32,60.07088364,,,space,4.8124,0,43,43,44,1,ピク　プミ　ピポ　ホレト,,,CartoonStims/doctor_punch_chef_r_no.jpg,audio/pikupumipipohoreto.mp3,,,,,,,,,,,,,,,,,,,,,,,,,,,,,,,,,,,,,,,,,,,,,,,,,,,,,,,,,,,,,,,,,,,,,,,,,,
,,,,,,,,,R_3KNQJQzzHVvq2Py,2022-09-11_11h59.25.405,jpn_C03,2022.1.2,Win32,60.07088364,,,space,4.05,0,44,44,2,1,セル　ピク　ルピン　ホレト,,,CartoonStims/burglar_kick_chef_r_no.jpg,audio/serupikulupinhoreto.mp3,,,,,,,,,,,,,,,,,,,,,,,,,,,,,,,,,,,,,,,,,,,,,,,,,,,,,,,,,,,,,,,,,,,,,,,,,,
,,,,,,,,,R_3KNQJQzzHVvq2Py,2022-09-11_11h59.25.405,jpn_C03,2022.1.2,Win32,60.07088364,,,space,3.6076,0,45,45,28,1,パツ　ピク　ホレト　ドキ,,,CartoonStims/chef_shoot_boxer_r_no.jpg,audio/patsupikuhoretodoki.mp3,,,,,,,,,,,,,,,,,,,,,,,,,,,,,,,,,,,,,,,,,,,,,,,,,,,,,,,,,,,,,,,,,,,,,,,,,,
,,,,,,,,,R_3KNQJQzzHVvq2Py,2022-09-11_11h59.25.405,jpn_C03,2022.1.2,Win32,60.07088364,,,space,3.8549,0,46,46,26,1,パツ　ピク　ルピン　ピポ,,,CartoonStims/burglar_shoot_doctor_r_no.jpg,audio/patsupikulupinpipo.mp3,,,,,,,,,,,,,,,,,,,,,,,,,,,,,,,,,,,,,,,,,,,,,,,,,,,,,,,,,,,,,,,,,,,,,,,,,,
,,,,,,,,,R_3KNQJQzzHVvq2Py,2022-09-11_11h59.25.405,jpn_C03,2022.1.2,Win32,60.07088364,,,space,8.2933,0,47,47,25,1,ピク　パツ　シド　ピポ,,,CartoonStims/artist_shoot_doctor_r_no.jpg,audio/pikupatsusidopipo.mp3,,,,,,,,,,,,,,,,,,,,,,,,,,,,,,,,,,,,,,,,,,,,,,,,,,,,,,,,,,,,,,,,,,,,,,,,,,
,,,,,,,,,R_3KNQJQzzHVvq2Py,2022-09-11_11h59.25.405,jpn_C03,2022.1.2,Win32,60.07088364,,,,,,,,,,,,,,,space,1.3901,right,0,3.8021,,,,,,,,,,,,,,,,,,,,,,,,,,,,,,,,,,,,,,,,,,,,,,,,,,,,,,,,,0,0,0,0,1,,,,,,,,
,,,,,,,,,R_3KNQJQzzHVvq2Py,2022-09-11_11h59.25.405,jpn_C03,2022.1.2,Win32,60.07088364,,,,,,,,,,,,,,,,,,,,,,,,,0,0,0,6,1,CartoonStims/artist_shoot_boxer_r.jpg,トマ　ピク　シド　ドキ,CartoonStims/artist_point_boxer_r.jpg,left,CartoonStims/artist_shoot_boxer_r.jpg,audio/tomapikusidodoki.mp3,"残念！ こちらが正しい画像です。

否定文は起きていないことを示しているのを思い出してください。",,,,,,,,,,,,,,,,,,,,,,,,,,,,,,,,,,,,,,,,,,,,,,,,,,,,
,,,,,,,,,R_3KNQJQzzHVvq2Py,2022-09-11_11h59.25.405,jpn_C03,2022.1.2,Win32,60.07088364,,,,,,,,,,,,,,,,,right,1,7.557,0,0,0,0,1,,,,,,,,,,,,,,,,,,,,,,,,,,,,,,,,,,,,,,,,,,,,,,,,,,,,,,,,,,,,,,,,
,,,,,,,,,R_3KNQJQzzHVvq2Py,2022-09-11_11h59.25.405,jpn_C03,2022.1.2,Win32,60.07088364,,,,,,,,,,,,,,,,,,,,,,,,,0,1,1,3,1,CartoonStims/chef_kick_artist_r.jpg,ピク　セル　ホレト　シド,CartoonStims/chef_point_artist_r.jpg,right,CartoonStims/chef_point_artist_r.jpg,audio/pikuseruhoretosido.mp3,"残念！ こちらが正しい画像です。

否定文は起きていないことを示しているのを思い出してください。",,,,,,,,,,,,,,,,,,,,,,,,,,,,,,,,,,,,,,,,,,,,,,,,,,,,
,,,,,,,,,R_3KNQJQzzHVvq2Py,2022-09-11_11h59.25.405,jpn_C03,2022.1.2,Win32,60.07088364,,,,,,,,,,,,,,,,,right,1,2.6815,0,0,0,0,1,,,,,,,,,,,,,,,,,,,,,,,,,,,,,,,,,,,,,,,,,,,,,,,,,,,,,,,,,,,,,,,,
,,,,,,,,,R_3KNQJQzzHVvq2Py,2022-09-11_11h59.25.405,jpn_C03,2022.1.2,Win32,60.07088364,,,,,,,,,,,,,,,,,,,,,,,,,0,2,2,7,1,CartoonStims/cowboy_point_chef_r.jpg,ピク　トマ　ムク　ホレト,CartoonStims/cowboy_kick_chef_r.jpg,right,CartoonStims/cowboy_kick_chef_r.jpg,audio/pikutomamukuhoreto.mp3,"残念！ こちらが正しい画像です。

否定文は起きていないことを示しているのを思い出してください。",,,,,,,,,,,,,,,,,,,,,,,,,,,,,,,,,,,,,,,,,,,,,,,,,,,,
,,,,,,,,,R_3KNQJQzzHVvq2Py,2022-09-11_11h59.25.405,jpn_C03,2022.1.2,Win32,60.07088364,,,,,,,,,,,,,,,,,left,1,3.2973,,,,,,,,,,,,,,,,,,0,0,0,0,1,,,,,,,,,,,,,,,,,,,,,,,,,,,,,,,,,,,,,,,,,,,,,,,
,,,,,,,,,R_3KNQJQzzHVvq2Py,2022-09-11_11h59.25.405,jpn_C03,2022.1.2,Win32,60.07088364,,,,,,,,,,,,,,,,,,,,,,,,,0,3,3,4,1,CartoonStims/burglar_shoot_doctor_r.jpg,セル　ピク　ルピン　ピポ,CartoonStims/burglar_kick_doctor_r.jpg,left,CartoonStims/burglar_shoot_doctor_r.jpg,audio/serupikulupinpipo.mp3,"残念！ こちらが正しい画像です。

否定文は起きていないことを示しているのを思い出してください。",,,,,,,,,,,,,,,,,,,,,,,,,,,,,,,,,,,,,,,,,,,,,,,,,,,,
,,,,,,,,,R_3KNQJQzzHVvq2Py,2022-09-11_11h59.25.405,jpn_C03,2022.1.2,Win32,60.07088364,,,,,,,,,,,,,,,,,left,0,3.4468,,,,,,,,,,,,,,,,,,,,,,,,,,,,,,,,,,,,,,,,,,,,,,,,,,,,,,,,,,,,,,0,0,0,0,1,,,
,,,,,,,,,R_3KNQJQzzHVvq2Py,2022-09-11_11h59.25.405,jpn_C03,2022.1.2,Win32,60.07088364,,,,,,,,,,,,,,,,,,,,,,,,,0,4,4,1,1,CartoonStims/chef_punch_cowboy_r.jpg,プミ　ピク　ホレト　ムク,CartoonStims/chef_kick_cowboy_r.jpg,right,CartoonStims/chef_kick_cowboy_r.jpg,audio/pumipikuhoretomuku.mp3,"残念！ こちらが正しい画像です。

否定文は起きていないことを示しているのを思い出してください。",,,,,,,,,,,,,,,,,,,,,,,,,,,,,,,,,,,,,,,,,,,,,,,,,,,,
,,,,,,,,,R_3KNQJQzzHVvq2Py,2022-09-11_11h59.25.405,jpn_C03,2022.1.2,Win32,60.07088364,,,,,,,,,,,,,,,,,right,1,4.4655,0,0,0,0,1,,,,,,,,,,,,,,,,,,,,,,,,,,,,,,,,,,,,,,,,,,,,,,,,,,,,,,,,,,,,,,,,
,,,,,,,,,R_3KNQJQzzHVvq2Py,2022-09-11_11h59.25.405,jpn_C03,2022.1.2,Win32,60.07088364,,,,,,,,,,,,,,,,,,,,,,,,,0,5,5,11,1,CartoonStims/chef_shoot_burglar_r.jpg,パツ　ピク　ホレト　ルピン,CartoonStims/chef_kick_burglar_r.jpg,right,CartoonStims/chef_kick_burglar_r.jpg,audio/patsupikuhoretolupin.mp3,"残念！ こちらが正しい画像です。

否定文は起きていないことを示しているのを思い出してください。",,,,,,,,,,,,,,,,,,,,,,,,,,,,,,,,,,,,,,,,,,,,,,,,,,,,
,,,,,,,,,R_3KNQJQzzHVvq2Py,2022-09-11_11h59.25.405,jpn_C03,2022.1.2,Win32,60.07088364,,,,,,,,,,,,,,,,,left,1,2.7073,,,,,,,,,,,,,,,,,,0,0,0,0,1,,,,,,,,,,,,,,,,,,,,,,,,,,,,,,,,,,,,,,,,,,,,,,,
,,,,,,,,,R_3KNQJQzzHVvq2Py,2022-09-11_11h59.25.405,jpn_C03,2022.1.2,Win32,60.07088364,,,,,,,,,,,,,,,,,,,,,,,,,0,6,6,2,1,CartoonStims/doctor_point_boxer_r.jpg,プミ　ピク　ピポ　ドキ,CartoonStims/doctor_punch_boxer_r.jpg,left,CartoonStims/doctor_point_boxer_r.jpg,audio/pumipikupipodoki.mp3,"残念！ こちらが正しい画像です。

否定文は起きていないことを示しているのを思い出してください。",,,,,,,,,,,,,,,,,,,,,,,,,,,,,,,,,,,,,,,,,,,,,,,,,,,,
,,,,,,,,,R_3KNQJQzzHVvq2Py,2022-09-11_11h59.25.405,jpn_C03,2022.1.2,Win32,60.07088364,,,,,,,,,,,,,,,,,left,1,1.4675,,,,,,,,,,,,,,,,,,0,0,0,0,1,,,,,,,,,,,,,,,,,,,,,,,,,,,,,,,,,,,,,,,,,,,,,,,
,,,,,,,,,R_3KNQJQzzHVvq2Py,2022-09-11_11h59.25.405,jpn_C03,2022.1.2,Win32,60.07088364,,,,,,,,,,,,,,,,,,,,,,,,,0,7,7,8,1,CartoonStims/burglar_punch_artist_r.jpg,トマ　ピク　ルピン　シド,CartoonStims/burglar_point_artist_r.jpg,left,CartoonStims/burglar_punch_artist_r.jpg,audio/tomapikulupinsido.mp3,"残念！ こちらが正しい画像です。

否定文は起きていないことを示しているのを思い出してください。",,,,,,,,,,,,,,,,,,,,,,,,,,,,,,,,,,,,,,,,,,,,,,,,,,,,
,,,,,,,,,R_3KNQJQzzHVvq2Py,2022-09-11_11h59.25.405,jpn_C03,2022.1.2,Win32,60.07088364,,,,,,,,,,,,,,,,,right,1,3.2855,0,0,0,0,1,,,,,,,,,,,,,,,,,,,,,,,,,,,,,,,,,,,,,,,,,,,,,,,,,,,,,,,,,,,,,,,,
,,,,,,,,,R_3KNQJQzzHVvq2Py,2022-09-11_11h59.25.405,jpn_C03,2022.1.2,Win32,60.07088364,,,,,,,,,,,,,,,,,,,,,,,,,0,8,8,9,1,CartoonStims/boxer_shoot_doctor_r.jpg,パツ　ピク　ドキ　ピポ,CartoonStims/boxer_point_doctor_r.jpg,right,CartoonStims/boxer_point_doctor_r.jpg,audio/patsupikudokipipo.mp3,"残念！ こちらが正しい画像です。

否定文は起きていないことを示しているのを思い出してください。",,,,,,,,,,,,,,,,,,,,,,,,,,,,,,,,,,,,,,,,,,,,,,,,,,,,
,,,,,,,,,R_3KNQJQzzHVvq2Py,2022-09-11_11h59.25.405,jpn_C03,2022.1.2,Win32,60.07088364,,,,,,,,,,,,,,,,,left,1,3.3485,,,,,,,,,,,,,,,,,,0,0,0,0,1,,,,,,,,,,,,,,,,,,,,,,,,,,,,,,,,,,,,,,,,,,,,,,,
,,,,,,,,,R_3KNQJQzzHVvq2Py,2022-09-11_11h59.25.405,jpn_C03,2022.1.2,Win32,60.07088364,,,,,,,,,,,,,,,,,,,,,,,,,0,9,9,10,1,CartoonStims/doctor_punch_cowboy_r.jpg,ピク　パツ　ピポ　ムク,CartoonStims/doctor_shoot_cowboy_r.jpg,left,CartoonStims/doctor_punch_cowboy_r.jpg,audio/pikupatsupipomuku.mp3,"残念！ こちらが正しい画像です。

否定文は起きていないことを示しているのを思い出してください。",,,,,,,,,,,,,,,,,,,,,,,,,,,,,,,,,,,,,,,,,,,,,,,,,,,,
,,,,,,,,,R_3KNQJQzzHVvq2Py,2022-09-11_11h59.25.405,jpn_C03,2022.1.2,Win32,60.07088364,,,,,,,,,,,,,,,,,right,1,3.0921,0,0,0,0,1,,,,,,,,,,,,,,,,,,,,,,,,,,,,,,,,,,,,,,,,,,,,,,,,,,,,,,,,,,,,,,,,
,,,,,,,,,R_3KNQJQzzHVvq2Py,2022-09-11_11h59.25.405,jpn_C03,2022.1.2,Win32,60.07088364,,,,,,,,,,,,,,,,,,,,,,,,,0,10,10,5,1,CartoonStims/boxer_kick_cowboy_r.jpg,セル　ピク　ドキ　ムク,CartoonStims/boxer_punch_cowboy_r.jpg,right,CartoonStims/boxer_punch_cowboy_r.jpg,audio/serupikudokimuku.mp3,"残念！ こちらが正しい画像です。

否定文は起きていないことを示しているのを思い出してください。",,,,,,,,,,,,,,,,,,,,,,,,,,,,,,,,,,,,,,,,,,,,,,,,,,,,
,,,,,,,,,R_3KNQJQzzHVvq2Py,2022-09-11_11h59.25.405,jpn_C03,2022.1.2,Win32,60.07088364,,,,,,,,,,,,,,,,,left,1,1.6996,,,,,,,,,,,,,,,,,,0,0,0,0,1,,,,,,,,,,,,,,,,,,,,,,,,,,,,,,,,,,,,,,,,,,,,,,,
,,,,,,,,,R_3KNQJQzzHVvq2Py,2022-09-11_11h59.25.405,jpn_C03,2022.1.2,Win32,60.07088364,,,,,,,,,,,,,,,,,,,,,,,,,0,11,11,0,1,CartoonStims/artist_shoot_burglar_r.jpg,ピク　プミ　シド　ルピン,CartoonStims/artist_punch_burglar_r.jpg,left,CartoonStims/artist_shoot_burglar_r.jpg,audio/pikupumisidolupin.mp3,"残念！ こちらが正しい画像です。

否定文は起きていないことを示しているのを思い出してください。",,,,,,,,,,,,,,,,,,,,,,,,,,,,,,,,,,,,,,,,,,,,,,,,,,,,
,,,,,,,,,R_3KNQJQzzHVvq2Py,2022-09-11_11h59.25.405,jpn_C03,2022.1.2,Win32,60.07088364,,,,,,,,,,,,,CartoonStims/chef_point_burglar_r.jpg,,,,,,,,,,,,,,,,,,,,,,,,,,,,,space,6.3958,トマ　ホレト　ルピン,right,23.9852,,,,,,0,0,0,29,1,,,,,,,,,,,,,,,,,,,,,,,,,,,,,,トマ　ホレト　ルピン,トマ　ホレト　ルピン,0
,,,,,,,,,R_3KNQJQzzHVvq2Py,2022-09-11_11h59.25.405,jpn_C03,2022.1.2,Win32,60.07088364,,,,,,,,,,,,,CartoonStims/artist_punch_cowboy_r_no.jpg,,,,,,,,,,,,,,,,,,,,,,,,,,,,,,,パツ　ピク　シド　ムク,right,20.0207,,,,,,0,1,1,18,1,,,,,,,,,,,,,,,,,,,,,,,,,,,,,,ピク　プミ　シド　ムク,プミ　ピク　シド　ムク,1
,,,,,,,,,R_3KNQJQzzHVvq2Py,2022-09-11_11h59.25.405,jpn_C03,2022.1.2,Win32,60.07088364,,,,,,,,,,,,,CartoonStims/cowboy_punch_artist_r_no.jpg,,,,,,,,,,,,,,,,,,,,,,,,,,,,,,,パツ　ピク　ムク　シド,right,16.2493,,,,,,0,2,2,21,1,,,,,,,,,,,,,,,,,,,,,,,,,,,,,,ピク　プミ　ムク　シド,プミ　ピク　ムク　シド,1
,,,,,,,,,R_3KNQJQzzHVvq2Py,2022-09-11_11h59.25.405,jpn_C03,2022.1.2,Win32,60.07088364,,,,,,,,,,,,,CartoonStims/chef_shoot_cowboy_r.jpg,,,,,,,,,,,,,,,,,,,,,,,,,,,,,,,パツ　ホレト　ムク,right,16.2448,,,,,,0,3,3,31,1,,,,,,,,,,,,,,,,,,,,,,,,,,,,,,パツ　ホレト　ムク,パツ　ホレト　ムク,0
,,,,,,,,,R_3KNQJQzzHVvq2Py,2022-09-11_11h59.25.405,jpn_C03,2022.1.2,Win32,60.07088364,,,,,,,,,,,,,CartoonStims/boxer_shoot_burglar_r_no.jpg,,,,,,,,,,,,,,,,,,,,,,,,,,,,,,,ピク　ドキ　ルピン,right,21.5388,,,,,,0,4,4,17,1,,,,,,,,,,,,,,,,,,,,,,,,,,,,,,ピク　パツ　ドキ　ルピン,パツ　ピク　ドキ　ルピン,1
,,,,,,,,,R_3KNQJQzzHVvq2Py,2022-09-11_11h59.25.405,jpn_C03,2022.1.2,Win32,60.07088364,,,,,,,,,,,,,CartoonStims/burglar_shoot_chef_r.jpg,,,,,,,,,,,,,,,,,,,,,,,,,,,,,,,パツ　ルピン　ホレト,right,11.7302,,,,,,0,5,5,30,1,,,,,,,,,,,,,,,,,,,,,,,,,,,,,,パツ　ルピン　ホレト,パツ　ルピン　ホレト,0
,,,,,,,,,R_3KNQJQzzHVvq2Py,2022-09-11_11h59.25.405,jpn_C03,2022.1.2,Win32,60.07088364,,,,,,,,,,,,,CartoonStims/cowboy_point_doctor_r_no.jpg,,,,,,,,,,,,,,,,,,,,,,,,,,,,,,,トマ　ピク　ムク　シド,right,10.784,,,,,,0,6,6,9,1,,,,,,,,,,,,,,,,,,,,,,,,,,,,,,ピク　トマ　ムク　ピポ,トマ　ピク　ムク　ピポ,1
,,,,,,,,,R_3KNQJQzzHVvq2Py,2022-09-11_11h59.25.405,jpn_C03,2022.1.2,Win32,60.07088364,,,,,,,,,,,,,CartoonStims/doctor_punch_burglar_r_no.jpg,,,,,,,,,,,,,,,,,,,,,,,,,,,,,,,パツ　ピク　シド　ルピン,right,15.712,,,,,,0,7,7,22,1,,,,,,,,,,,,,,,,,,,,,,,,,,,,,,ピク　プミ　ピポ　ルピン,プミ　ピク　ピポ　ルピン,1
,,,,,,,,,R_3KNQJQzzHVvq2Py,2022-09-11_11h59.25.405,jpn_C03,2022.1.2,Win32,60.07088364,,,,,,,,,,,,,CartoonStims/doctor_kick_cowboy_r_no.jpg,,,,,,,,,,,,,,,,,,,,,,,,,,,,,,,トマ　ピク　シド　ムク,right,14.5283,,,,,,0,8,8,4,1,,,,,,,,,,,,,,,,,,,,,,,,,,,,,,ピク　セル　ピポ　ムク,セル　ピク　ピポ　ムク,1
,,,,,,,,,R_3KNQJQzzHVvq2Py,2022-09-11_11h59.25.405,jpn_C03,2022.1.2,Win32,60.07088364,,,,,,,,,,,,,CartoonStims/burglar_point_artist_r.jpg,,,,,,,,,,,,,,,,,,,,,,,,,,,,,,,トマ　ルピン　シド,right,9.5892,,,,,,0,9,9,28,1,,,,,,,,,,,,,,,,,,,,,,,,,,,,,,トマ　ルピン　シド,トマ　ルピン　シド,0
,,,,,,,,,R_3KNQJQzzHVvq2Py,2022-09-11_11h59.25.405,jpn_C03,2022.1.2,Win32,60.07088364,,,,,,,,,,,,,CartoonStims/artist_punch_burglar_r.jpg,,,,,,,,,,,,,,,,,,,,,,,,,,,,,,,パツ　シド　ルピン,right,9.7042,,,,,,0,10,10,33,1,,,,,,,,,,,,,,,,,,,,,,,,,,,,,,プミ　シド　ルピン,プミ　シド　ルピン,0
,,,,,,,,,R_3KNQJQzzHVvq2Py,2022-09-11_11h59.25.405,jpn_C03,2022.1.2,Win32,60.07088364,,,,,,,,,,,,,CartoonStims/boxer_punch_chef_r_no.jpg,,,,,,,,,,,,,,,,,,,,,,,,,,,,,,,パツ　ピク　ドキ　ホレト,right,9.7351,,,,,,0,11,11,23,1,,,,,,,,,,,,,,,,,,,,,,,,,,,,,,ピク　プミ　ドキ　ホレト,プミ　ピク　ドキ　ホレト,1
,,,,,,,,,R_3KNQJQzzHVvq2Py,2022-09-11_11h59.25.405,jpn_C03,2022.1.2,Win32,60.07088364,,,,,,,,,,,,,CartoonStims/boxer_point_artist_r_no.jpg,,,,,,,,,,,,,,,,,,,,,,,,,,,,,,,トマ　ピク　ドキ　シド,right,12.1971,,,,,,0,12,12,11,1,,,,,,,,,,,,,,,,,,,,,,,,,,,,,,ピク　トマ　ドキ　シド,トマ　ピク　ドキ　シド,1
,,,,,,,,,R_3KNQJQzzHVvq2Py,2022-09-11_11h59.25.405,jpn_C03,2022.1.2,Win32,60.07088364,,,,,,,,,,,,,CartoonStims/cowboy_kick_chef_r_no.jpg,,,,,,,,,,,,,,,,,,,,,,,,,,,,,,,パツ　ピク　ムク　ホレト,right,40.5426,,,,,,0,13,13,3,1,,,,,,,,,,,,,,,,,,,,,,,,,,,,,,ピク　セル　ムク　ホレト,セル　ピク　ムク　ホレト,1
,,,,,,,,,R_3KNQJQzzHVvq2Py,2022-09-11_11h59.25.405,jpn_C03,2022.1.2,Win32,60.07088364,,,,,,,,,,,,,CartoonStims/cowboy_shoot_boxer_r_no.jpg,,,,,,,,,,,,,,,,,,,,,,,,,,,,,,,パツ　ピク　ムク　ドキ,right,11.9964,,,,,,0,14,14,15,1,,,,,,,,,,,,,,,,,,,,,,,,,,,,,,ピク　パツ　ムク　ドキ,パツ　ピク　ムク　ドキ,1
,,,,,,,,,R_3KNQJQzzHVvq2Py,2022-09-11_11h59.25.405,jpn_C03,2022.1.2,Win32,60.07088364,,,,,,,,,,,,,CartoonStims/artist_point_boxer_r.jpg,,,,,,,,,,,,,,,,,,,,,,,,,,,,,,,トマ　シド　ドキ,right,6.8769,,,,,,0,15,15,27,1,,,,,,,,,,,,,,,,,,,,,,,,,,,,,,トマ　シド　ドキ,トマ　シド　ドキ,0
,,,,,,,,,R_3KNQJQzzHVvq2Py,2022-09-11_11h59.25.405,jpn_C03,2022.1.2,Win32,60.07088364,,,,,,,,,,,,,CartoonStims/chef_shoot_doctor_r_no.jpg,,,,,,,,,,,,,,,,,,,,,,,,,,,,,,,パツ　ピク　ホレト　シド,right,13.7049,,,,,,0,16,16,14,1,,,,,,,,,,,,,,,,,,,,,,,,,,,,,,ピク　パツ　ホレト　ピポ,パツ　ピク　ホレト　ピポ,1
,,,,,,,,,R_3KNQJQzzHVvq2Py,2022-09-11_11h59.25.405,jpn_C03,2022.1.2,Win32,60.07088364,,,,,,,,,,,,,CartoonStims/doctor_point_boxer_r_no.jpg,,,,,,,,,,,,,,,,,,,,,,,,,,,,,,,トマ　ピク　シド　ドキ,right,7.935,,,,,,0,17,17,10,1,,,,,,,,,,,,,,,,,,,,,,,,,,,,,,ピク　トマ　ピポ　ドキ,トマ　ピク　ピポ　ドキ,1
,,,,,,,,,R_3KNQJQzzHVvq2Py,2022-09-11_11h59.25.405,jpn_C03,2022.1.2,Win32,60.07088364,,,,,,,,,,,,,CartoonStims/boxer_punch_artist_r.jpg,,,,,,,,,,,,,,,,,,,,,,,,,,,,,,,トマ　ドキ　シド,right,11.6352,,,,,,0,18,18,35,1,,,,,,,,,,,,,,,,,,,,,,,,,,,,,,プミ　ドキ　シド,プミ　ドキ　シド,0
,,,,,,,,,R_3KNQJQzzHVvq2Py,2022-09-11_11h59.25.405,jpn_C03,2022.1.2,Win32,60.07088364,,,,,,,,,,,,,CartoonStims/chef_punch_boxer_r_no.jpg,,,,,,,,,,,,,,,,,,,,,,,,,,,,,,,トマ　ピク　ホレト　ドキ,right,9.6107,,,,,,0,19,19,20,1,,,,,,,,,,,,,,,,,,,,,,,,,,,,,,ピク　プミ　ホレト　ドキ,プミ　ピク　ホレト　ドキ,1
,,,,,,,,,R_3KNQJQzzHVvq2Py,2022-09-11_11h59.25.405,jpn_C03,2022.1.2,Win32,60.07088364,,,,,,,,,,,,,CartoonStims/doctor_shoot_artist_r_no.jpg,,,,,,,,,,,,,,,,,,,,,,,,,,,,,,,パツ　ピク　シド　ムク,right,21.6506,,,,,,0,20,20,16,1,,,,,,,,,,,,,,,,,,,,,,,,,,,,,,ピク　パツ　ピポ　シド,パツ　ピク　ピポ　シド,1
,,,,,,,,,R_3KNQJQzzHVvq2Py,2022-09-11_11h59.25.405,jpn_C03,2022.1.2,Win32,60.07088364,,,,,,,,,,,,,CartoonStims/cowboy_kick_burglar_r.jpg,,,,,,,,,,,,,,,,,,,,,,,,,,,,,,,トマ　ムク　ルピン,right,22.5893,,,,,,0,21,21,24,1,,,,,,,,,,,,,,,,,,,,,,,,,,,,,,セル　ムク　ルピン,セル　ムク　ルピン,0
,,,,,,,,,R_3KNQJQzzHVvq2Py,2022-09-11_11h59.25.405,jpn_C03,2022.1.2,Win32,60.07088364,,,,,,,,,,,,,CartoonStims/burglar_punch_doctor_r_no.jpg,,,,,,,,,,,,,,,,,,,,,,,,,,,,,,,パツ　ピク　ルピン　シド,right,12.5791,,,,,,0,22,22,19,1,,,,,,,,,,,,,,,,,,,,,,,,,,,,,,ピク　プミ　ルピン　ピポ,プミ　ピク　ルピン　ピポ,1
,,,,,,,,,R_3KNQJQzzHVvq2Py,2022-09-11_11h59.25.405,jpn_C03,2022.1.2,Win32,60.07088364,,,,,,,,,,,,,CartoonStims/artist_kick_boxer_r_no.jpg,,,,,,,,,,,,,,,,,,,,,,,,,,,,,,,トマ　ピク　シド　ドキ,right,18.6627,,,,,,0,23,23,0,1,,,,,,,,,,,,,,,,,,,,,,,,,,,,,,ピク　セル　シド　ドキ,セル　ピク　シド　ドキ,1
,,,,,,,,,R_3KNQJQzzHVvq2Py,2022-09-11_11h59.25.405,jpn_C03,2022.1.2,Win32,60.07088364,,,,,,,,,,,,,CartoonStims/doctor_punch_boxer_r.jpg,,,,,,,,,,,,,,,,,,,,,,,,,,,,,,,パツ　シド　ドキ,right,11.9462,,,,,,0,24,24,34,1,,,,,,,,,,,,,,,,,,,,,,,,,,,,,,プミ　ピポ　ドキ,プミ　ピポ　ドキ,0
,,,,,,,,,R_3KNQJQzzHVvq2Py,2022-09-11_11h59.25.405,jpn_C03,2022.1.2,Win32,60.07088364,,,,,,,,,,,,,CartoonStims/artist_shoot_chef_r_no.jpg,,,,,,,,,,,,,,,,,,,,,,,,,,,,,,,パツ　ピク　シド　ホレト,right,9.4624,,,,,,0,25,25,12,1,,,,,,,,,,,,,,,,,,,,,,,,,,,,,,ピク　パツ　シド　ホレト,パツ　ピク　シド　ホレト,1
,,,,,,,,,R_3KNQJQzzHVvq2Py,2022-09-11_11h59.25.405,jpn_C03,2022.1.2,Win32,60.07088364,,,,,,,,,,,,,CartoonStims/burglar_point_chef_r_no.jpg,,,,,,,,,,,,,,,,,,,,,,,,,,,,,,,トマ　ピク　ルピン　ホレト,right,8.6651,,,,,,0,26,26,7,1,,,,,,,,,,,,,,,,,,,,,,,,,,,,,,ピク　トマ　ルピン　ホレト,トマ　ピク　ルピン　ホレト,1
,,,,,,,,,R_3KNQJQzzHVvq2Py,2022-09-11_11h59.25.405,jpn_C03,2022.1.2,Win32,60.07088364,,,,,,,,,,,,,CartoonStims/cowboy_shoot_doctor_r.jpg,,,,,,,,,,,,,,,,,,,,,,,,,,,,,,,パツ　ムク　シド,right,9.9357,,,,,,0,27,27,32,1,,,,,,,,,,,,,,,,,,,,,,,,,,,,,,パツ　ムク　ピポ,パツ　ムク　ピポ,0
,,,,,,,,,R_3KNQJQzzHVvq2Py,2022-09-11_11h59.25.405,jpn_C03,2022.1.2,Win32,60.07088364,,,,,,,,,,,,,CartoonStims/artist_point_burglar_r_no.jpg,,,,,,,,,,,,,,,,,,,,,,,,,,,,,,,トマ　ピク　シド　ルピン,right,12.434,,,,,,0,28,28,6,1,,,,,,,,,,,,,,,,,,,,,,,,,,,,,,ピク　トマ　シド　ルピン,トマ　ピク　シド　ルピン,1
,,,,,,,,,R_3KNQJQzzHVvq2Py,2022-09-11_11h59.25.405,jpn_C03,2022.1.2,Win32,60.07088364,,,,,,,,,,,,,CartoonStims/boxer_kick_cowboy_r.jpg,,,,,,,,,,,,,,,,,,,,,,,,,,,,,,,パツ　ドキ　ムク,right,18.9966,,,,,,0,29,29,26,1,,,,,,,,,,,,,,,,,,,,,,,,,,,,,,セル　ドキ　ムク,セル　ドキ　ムク,0
,,,,,,,,,R_3KNQJQzzHVvq2Py,2022-09-11_11h59.25.405,jpn_C03,2022.1.2,Win32,60.07088364,,,,,,,,,,,,,CartoonStims/burglar_kick_artist_r_no.jpg,,,,,,,,,,,,,,,,,,,,,,,,,,,,,,,パツ　ピク　ルピン　シド,right,9.6353,,,,,,0,30,30,1,1,,,,,,,,,,,,,,,,,,,,,,,,,,,,,,ピク　セル　ルピン　シド,セル　ピク　ルピン　シド,1
,,,,,,,,,R_3KNQJQzzHVvq2Py,2022-09-11_11h59.25.405,jpn_C03,2022.1.2,Win32,60.07088364,,,,,,,,,,,,,CartoonStims/burglar_shoot_cowboy_r_no.jpg,,,,,,,,,,,,,,,,,,,,,,,,,,,,,,,パツ　ピク　ルピン　ムク,right,11.9003,,,,,,0,31,31,13,1,,,,,,,,,,,,,,,,,,,,,,,,,,,,,,ピク　パツ　ルピン　ムク,パツ　ピク　ルピン　ムク,1
,,,,,,,,,R_3KNQJQzzHVvq2Py,2022-09-11_11h59.25.405,jpn_C03,2022.1.2,Win32,60.07088364,,,,,,,,,,,,,CartoonStims/doctor_kick_chef_r.jpg,,,,,,,,,,,,,,,,,,,,,,,,,,,,,,,パツ　シド　ホレト,right,14.3656,,,,,,0,32,32,25,1,,,,,,,,,,,,,,,,,,,,,,,,,,,,,,セル　ピポ　ホレト,セル　ピポ　ホレト,0
,,,,,,,,,R_3KNQJQzzHVvq2Py,2022-09-11_11h59.25.405,jpn_C03,2022.1.2,Win32,60.07088364,,,,,,,,,,,,,CartoonStims/boxer_kick_doctor_r_no.jpg,,,,,,,,,,,,,,,,,,,,,,,,,,,,,,,パツ　ピク　ドキ　シド,right,9.6989,,,,,,0,33,33,5,1,,,,,,,,,,,,,,,,,,,,,,,,,,,,,,ピク　セル　ドキ　ピポ,セル　ピク　ドキ　ピポ,1
,,,,,,,,,R_3KNQJQzzHVvq2Py,2022-09-11_11h59.25.405,jpn_C03,2022.1.2,Win32,60.07088364,,,,,,,,,,,,,CartoonStims/chef_point_cowboy_r_no.jpg,,,,,,,,,,,,,,,,,,,,,,,,,,,,,,,トマ　ピク　ホレト　ムク,right,12.1806,,,,,,0,34,34,8,1,,,,,,,,,,,,,,,,,,,,,,,,,,,,,,ピク　トマ　ホレト　ムク,トマ　ピク　ホレト　ムク,1
,,,,,,,,,R_3KNQJQzzHVvq2Py,2022-09-11_11h59.25.405,jpn_C03,2022.1.2,Win32,60.07088364,,,,,,,,,,,,,CartoonStims/chef_kick_burglar_r_no.jpg,,,,,,,,,,,,,,,,,,,,,,,,,,,,,,,パツ　ピク　ホレト　ルピン,right,17.626,,,,,,0,35,35,2,1,,,,,,,,,,,,,,,,,,,,,,,,,,,,,,ピク　セル　ホレト　ルピン,セル　ピク　ホレト　ルピン,1
,,,,,,,,,R_3KNQJQzzHVvq2Py,2022-09-11_11h59.25.405,jpn_C03,2022.1.2,Win32,60.07088364,,,,,,,,,,,,,,,,,,,,,,,,,,,,,,,,,,,,,,,,,,,,,,,,,,,,,,,,,,,space,2.6036,0,2,2,2,1,VNegCondition.xlsx,"ここではこの言語における否定の文を学習していただきます。引き続き注意して、 聞こえた音を復唱してください。

スペースキーを押してください。",1,VNegFCT.xlsx,ここからクイズが始まります。 スクリーンに表示されるテキストに合うイメージを選んでください。,NegTest.xlsx,1,最後にここまで学んだことをアウトプットしていただきます。 テキストボックスにあるイメージを描写するテキストを入力してください。 このタスクでは、 答え合わせは行いません。,0,これですべての実験が終わりました。 お疲れさまです。 この後はアンケートに答えていただきます。,,,,,,,,,,,,,