key_resp_instr_a.keys,key_resp_instr_a.rt,key_resp_instr_b.keys,key_resp_instr_b.rt,dummy.thisRepN,dummy.thisTrialN,dummy.thisN,dummy.thisIndex,dummy.ran,participant,date,expName,psychopyVersion,OS,frameRate,key_resp_instr1.keys,key_resp_instr1.rt,key_resp.keys,key_resp.rt,exp_loop.thisRepN,exp_loop.thisTrialN,exp_loop.thisN,exp_loop.thisIndex,exp_loop.ran,Word,English,Flip,Path,Audio,key_resp_instr2.keys,key_resp_instr2.rt,key_resp_fct.keys,key_resp_fct.corr,key_resp_fct.rt,trials.thisRepN,trials.thisTrialN,trials.thisN,trials.thisIndex,trials.ran,fct_loop.thisRepN,fct_loop.thisTrialN,fct_loop.thisN,fct_loop.thisIndex,fct_loop.ran,left_img,word,right_img,correctans,correct_img,audio,incorrect_feedback,trials_2.thisRepN,trials_2.thisTrialN,trials_2.thisN,trials_2.thisIndex,trials_2.ran,trials_4.thisRepN,trials_4.thisTrialN,trials_4.thisN,trials_4.thisIndex,trials_4.ran,key_resp_instr3.keys,key_resp_instr3.rt,textbox.text,key_resp_2.keys,key_resp_2.rt,fb_yn.thisRepN,fb_yn.thisTrialN,fb_yn.thisN,fb_yn.thisIndex,fb_yn.ran,gather_loop.thisRepN,gather_loop.thisTrialN,gather_loop.thisN,gather_loop.thisIndex,gather_loop.ran,Text,Wordbank,key_resp_instr4.keys,key_resp_instr4.rt,master_loop.thisRepN,master_loop.thisTrialN,master_loop.thisN,master_loop.thisIndex,master_loop.ran,exposure_file,instr_1,exp_reps,fct_file,instr_2,gather_file,gather_reps,instr_3,fReps,instr_4,trials_3.thisRepN,trials_3.thisTrialN,trials_3.thisN,trials_3.thisIndex,trials_3.ran,NegVSentence,VNegSentence,NegTF
space,4.3458,space,5.5665,0,0,0,0,1,R_ywJlRnprYwGbyOl,2022-09-01_19h20.26.149,jpn_C02,2022.1.2,Win32,60.10337781,,,,,,,,,,,,,,,,,,,,,,,,,,,,,,,,,,,,,,,,,,,,,,,,,,,,,,,,,,,,,,,,,,,,,,,,,,,,,,,,,,,,,,,,
,,,,,,,,,R_ywJlRnprYwGbyOl,2022-09-01_19h20.26.149,jpn_C02,2022.1.2,Win32,60.10337781,space,1.63,space,4.3094,0,0,0,1,1,ルピン,burglar,,CartoonStims/burglar_r.jpg,audio/lupin.mp3,,,,,,,,,,,,,,,,,,,,,,,,,,,,,,,,,,,,,,,,,,,,,,,,,,,,,,,,,,,,,,,,,,,,,,,,,,
,,,,,,,,,R_ywJlRnprYwGbyOl,2022-09-01_19h20.26.149,jpn_C02,2022.1.2,Win32,60.10337781,,,space,0.9221,0,1,1,2,1,ホレト,chef,,CartoonStims/chef_r.jpg,audio/horeto.mp3,,,,,,,,,,,,,,,,,,,,,,,,,,,,,,,,,,,,,,,,,,,,,,,,,,,,,,,,,,,,,,,,,,,,,,,,,,
,,,,,,,,,R_ywJlRnprYwGbyOl,2022-09-01_19h20.26.149,jpn_C02,2022.1.2,Win32,60.10337781,,,space,0.3021,0,2,2,4,1,ピポ,doctor,,CartoonStims/doctor_r.jpg,audio/pipo.mp3,,,,,,,,,,,,,,,,,,,,,,,,,,,,,,,,,,,,,,,,,,,,,,,,,,,,,,,,,,,,,,,,,,,,,,,,,,
,,,,,,,,,R_ywJlRnprYwGbyOl,2022-09-01_19h20.26.149,jpn_C02,2022.1.2,Win32,60.10337781,,,space,0.043,0,3,3,0,1,シド,artist,,CartoonStims/artist_r.jpg,audio/sido.mp3,,,,,,,,,,,,,,,,,,,,,,,,,,,,,,,,,,,,,,,,,,,,,,,,,,,,,,,,,,,,,,,,,,,,,,,,,,
,,,,,,,,,R_ywJlRnprYwGbyOl,2022-09-01_19h20.26.149,jpn_C02,2022.1.2,Win32,60.10337781,,,space,0.1485,0,4,4,5,1,ドキ,boxer,,CartoonStims/boxer_r.jpg,audio/doki.mp3,,,,,,,,,,,,,,,,,,,,,,,,,,,,,,,,,,,,,,,,,,,,,,,,,,,,,,,,,,,,,,,,,,,,,,,,,,
,,,,,,,,,R_ywJlRnprYwGbyOl,2022-09-01_19h20.26.149,jpn_C02,2022.1.2,Win32,60.10337781,,,space,0.0415,0,5,5,3,1,ムク,cowboy,,CartoonStims/cowboy_r.jpg,audio/muku.mp3,,,,,,,,,,,,,,,,,,,,,,,,,,,,,,,,,,,,,,,,,,,,,,,,,,,,,,,,,,,,,,,,,,,,,,,,,,
,,,,,,,,,R_ywJlRnprYwGbyOl,2022-09-01_19h20.26.149,jpn_C02,2022.1.2,Win32,60.10337781,,,space,0.6898,1,0,6,2,1,ホレト,chef,,CartoonStims/chef_r.jpg,audio/horeto.mp3,,,,,,,,,,,,,,,,,,,,,,,,,,,,,,,,,,,,,,,,,,,,,,,,,,,,,,,,,,,,,,,,,,,,,,,,,,
,,,,,,,,,R_ywJlRnprYwGbyOl,2022-09-01_19h20.26.149,jpn_C02,2022.1.2,Win32,60.10337781,,,space,0.2398,1,1,7,4,1,ピポ,doctor,,CartoonStims/doctor_r.jpg,audio/pipo.mp3,,,,,,,,,,,,,,,,,,,,,,,,,,,,,,,,,,,,,,,,,,,,,,,,,,,,,,,,,,,,,,,,,,,,,,,,,,
,,,,,,,,,R_ywJlRnprYwGbyOl,2022-09-01_19h20.26.149,jpn_C02,2022.1.2,Win32,60.10337781,,,space,0.0171,1,2,8,3,1,ムク,cowboy,,CartoonStims/cowboy_r.jpg,audio/muku.mp3,,,,,,,,,,,,,,,,,,,,,,,,,,,,,,,,,,,,,,,,,,,,,,,,,,,,,,,,,,,,,,,,,,,,,,,,,,
,,,,,,,,,R_ywJlRnprYwGbyOl,2022-09-01_19h20.26.149,jpn_C02,2022.1.2,Win32,60.10337781,,,space,2.9231,1,3,9,1,1,ルピン,burglar,,CartoonStims/burglar_r.jpg,audio/lupin.mp3,,,,,,,,,,,,,,,,,,,,,,,,,,,,,,,,,,,,,,,,,,,,,,,,,,,,,,,,,,,,,,,,,,,,,,,,,,
,,,,,,,,,R_ywJlRnprYwGbyOl,2022-09-01_19h20.26.149,jpn_C02,2022.1.2,Win32,60.10337781,,,space,0.0739,1,4,10,5,1,ドキ,boxer,,CartoonStims/boxer_r.jpg,audio/doki.mp3,,,,,,,,,,,,,,,,,,,,,,,,,,,,,,,,,,,,,,,,,,,,,,,,,,,,,,,,,,,,,,,,,,,,,,,,,,
,,,,,,,,,R_ywJlRnprYwGbyOl,2022-09-01_19h20.26.149,jpn_C02,2022.1.2,Win32,60.10337781,,,space,0.0016,1,5,11,0,1,シド,artist,,CartoonStims/artist_r.jpg,audio/sido.mp3,,,,,,,,,,,,,,,,,,,,,,,,,,,,,,,,,,,,,,,,,,,,,,,,,,,,,,,,,,,,,,,,,,,,,,,,,,
,,,,,,,,,R_ywJlRnprYwGbyOl,2022-09-01_19h20.26.149,jpn_C02,2022.1.2,Win32,60.10337781,,,space,0.4281,2,0,12,5,1,ドキ,boxer,,CartoonStims/boxer_r.jpg,audio/doki.mp3,,,,,,,,,,,,,,,,,,,,,,,,,,,,,,,,,,,,,,,,,,,,,,,,,,,,,,,,,,,,,,,,,,,,,,,,,,
,,,,,,,,,R_ywJlRnprYwGbyOl,2022-09-01_19h20.26.149,jpn_C02,2022.1.2,Win32,60.10337781,,,space,0.547,2,1,13,2,1,ホレト,chef,,CartoonStims/chef_r.jpg,audio/horeto.mp3,,,,,,,,,,,,,,,,,,,,,,,,,,,,,,,,,,,,,,,,,,,,,,,,,,,,,,,,,,,,,,,,,,,,,,,,,,
,,,,,,,,,R_ywJlRnprYwGbyOl,2022-09-01_19h20.26.149,jpn_C02,2022.1.2,Win32,60.10337781,,,space,0.0884,2,2,14,0,1,シド,artist,,CartoonStims/artist_r.jpg,audio/sido.mp3,,,,,,,,,,,,,,,,,,,,,,,,,,,,,,,,,,,,,,,,,,,,,,,,,,,,,,,,,,,,,,,,,,,,,,,,,,
,,,,,,,,,R_ywJlRnprYwGbyOl,2022-09-01_19h20.26.149,jpn_C02,2022.1.2,Win32,60.10337781,,,space,0.528,2,3,15,3,1,ムク,cowboy,,CartoonStims/cowboy_r.jpg,audio/muku.mp3,,,,,,,,,,,,,,,,,,,,,,,,,,,,,,,,,,,,,,,,,,,,,,,,,,,,,,,,,,,,,,,,,,,,,,,,,,
,,,,,,,,,R_ywJlRnprYwGbyOl,2022-09-01_19h20.26.149,jpn_C02,2022.1.2,Win32,60.10337781,,,space,4.3099,2,4,16,4,1,ピポ,doctor,,CartoonStims/doctor_r.jpg,audio/pipo.mp3,,,,,,,,,,,,,,,,,,,,,,,,,,,,,,,,,,,,,,,,,,,,,,,,,,,,,,,,,,,,,,,,,,,,,,,,,,
,,,,,,,,,R_ywJlRnprYwGbyOl,2022-09-01_19h20.26.149,jpn_C02,2022.1.2,Win32,60.10337781,,,space,0.121,2,5,17,1,1,ルピン,burglar,,CartoonStims/burglar_r.jpg,audio/lupin.mp3,,,,,,,,,,,,,,,,,,,,,,,,,,,,,,,,,,,,,,,,,,,,,,,,,,,,,,,,,,,,,,,,,,,,,,,,,,
,,,,,,,,,R_ywJlRnprYwGbyOl,2022-09-01_19h20.26.149,jpn_C02,2022.1.2,Win32,60.10337781,,,,,,,,,,,,,,,space,0.746,left,1,2.6767,0,0,0,0,1,,,,,,,,,,,,,,,,,,,,,,,,,,,,,,,,,,,,,,,,,,,,,,,,,,,,,,,,,,,,,,,,
,,,,,,,,,R_ywJlRnprYwGbyOl,2022-09-01_19h20.26.149,jpn_C02,2022.1.2,Win32,60.10337781,,,,,,,,,,,,,,,,,,,,,,,,,0,0,0,5,1,CartoonStims/boxer_r.jpg,ドキ,CartoonStims/artist_r.jpg,left,CartoonStims/boxer_r.jpg,audio/doki.mp3,残念！ こちらが正しい画像です。,,,,,,,,,,,,,,,,,,,,,,,,,,,,,,,,,,,,,,,,,,,,,,,,,,,,
,,,,,,,,,R_ywJlRnprYwGbyOl,2022-09-01_19h20.26.149,jpn_C02,2022.1.2,Win32,60.10337781,,,,,,,,,,,,,,,,,right,1,0.7623,,,,,,,,,,,,,,,,,,0,0,0,0,1,,,,,,,,,,,,,,,,,,,,,,,,,,,,,,,,,,,,,,,,,,,,,,,
,,,,,,,,,R_ywJlRnprYwGbyOl,2022-09-01_19h20.26.149,jpn_C02,2022.1.2,Win32,60.10337781,,,,,,,,,,,,,,,,,,,,,,,,,0,1,1,9,1,CartoonStims/boxer_r.jpg,ムク,CartoonStims/cowboy_r.jpg,right,CartoonStims/cowboy_r.jpg,audio/muku.mp3,残念！ こちらが正しい画像です。,,,,,,,,,,,,,,,,,,,,,,,,,,,,,,,,,,,,,,,,,,,,,,,,,,,,
,,,,,,,,,R_ywJlRnprYwGbyOl,2022-09-01_19h20.26.149,jpn_C02,2022.1.2,Win32,60.10337781,,,,,,,,,,,,,,,,,left,1,2.2579,0,0,0,0,1,,,,,,,,,,,,,,,,,,,,,,,,,,,,,,,,,,,,,,,,,,,,,,,,,,,,,,,,,,,,,,,,
,,,,,,,,,R_ywJlRnprYwGbyOl,2022-09-01_19h20.26.149,jpn_C02,2022.1.2,Win32,60.10337781,,,,,,,,,,,,,,,,,,,,,,,,,0,2,2,4,1,CartoonStims/doctor_r.jpg,ピポ,CartoonStims/boxer_r.jpg,left,CartoonStims/doctor_r.jpg,audio/pipo.mp3,残念！ こちらが正しい画像です。,,,,,,,,,,,,,,,,,,,,,,,,,,,,,,,,,,,,,,,,,,,,,,,,,,,,
,,,,,,,,,R_ywJlRnprYwGbyOl,2022-09-01_19h20.26.149,jpn_C02,2022.1.2,Win32,60.10337781,,,,,,,,,,,,,,,,,left,0,1.8635,,,,,,,,,,,,,,,,,,,,,,,0,0,0,0,1,,,,,,,,,,,,,,,,,,,,,,,,,,,,,,,,,,,,,,,,,,
,,,,,,,,,R_ywJlRnprYwGbyOl,2022-09-01_19h20.26.149,jpn_C02,2022.1.2,Win32,60.10337781,,,,,,,,,,,,,,,,,,,,,,,,,0,3,3,6,1,CartoonStims/chef_r.jpg,シド,CartoonStims/artist_r.jpg,right,CartoonStims/artist_r.jpg,audio/sido.mp3,残念！ こちらが正しい画像です。,,,,,,,,,,,,,,,,,,,,,,,,,,,,,,,,,,,,,,,,,,,,,,,,,,,,
,,,,,,,,,R_ywJlRnprYwGbyOl,2022-09-01_19h20.26.149,jpn_C02,2022.1.2,Win32,60.10337781,,,,,,,,,,,,,,,,,left,1,0.9307,0,0,0,0,1,,,,,,,,,,,,,,,,,,,,,,,,,,,,,,,,,,,,,,,,,,,,,,,,,,,,,,,,,,,,,,,,
,,,,,,,,,R_ywJlRnprYwGbyOl,2022-09-01_19h20.26.149,jpn_C02,2022.1.2,Win32,60.10337781,,,,,,,,,,,,,,,,,,,,,,,,,0,4,4,0,1,CartoonStims/artist_r.jpg,シド,CartoonStims/burglar_r.jpg,left,CartoonStims/artist_r.jpg,audio/sido.mp3,残念！ こちらが正しい画像です。,,,,,,,,,,,,,,,,,,,,,,,,,,,,,,,,,,,,,,,,,,,,,,,,,,,,
,,,,,,,,,R_ywJlRnprYwGbyOl,2022-09-01_19h20.26.149,jpn_C02,2022.1.2,Win32,60.10337781,,,,,,,,,,,,,,,,,left,1,2.1615,0,0,0,0,1,,,,,,,,,,,,,,,,,,,,,,,,,,,,,,,,,,,,,,,,,,,,,,,,,,,,,,,,,,,,,,,,
,,,,,,,,,R_ywJlRnprYwGbyOl,2022-09-01_19h20.26.149,jpn_C02,2022.1.2,Win32,60.10337781,,,,,,,,,,,,,,,,,,,,,,,,,0,5,5,1,1,CartoonStims/burglar_r.jpg,ルピン,CartoonStims/chef_r.jpg,left,CartoonStims/burglar_r.jpg,audio/lupin.mp3,残念！ こちらが正しい画像です。,,,,,,,,,,,,,,,,,,,,,,,,,,,,,,,,,,,,,,,,,,,,,,,,,,,,
,,,,,,,,,R_ywJlRnprYwGbyOl,2022-09-01_19h20.26.149,jpn_C02,2022.1.2,Win32,60.10337781,,,,,,,,,,,,,,,,,right,1,1.7416,,,,,,,,,,,,,,,,,,0,0,0,0,1,,,,,,,,,,,,,,,,,,,,,,,,,,,,,,,,,,,,,,,,,,,,,,,
,,,,,,,,,R_ywJlRnprYwGbyOl,2022-09-01_19h20.26.149,jpn_C02,2022.1.2,Win32,60.10337781,,,,,,,,,,,,,,,,,,,,,,,,,0,6,6,8,1,CartoonStims/doctor_r.jpg,ホレト,CartoonStims/chef_r.jpg,right,CartoonStims/chef_r.jpg,audio/horeto.mp3,残念！ こちらが正しい画像です。,,,,,,,,,,,,,,,,,,,,,,,,,,,,,,,,,,,,,,,,,,,,,,,,,,,,
,,,,,,,,,R_ywJlRnprYwGbyOl,2022-09-01_19h20.26.149,jpn_C02,2022.1.2,Win32,60.10337781,,,,,,,,,,,,,,,,,left,1,2.2198,0,0,0,0,1,,,,,,,,,,,,,,,,,,,,,,,,,,,,,,,,,,,,,,,,,,,,,,,,,,,,,,,,,,,,,,,,
,,,,,,,,,R_ywJlRnprYwGbyOl,2022-09-01_19h20.26.149,jpn_C02,2022.1.2,Win32,60.10337781,,,,,,,,,,,,,,,,,,,,,,,,,0,7,7,3,1,CartoonStims/cowboy_r.jpg,ムク,CartoonStims/doctor_r.jpg,left,CartoonStims/cowboy_r.jpg,audio/muku.mp3,残念！ こちらが正しい画像です。,,,,,,,,,,,,,,,,,,,,,,,,,,,,,,,,,,,,,,,,,,,,,,,,,,,,
,,,,,,,,,R_ywJlRnprYwGbyOl,2022-09-01_19h20.26.149,jpn_C02,2022.1.2,Win32,60.10337781,,,,,,,,,,,,,,,,,left,1,1.5244,0,0,0,0,1,,,,,,,,,,,,,,,,,,,,,,,,,,,,,,,,,,,,,,,,,,,,,,,,,,,,,,,,,,,,,,,,
,,,,,,,,,R_ywJlRnprYwGbyOl,2022-09-01_19h20.26.149,jpn_C02,2022.1.2,Win32,60.10337781,,,,,,,,,,,,,,,,,,,,,,,,,0,8,8,2,1,CartoonStims/chef_r.jpg,ホレト,CartoonStims/cowboy_r.jpg,left,CartoonStims/chef_r.jpg,audio/horeto.mp3,残念！ こちらが正しい画像です。,,,,,,,,,,,,,,,,,,,,,,,,,,,,,,,,,,,,,,,,,,,,,,,,,,,,
,,,,,,,,,R_ywJlRnprYwGbyOl,2022-09-01_19h20.26.149,jpn_C02,2022.1.2,Win32,60.10337781,,,,,,,,,,,,,,,,,right,1,1.8664,,,,,,,,,,,,,,,,,,0,0,0,0,1,,,,,,,,,,,,,,,,,,,,,,,,,,,,,,,,,,,,,,,,,,,,,,,
,,,,,,,,,R_ywJlRnprYwGbyOl,2022-09-01_19h20.26.149,jpn_C02,2022.1.2,Win32,60.10337781,,,,,,,,,,,,,,,,,,,,,,,,,0,9,9,11,1,CartoonStims/burglar_r.jpg,ドキ,CartoonStims/boxer_r.jpg,right,CartoonStims/boxer_r.jpg,audio/doki.mp3,残念！ こちらが正しい画像です。,,,,,,,,,,,,,,,,,,,,,,,,,,,,,,,,,,,,,,,,,,,,,,,,,,,,
,,,,,,,,,R_ywJlRnprYwGbyOl,2022-09-01_19h20.26.149,jpn_C02,2022.1.2,Win32,60.10337781,,,,,,,,,,,,,,,,,right,1,5.0917,,,,,,,,,,,,,,,,,,0,0,0,0,1,,,,,,,,,,,,,,,,,,,,,,,,,,,,,,,,,,,,,,,,,,,,,,,
,,,,,,,,,R_ywJlRnprYwGbyOl,2022-09-01_19h20.26.149,jpn_C02,2022.1.2,Win32,60.10337781,,,,,,,,,,,,,,,,,,,,,,,,,0,10,10,10,1,CartoonStims/artist_r.jpg,ピポ,CartoonStims/doctor_r.jpg,right,CartoonStims/doctor_r.jpg,audio/pipo.mp3,残念！ こちらが正しい画像です。,,,,,,,,,,,,,,,,,,,,,,,,,,,,,,,,,,,,,,,,,,,,,,,,,,,,
,,,,,,,,,R_ywJlRnprYwGbyOl,2022-09-01_19h20.26.149,jpn_C02,2022.1.2,Win32,60.10337781,,,,,,,,,,,,,,,,,right,1,1.2049,,,,,,,,,,,,,,,,,,0,0,0,0,1,,,,,,,,,,,,,,,,,,,,,,,,,,,,,,,,,,,,,,,,,,,,,,,
,,,,,,,,,R_ywJlRnprYwGbyOl,2022-09-01_19h20.26.149,jpn_C02,2022.1.2,Win32,60.10337781,,,,,,,,,,,,,,,,,,,,,,,,,0,11,11,7,1,CartoonStims/cowboy_r.jpg,ルピン,CartoonStims/burglar_r.jpg,right,CartoonStims/burglar_r.jpg,audio/lupin.mp3,残念！ こちらが正しい画像です。,,,,,,,,,,,,,,,,,,,,,,,,,,,,,,,,,,,,,,,,,,,,,,,,,,,,
,,,,,,,,,R_ywJlRnprYwGbyOl,2022-09-01_19h20.26.149,jpn_C02,2022.1.2,Win32,60.10337781,,,,,,,,,,,,,,,,,,,,,,,,,,,,,,,,,,,,,,,,,,,,,,,space,7.365,ルピン,right,16.3549,0,0,0,0,1,,,,,,,,,,,,,,,,,,,,,,,,,,,,,,,,
,,,,,,,,,R_ywJlRnprYwGbyOl,2022-09-01_19h20.26.149,jpn_C02,2022.1.2,Win32,60.10337781,,,,,,,,,,,,,CartoonStims/burglar_r.jpg,audio/lupin.mp3,,,,,,,,,,,,,,,,,,,,,,,,,,,,,,,,,,,,,,,,,,,0,0,0,1,1,ルピン,,,,,,,,,,,,,,,,,,,,,,,,,,
,,,,,,,,,R_ywJlRnprYwGbyOl,2022-09-01_19h20.26.149,jpn_C02,2022.1.2,Win32,60.10337781,,,,,,,,,,,,,,,,,,,,,,,,,,,,,,,,,,,,,,,,,,,,,,,,,ホレト,right,16.1172,0,0,0,0,1,,,,,,,,,,,,,,,,,,,,,,,,,,,,,,,,
,,,,,,,,,R_ywJlRnprYwGbyOl,2022-09-01_19h20.26.149,jpn_C02,2022.1.2,Win32,60.10337781,,,,,,,,,,,,,CartoonStims/cowboy_r.jpg,audio/muku.mp3,,,,,,,,,,,,,,,,,,,,,,,,,,,,,,,,,,,,,,,,,,,0,1,1,3,1,ムク,,,,,,,,,,,,,,,,,,,,,,,,,,
,,,,,,,,,R_ywJlRnprYwGbyOl,2022-09-01_19h20.26.149,jpn_C02,2022.1.2,Win32,60.10337781,,,,,,,,,,,,,,,,,,,,,,,,,,,,,,,,,,,,,,,,,,,,,,,,,ホレト,right,7.7567,0,0,0,0,1,,,,,,,,,,,,,,,,,,,,,,,,,,,,,,,,
,,,,,,,,,R_ywJlRnprYwGbyOl,2022-09-01_19h20.26.149,jpn_C02,2022.1.2,Win32,60.10337781,,,,,,,,,,,,,CartoonStims/artist_r.jpg,audio/sido.mp3,,,,,,,,,,,,,,,,,,,,,,,,,,,,,,,,,,,,,,,,,,,0,2,2,0,1,シド,,,,,,,,,,,,,,,,,,,,,,,,,,
,,,,,,,,,R_ywJlRnprYwGbyOl,2022-09-01_19h20.26.149,jpn_C02,2022.1.2,Win32,60.10337781,,,,,,,,,,,,,,,,,,,,,,,,,,,,,,,,,,,,,,,,,,,,,,,,,ホレト,right,7.0203,0,0,0,0,1,,,,,,,,,,,,,,,,,,,,,,,,,,,,,,,,
,,,,,,,,,R_ywJlRnprYwGbyOl,2022-09-01_19h20.26.149,jpn_C02,2022.1.2,Win32,60.10337781,,,,,,,,,,,,,CartoonStims/chef_r.jpg,audio/horeto.mp3,,,,,,,,,,,,,,,,,,,,,,,,,,,,,,,,,,,,,,,,,,,0,3,3,2,1,ホレト,,,,,,,,,,,,,,,,,,,,,,,,,,
,,,,,,,,,R_ywJlRnprYwGbyOl,2022-09-01_19h20.26.149,jpn_C02,2022.1.2,Win32,60.10337781,,,,,,,,,,,,,,,,,,,,,,,,,,,,,,,,,,,,,,,,,,,,,,,,,ドキ,right,4.8725,0,0,0,0,1,,,,,,,,,,,,,,,,,,,,,,,,,,,,,,,,
,,,,,,,,,R_ywJlRnprYwGbyOl,2022-09-01_19h20.26.149,jpn_C02,2022.1.2,Win32,60.10337781,,,,,,,,,,,,,CartoonStims/boxer_r.jpg,audio/doki.mp3,,,,,,,,,,,,,,,,,,,,,,,,,,,,,,,,,,,,,,,,,,,0,4,4,5,1,ドキ,,,,,,,,,,,,,,,,,,,,,,,,,,
,,,,,,,,,R_ywJlRnprYwGbyOl,2022-09-01_19h20.26.149,jpn_C02,2022.1.2,Win32,60.10337781,,,,,,,,,,,,,,,,,,,,,,,,,,,,,,,,,,,,,,,,,,,,,,,,,ピン,right,8.2467,0,0,0,0,1,,,,,,,,,,,,,,,,,,,,,,,,,,,,,,,,
,,,,,,,,,R_ywJlRnprYwGbyOl,2022-09-01_19h20.26.149,jpn_C02,2022.1.2,Win32,60.10337781,,,,,,,,,,,,,CartoonStims/doctor_r.jpg,audio/pipo.mp3,,,,,,,,,,,,,,,,,,,,,,,,,,,,,,,,,,,,,,,,,,,0,5,5,4,1,ピポ,,,,,,,,,,,,,,,,,,,,,,,,,,
,,,,,,,,,R_ywJlRnprYwGbyOl,2022-09-01_19h20.26.149,jpn_C02,2022.1.2,Win32,60.10337781,,,,,,,,,,,,,,,,,,,,,,,,,,,,,,,,,,,,,,,,,,,,,,,,,ムク,right,9.1405,0,0,0,0,1,,,,,,,,,,,,,,,,,,,,,,,,,,,,,,,,
,,,,,,,,,R_ywJlRnprYwGbyOl,2022-09-01_19h20.26.149,jpn_C02,2022.1.2,Win32,60.10337781,,,,,,,,,,,,,CartoonStims/cowboy_r.jpg,audio/muku.mp3,,,,,,,,,,,,,,,,,,,,,,,,,,,,,,,,,,,,,,,,,,,1,0,6,3,1,ムク,,,,,,,,,,,,,,,,,,,,,,,,,,
,,,,,,,,,R_ywJlRnprYwGbyOl,2022-09-01_19h20.26.149,jpn_C02,2022.1.2,Win32,60.10337781,,,,,,,,,,,,,,,,,,,,,,,,,,,,,,,,,,,,,,,,,,,,,,,,,ピポ,right,5.7524,0,0,0,0,1,,,,,,,,,,,,,,,,,,,,,,,,,,,,,,,,
,,,,,,,,,R_ywJlRnprYwGbyOl,2022-09-01_19h20.26.149,jpn_C02,2022.1.2,Win32,60.10337781,,,,,,,,,,,,,CartoonStims/doctor_r.jpg,audio/pipo.mp3,,,,,,,,,,,,,,,,,,,,,,,,,,,,,,,,,,,,,,,,,,,1,1,7,4,1,ピポ,,,,,,,,,,,,,,,,,,,,,,,,,,
,,,,,,,,,R_ywJlRnprYwGbyOl,2022-09-01_19h20.26.149,jpn_C02,2022.1.2,Win32,60.10337781,,,,,,,,,,,,,,,,,,,,,,,,,,,,,,,,,,,,,,,,,,,,,,,,,ホレト,right,17.0971,0,0,0,0,1,,,,,,,,,,,,,,,,,,,,,,,,,,,,,,,,
,,,,,,,,,R_ywJlRnprYwGbyOl,2022-09-01_19h20.26.149,jpn_C02,2022.1.2,Win32,60.10337781,,,,,,,,,,,,,CartoonStims/artist_r.jpg,audio/sido.mp3,,,,,,,,,,,,,,,,,,,,,,,,,,,,,,,,,,,,,,,,,,,1,2,8,0,1,シド,,,,,,,,,,,,,,,,,,,,,,,,,,
,,,,,,,,,R_ywJlRnprYwGbyOl,2022-09-01_19h20.26.149,jpn_C02,2022.1.2,Win32,60.10337781,,,,,,,,,,,,,,,,,,,,,,,,,,,,,,,,,,,,,,,,,,,,,,,,,ルピン,right,5.9515,0,0,0,0,1,,,,,,,,,,,,,,,,,,,,,,,,,,,,,,,,
,,,,,,,,,R_ywJlRnprYwGbyOl,2022-09-01_19h20.26.149,jpn_C02,2022.1.2,Win32,60.10337781,,,,,,,,,,,,,CartoonStims/burglar_r.jpg,audio/lupin.mp3,,,,,,,,,,,,,,,,,,,,,,,,,,,,,,,,,,,,,,,,,,,1,3,9,1,1,ルピン,,,,,,,,,,,,,,,,,,,,,,,,,,
,,,,,,,,,R_ywJlRnprYwGbyOl,2022-09-01_19h20.26.149,jpn_C02,2022.1.2,Win32,60.10337781,,,,,,,,,,,,,,,,,,,,,,,,,,,,,,,,,,,,,,,,,,,,,,,,,ドキ,right,5.7489,0,0,0,0,1,,,,,,,,,,,,,,,,,,,,,,,,,,,,,,,,
,,,,,,,,,R_ywJlRnprYwGbyOl,2022-09-01_19h20.26.149,jpn_C02,2022.1.2,Win32,60.10337781,,,,,,,,,,,,,CartoonStims/boxer_r.jpg,audio/doki.mp3,,,,,,,,,,,,,,,,,,,,,,,,,,,,,,,,,,,,,,,,,,,1,4,10,5,1,ドキ,,,,,,,,,,,,,,,,,,,,,,,,,,
,,,,,,,,,R_ywJlRnprYwGbyOl,2022-09-01_19h20.26.149,jpn_C02,2022.1.2,Win32,60.10337781,,,,,,,,,,,,,,,,,,,,,,,,,,,,,,,,,,,,,,,,,,,,,,,,,ホレト,right,6.835,0,0,0,0,1,,,,,,,,,,,,,,,,,,,,,,,,,,,,,,,,
,,,,,,,,,R_ywJlRnprYwGbyOl,2022-09-01_19h20.26.149,jpn_C02,2022.1.2,Win32,60.10337781,,,,,,,,,,,,,CartoonStims/chef_r.jpg,audio/horeto.mp3,,,,,,,,,,,,,,,,,,,,,,,,,,,,,,,,,,,,,,,,,,,1,5,11,2,1,ホレト,,,,,,,,,,,,,,,,,,,,,,,,,,
,,,,,,,,,R_ywJlRnprYwGbyOl,2022-09-01_19h20.26.149,jpn_C02,2022.1.2,Win32,60.10337781,,,,,,,,,,,,,,,,,,,,,,,,,,,,,,,,,,,,,,,,,,,,,,,,,,,,,,,,,,,,,,,,space,81.6066,0,0,0,0,1,NounExposure.xlsx,"最初のトライアルでは、 画像が表示され、 その画像の下に単語が出てきます。 またこの単語の音も聞くことができます。 この音を大きな声で復唱してください。 そしてこの画像がどのような単語を示しているのか, 考えてみてください。 その後、 続きのボタンを押すと次の単語の学習が始まります。

スペースキーを押して、学習を始めましょう。",3,NounFCT.xlsx,ここから語彙のクイズが始まります。スクリーンに表示される単語に合う画像をキーボードの右と左の矢印キーを使って選択してください。,NounTest.xlsx,2,次に、これまで学習してきたことをアウトプットしていただきます。 表示される画像を描写していると思う単語を、テキストボックスにタイプしてください。,1,"ここまでが最初のトライアルです。ここで休憩をとっても構いません。

休憩が済みましたら、スペースキーを押して続きを始めましょう。",,,,,,,,
,,,,,,,,,R_ywJlRnprYwGbyOl,2022-09-01_19h20.26.149,jpn_C02,2022.1.2,Win32,60.10337781,space,2.9499,space,9.8616,0,0,0,42,1,プミ　ムク　ルピン,,,CartoonStims/cowboy_punch_burglar_r.jpg,audio/pumimukulupin.mp3,,,,,,,,,,,,,,,,,,,,,,,,,,,,,,,,,,,,,,,,,,,,,,,,,,,,,,,,,,,,,,,,,,,,,,,,,,
,,,,,,,,,R_ywJlRnprYwGbyOl,2022-09-01_19h20.26.149,jpn_C02,2022.1.2,Win32,60.10337781,,,space,2.516,0,1,1,40,1,プミ　ホレト　シド,,,CartoonStims/chef_punch_artist_r.jpg,audio/pumihoretosido.mp3,,,,,,,,,,,,,,,,,,,,,,,,,,,,,,,,,,,,,,,,,,,,,,,,,,,,,,,,,,,,,,,,,,,,,,,,,,
,,,,,,,,,R_ywJlRnprYwGbyOl,2022-09-01_19h20.26.149,jpn_C02,2022.1.2,Win32,60.10337781,,,space,2.4838,0,2,2,6,1,セル　ムク　ピポ,,,CartoonStims/cowboy_kick_doctor_r.jpg,audio/serumukupipo.mp3,,,,,,,,,,,,,,,,,,,,,,,,,,,,,,,,,,,,,,,,,,,,,,,,,,,,,,,,,,,,,,,,,,,,,,,,,,
,,,,,,,,,R_ywJlRnprYwGbyOl,2022-09-01_19h20.26.149,jpn_C02,2022.1.2,Win32,60.10337781,,,space,1.7983,0,3,3,2,1,セル 　ルピン 　ホレト,,,CartoonStims/burglar_kick_chef_r.jpg,audio/serulupinhoreto.mp3,,,,,,,,,,,,,,,,,,,,,,,,,,,,,,,,,,,,,,,,,,,,,,,,,,,,,,,,,,,,,,,,,,,,,,,,,,
,,,,,,,,,R_ywJlRnprYwGbyOl,2022-09-01_19h20.26.149,jpn_C02,2022.1.2,Win32,60.10337781,,,space,2.4245,0,4,4,37,1,プミ　シド　ドキ,,,CartoonStims/artist_punch_boxer_r.jpg,audio/pumisidodoki.mp3,,,,,,,,,,,,,,,,,,,,,,,,,,,,,,,,,,,,,,,,,,,,,,,,,,,,,,,,,,,,,,,,,,,,,,,,,,
,,,,,,,,,R_ywJlRnprYwGbyOl,2022-09-01_19h20.26.149,jpn_C02,2022.1.2,Win32,60.10337781,,,space,1.9631,0,5,5,39,1,プミ　ルピン　シド,,,CartoonStims/burglar_punch_artist_r.jpg,audio/pumilupinsido.mp3,,,,,,,,,,,,,,,,,,,,,,,,,,,,,,,,,,,,,,,,,,,,,,,,,,,,,,,,,,,,,,,,,,,,,,,,,,
,,,,,,,,,R_ywJlRnprYwGbyOl,2022-09-01_19h20.26.149,jpn_C02,2022.1.2,Win32,60.10337781,,,space,1.5726,0,6,6,10,1,セル　ドキ　シド,,,CartoonStims/boxer_kick_artist_r.jpg,audio/serudokisido.mp3,,,,,,,,,,,,,,,,,,,,,,,,,,,,,,,,,,,,,,,,,,,,,,,,,,,,,,,,,,,,,,,,,,,,,,,,,,
,,,,,,,,,R_ywJlRnprYwGbyOl,2022-09-01_19h20.26.149,jpn_C02,2022.1.2,Win32,60.10337781,,,space,1.0051,0,7,7,46,1,プミ　ドキ　ムク,,,CartoonStims/boxer_punch_cowboy_r.jpg,audio/pumidokimuku.mp3,,,,,,,,,,,,,,,,,,,,,,,,,,,,,,,,,,,,,,,,,,,,,,,,,,,,,,,,,,,,,,,,,,,,,,,,,,
,,,,,,,,,R_ywJlRnprYwGbyOl,2022-09-01_19h20.26.149,jpn_C02,2022.1.2,Win32,60.10337781,,,space,1.9658,0,8,8,14,1,トマ　ルピン　ムク,,,CartoonStims/burglar_point_cowboy_r.jpg,audio/tomalupinmuku.mp3,,,,,,,,,,,,,,,,,,,,,,,,,,,,,,,,,,,,,,,,,,,,,,,,,,,,,,,,,,,,,,,,,,,,,,,,,,
,,,,,,,,,R_ywJlRnprYwGbyOl,2022-09-01_19h20.26.149,jpn_C02,2022.1.2,Win32,60.10337781,,,space,1.2376,0,9,9,25,1,パツ　シド　ピポ,,,CartoonStims/artist_shoot_doctor_r.jpg,audio/patsusidopipo.mp3,,,,,,,,,,,,,,,,,,,,,,,,,,,,,,,,,,,,,,,,,,,,,,,,,,,,,,,,,,,,,,,,,,,,,,,,,,
,,,,,,,,,R_ywJlRnprYwGbyOl,2022-09-01_19h20.26.149,jpn_C02,2022.1.2,Win32,60.10337781,,,space,1.3724,0,10,10,16,1,トマ　ホレト　ピポ,,,CartoonStims/chef_point_doctor_r.jpg,audio/tomahoretopipo.mp3,,,,,,,,,,,,,,,,,,,,,,,,,,,,,,,,,,,,,,,,,,,,,,,,,,,,,,,,,,,,,,,,,,,,,,,,,,
,,,,,,,,,R_ywJlRnprYwGbyOl,2022-09-01_19h20.26.149,jpn_C02,2022.1.2,Win32,60.10337781,,,space,0.1072,0,11,11,36,1,プミ　シド　ピポ,,,CartoonStims/artist_punch_doctor_r.jpg,audio/pumisidopipo.mp3,,,,,,,,,,,,,,,,,,,,,,,,,,,,,,,,,,,,,,,,,,,,,,,,,,,,,,,,,,,,,,,,,,,,,,,,,,
,,,,,,,,,R_ywJlRnprYwGbyOl,2022-09-01_19h20.26.149,jpn_C02,2022.1.2,Win32,60.10337781,,,space,0.1012,0,12,12,18,1,トマ　ムク　ドキ,,,CartoonStims/cowboy_point_boxer_r.jpg,audio/tomamukudoki.mp3,,,,,,,,,,,,,,,,,,,,,,,,,,,,,,,,,,,,,,,,,,,,,,,,,,,,,,,,,,,,,,,,,,,,,,,,,,
,,,,,,,,,R_ywJlRnprYwGbyOl,2022-09-01_19h20.26.149,jpn_C02,2022.1.2,Win32,60.10337781,,,space,0.0245,0,13,13,30,1,パツ　ムク　シド,,,CartoonStims/cowboy_shoot_artist_r.jpg,audio/patsumukusido.mp3,,,,,,,,,,,,,,,,,,,,,,,,,,,,,,,,,,,,,,,,,,,,,,,,,,,,,,,,,,,,,,,,,,,,,,,,,,
,,,,,,,,,R_ywJlRnprYwGbyOl,2022-09-01_19h20.26.149,jpn_C02,2022.1.2,Win32,60.10337781,,,space,0.6899,0,14,14,31,1,パツ　ムク　ルピン,,,CartoonStims/cowboy_shoot_burglar_r.jpg,audio/patsumukulupin.mp3,,,,,,,,,,,,,,,,,,,,,,,,,,,,,,,,,,,,,,,,,,,,,,,,,,,,,,,,,,,,,,,,,,,,,,,,,,
,,,,,,,,,R_ywJlRnprYwGbyOl,2022-09-01_19h20.26.149,jpn_C02,2022.1.2,Win32,60.10337781,,,space,0.0952,0,15,15,3,1,セル　ルピン　ムク,,,CartoonStims/burglar_kick_cowboy_r.jpg,audio/serulupinmuku.mp3,,,,,,,,,,,,,,,,,,,,,,,,,,,,,,,,,,,,,,,,,,,,,,,,,,,,,,,,,,,,,,,,,,,,,,,,,,
,,,,,,,,,R_ywJlRnprYwGbyOl,2022-09-01_19h20.26.149,jpn_C02,2022.1.2,Win32,60.10337781,,,space,0.6125,0,16,16,5,1,セル　ホレト　ピポ,,,CartoonStims/chef_kick_doctor_r.jpg,audio/seruhoretopipo.mp3,,,,,,,,,,,,,,,,,,,,,,,,,,,,,,,,,,,,,,,,,,,,,,,,,,,,,,,,,,,,,,,,,,,,,,,,,,
,,,,,,,,,R_ywJlRnprYwGbyOl,2022-09-01_19h20.26.149,jpn_C02,2022.1.2,Win32,60.10337781,,,space,0.0074,0,17,17,47,1,プミ　ドキ　ピポ,,,CartoonStims/boxer_punch_doctor_r.jpg,audio/pumidokipipo.mp3,,,,,,,,,,,,,,,,,,,,,,,,,,,,,,,,,,,,,,,,,,,,,,,,,,,,,,,,,,,,,,,,,,,,,,,,,,
,,,,,,,,,R_ywJlRnprYwGbyOl,2022-09-01_19h20.26.149,jpn_C02,2022.1.2,Win32,60.10337781,,,space,0.4359,0,18,18,34,1,パツ　ドキ　ホレト,,,CartoonStims/boxer_shoot_chef_r.jpg,audio/patsudokihoreto.mp3,,,,,,,,,,,,,,,,,,,,,,,,,,,,,,,,,,,,,,,,,,,,,,,,,,,,,,,,,,,,,,,,,,,,,,,,,,
,,,,,,,,,R_ywJlRnprYwGbyOl,2022-09-01_19h20.26.149,jpn_C02,2022.1.2,Win32,60.10337781,,,space,0.2016,0,19,19,7,1,セル　ムク　ドキ,,,CartoonStims/cowboy_kick_boxer_r.jpg,audio/serumukudoki.mp3,,,,,,,,,,,,,,,,,,,,,,,,,,,,,,,,,,,,,,,,,,,,,,,,,,,,,,,,,,,,,,,,,,,,,,,,,,
,,,,,,,,,R_ywJlRnprYwGbyOl,2022-09-01_19h20.26.149,jpn_C02,2022.1.2,Win32,60.10337781,,,space,0.1384,0,20,20,35,1,パツ　ドキ　ムク,,,CartoonStims/boxer_shoot_cowboy_r.jpg,audio/patsudokimuku.mp3,,,,,,,,,,,,,,,,,,,,,,,,,,,,,,,,,,,,,,,,,,,,,,,,,,,,,,,,,,,,,,,,,,,,,,,,,,
,,,,,,,,,R_ywJlRnprYwGbyOl,2022-09-01_19h20.26.149,jpn_C02,2022.1.2,Win32,60.10337781,,,space,0.0148,0,21,21,21,1,トマ　ピポ　ルピン,,,CartoonStims/doctor_point_burglar_r.jpg,audio/tomapipolupin.mp3,,,,,,,,,,,,,,,,,,,,,,,,,,,,,,,,,,,,,,,,,,,,,,,,,,,,,,,,,,,,,,,,,,,,,,,,,,
,,,,,,,,,R_ywJlRnprYwGbyOl,2022-09-01_19h20.26.149,jpn_C02,2022.1.2,Win32,60.10337781,,,space,0.1047,0,22,22,9,1,セル　ピポ　シド,,,CartoonStims/doctor_kick_artist_r.jpg,audio/serupiposido.mp3,,,,,,,,,,,,,,,,,,,,,,,,,,,,,,,,,,,,,,,,,,,,,,,,,,,,,,,,,,,,,,,,,,,,,,,,,,
,,,,,,,,,R_ywJlRnprYwGbyOl,2022-09-01_19h20.26.149,jpn_C02,2022.1.2,Win32,60.10337781,,,space,0.0314,0,23,23,44,1,プミ　ピポ　ホレト,,,CartoonStims/doctor_punch_chef_r.jpg,audio/pumipipohoreto.mp3,,,,,,,,,,,,,,,,,,,,,,,,,,,,,,,,,,,,,,,,,,,,,,,,,,,,,,,,,,,,,,,,,,,,,,,,,,
,,,,,,,,,R_ywJlRnprYwGbyOl,2022-09-01_19h20.26.149,jpn_C02,2022.1.2,Win32,60.10337781,,,space,0.5057,0,24,24,13,1,トマ　シド　ムク,,,CartoonStims/artist_point_cowboy_r.jpg,audio/tomasidomuku.mp3,,,,,,,,,,,,,,,,,,,,,,,,,,,,,,,,,,,,,,,,,,,,,,,,,,,,,,,,,,,,,,,,,,,,,,,,,,
,,,,,,,,,R_ywJlRnprYwGbyOl,2022-09-01_19h20.26.149,jpn_C02,2022.1.2,Win32,60.10337781,,,space,0.2224,0,25,25,27,1,パツ　ルピン　ドキ,,,CartoonStims/burglar_shoot_boxer_r.jpg,audio/patsulupindoki.mp3,,,,,,,,,,,,,,,,,,,,,,,,,,,,,,,,,,,,,,,,,,,,,,,,,,,,,,,,,,,,,,,,,,,,,,,,,,
,,,,,,,,,R_ywJlRnprYwGbyOl,2022-09-01_19h20.26.149,jpn_C02,2022.1.2,Win32,60.10337781,,,space,0.2729,0,26,26,38,1,プミ　ルピン　ドキ,,,CartoonStims/burglar_punch_boxer_r.jpg,audio/pumilupindoki.mp3,,,,,,,,,,,,,,,,,,,,,,,,,,,,,,,,,,,,,,,,,,,,,,,,,,,,,,,,,,,,,,,,,,,,,,,,,,
,,,,,,,,,R_ywJlRnprYwGbyOl,2022-09-01_19h20.26.149,jpn_C02,2022.1.2,Win32,60.10337781,,,space,0.8951,0,27,27,45,1,プミ　ピポ　ムク,,,CartoonStims/doctor_punch_cowboy_r.jpg,audio/pumipipomuku.mp3,,,,,,,,,,,,,,,,,,,,,,,,,,,,,,,,,,,,,,,,,,,,,,,,,,,,,,,,,,,,,,,,,,,,,,,,,,
,,,,,,,,,R_ywJlRnprYwGbyOl,2022-09-01_19h20.26.149,jpn_C02,2022.1.2,Win32,60.10337781,,,space,0.1946,0,28,28,17,1,トマ　ホレト　ドキ,,,CartoonStims/chef_point_boxer_r.jpg,audio/tomahoretodoki.mp3,,,,,,,,,,,,,,,,,,,,,,,,,,,,,,,,,,,,,,,,,,,,,,,,,,,,,,,,,,,,,,,,,,,,,,,,,,
,,,,,,,,,R_ywJlRnprYwGbyOl,2022-09-01_19h20.26.149,jpn_C02,2022.1.2,Win32,60.10337781,,,space,0.5339,0,29,29,1,1,セル 　シド 　ホレト,,,CartoonStims/artist_kick_chef_r.jpg,audio/serusidohoreto.mp3,,,,,,,,,,,,,,,,,,,,,,,,,,,,,,,,,,,,,,,,,,,,,,,,,,,,,,,,,,,,,,,,,,,,,,,,,,
,,,,,,,,,R_ywJlRnprYwGbyOl,2022-09-01_19h20.26.149,jpn_C02,2022.1.2,Win32,60.10337781,,,space,0.2017,0,30,30,43,1,プミ　ムク　ホレト,,,CartoonStims/cowboy_punch_chef_r.jpg,audio/pumimukuhoreto.mp3,,,,,,,,,,,,,,,,,,,,,,,,,,,,,,,,,,,,,,,,,,,,,,,,,,,,,,,,,,,,,,,,,,,,,,,,,,
,,,,,,,,,R_ywJlRnprYwGbyOl,2022-09-01_19h20.26.149,jpn_C02,2022.1.2,Win32,60.10337781,,,space,0.8441,0,31,31,26,1,パツ　ルピン　ピポ,,,CartoonStims/burglar_shoot_doctor_r.jpg,audio/patsulupinpipo.mp3,,,,,,,,,,,,,,,,,,,,,,,,,,,,,,,,,,,,,,,,,,,,,,,,,,,,,,,,,,,,,,,,,,,,,,,,,,
,,,,,,,,,R_ywJlRnprYwGbyOl,2022-09-01_19h20.26.149,jpn_C02,2022.1.2,Win32,60.10337781,,,space,1.2352,0,32,32,23,1,トマ　ドキ　ホレト,,,CartoonStims/boxer_point_chef_r.jpg,audio/tomadokihoreto.mp3,,,,,,,,,,,,,,,,,,,,,,,,,,,,,,,,,,,,,,,,,,,,,,,,,,,,,,,,,,,,,,,,,,,,,,,,,,
,,,,,,,,,R_ywJlRnprYwGbyOl,2022-09-01_19h20.26.149,jpn_C02,2022.1.2,Win32,60.10337781,,,space,0.1529,0,33,33,12,1,トマ　シド　ホレト,,,CartoonStims/artist_point_chef_r.jpg,audio/tomasidohoreto.mp3,,,,,,,,,,,,,,,,,,,,,,,,,,,,,,,,,,,,,,,,,,,,,,,,,,,,,,,,,,,,,,,,,,,,,,,,,,
,,,,,,,,,R_ywJlRnprYwGbyOl,2022-09-01_19h20.26.149,jpn_C02,2022.1.2,Win32,60.10337781,,,space,0.2377,0,34,34,24,1,パツ　シド　ムク,,,CartoonStims/artist_shoot_cowboy_r.jpg,audio/patsusidomuku.mp3,,,,,,,,,,,,,,,,,,,,,,,,,,,,,,,,,,,,,,,,,,,,,,,,,,,,,,,,,,,,,,,,,,,,,,,,,,
,,,,,,,,,R_ywJlRnprYwGbyOl,2022-09-01_19h20.26.149,jpn_C02,2022.1.2,Win32,60.10337781,,,space,0.0755,0,35,35,20,1,トマ　ピポ　シド,,,CartoonStims/doctor_point_artist_r.jpg,audio/tomapiposido.mp3,,,,,,,,,,,,,,,,,,,,,,,,,,,,,,,,,,,,,,,,,,,,,,,,,,,,,,,,,,,,,,,,,,,,,,,,,,
,,,,,,,,,R_ywJlRnprYwGbyOl,2022-09-01_19h20.26.149,jpn_C02,2022.1.2,Win32,60.10337781,,,space,0.1341,0,36,36,4,1,セル　ホレト　ムク,,,CartoonStims/chef_kick_cowboy_r.jpg,audio/seruhoretomuku.mp3,,,,,,,,,,,,,,,,,,,,,,,,,,,,,,,,,,,,,,,,,,,,,,,,,,,,,,,,,,,,,,,,,,,,,,,,,,
,,,,,,,,,R_ywJlRnprYwGbyOl,2022-09-01_19h20.26.149,jpn_C02,2022.1.2,Win32,60.10337781,,,space,0.522,0,37,37,15,1,トマ　ルピン　ピポ,,,CartoonStims/burglar_point_doctor_r.jpg,audio/tomalupinpipo.mp3,,,,,,,,,,,,,,,,,,,,,,,,,,,,,,,,,,,,,,,,,,,,,,,,,,,,,,,,,,,,,,,,,,,,,,,,,,
,,,,,,,,,R_ywJlRnprYwGbyOl,2022-09-01_19h20.26.149,jpn_C02,2022.1.2,Win32,60.10337781,,,space,0.3176,0,38,38,19,1,トマ　ムク　シド,,,CartoonStims/cowboy_point_artist_r.jpg,audio/tomamukusido.mp3,,,,,,,,,,,,,,,,,,,,,,,,,,,,,,,,,,,,,,,,,,,,,,,,,,,,,,,,,,,,,,,,,,,,,,,,,,
,,,,,,,,,R_ywJlRnprYwGbyOl,2022-09-01_19h20.26.149,jpn_C02,2022.1.2,Win32,60.10337781,,,space,0.3317,0,39,39,8,1,セル　ピポ　ドキ,,,CartoonStims/doctor_kick_boxer_r.jpg,audio/serupipodoki.mp3,,,,,,,,,,,,,,,,,,,,,,,,,,,,,,,,,,,,,,,,,,,,,,,,,,,,,,,,,,,,,,,,,,,,,,,,,,
,,,,,,,,,R_ywJlRnprYwGbyOl,2022-09-01_19h20.26.149,jpn_C02,2022.1.2,Win32,60.10337781,,,space,0.4397,0,40,40,28,1,パツ　ホレト　ドキ,,,CartoonStims/chef_shoot_boxer_r.jpg,audio/patsuhoretodoki.mp3,,,,,,,,,,,,,,,,,,,,,,,,,,,,,,,,,,,,,,,,,,,,,,,,,,,,,,,,,,,,,,,,,,,,,,,,,,
,,,,,,,,,R_ywJlRnprYwGbyOl,2022-09-01_19h20.26.149,jpn_C02,2022.1.2,Win32,60.10337781,,,space,0.2571,0,41,41,29,1,パツ　ホレト　シド,,,CartoonStims/chef_shoot_artist_r.jpg,audio/patsuhoretosido.mp3,,,,,,,,,,,,,,,,,,,,,,,,,,,,,,,,,,,,,,,,,,,,,,,,,,,,,,,,,,,,,,,,,,,,,,,,,,
,,,,,,,,,R_ywJlRnprYwGbyOl,2022-09-01_19h20.26.149,jpn_C02,2022.1.2,Win32,60.10337781,,,space,0.0803,0,42,42,33,1,パツ　ピポ　ホレト,,,CartoonStims/doctor_shoot_chef_r.jpg,audio/patsupipohoreto.mp3,,,,,,,,,,,,,,,,,,,,,,,,,,,,,,,,,,,,,,,,,,,,,,,,,,,,,,,,,,,,,,,,,,,,,,,,,,
,,,,,,,,,R_ywJlRnprYwGbyOl,2022-09-01_19h20.26.149,jpn_C02,2022.1.2,Win32,60.10337781,,,space,0.217,0,43,43,32,1,パツ　ピポ　ルピン,,,CartoonStims/doctor_shoot_burglar_r.jpg,audio/patsupipolupin.mp3,,,,,,,,,,,,,,,,,,,,,,,,,,,,,,,,,,,,,,,,,,,,,,,,,,,,,,,,,,,,,,,,,,,,,,,,,,
,,,,,,,,,R_ywJlRnprYwGbyOl,2022-09-01_19h20.26.149,jpn_C02,2022.1.2,Win32,60.10337781,,,space,0.1692,0,44,44,22,1,トマ　ドキ　ルピン,,,CartoonStims/boxer_point_burglar_r.jpg,audio/tomadokilupin.mp3,,,,,,,,,,,,,,,,,,,,,,,,,,,,,,,,,,,,,,,,,,,,,,,,,,,,,,,,,,,,,,,,,,,,,,,,,,
,,,,,,,,,R_ywJlRnprYwGbyOl,2022-09-01_19h20.26.149,jpn_C02,2022.1.2,Win32,60.10337781,,,space,0.0947,0,45,45,0,1,セル　シド　ルピン,,,CartoonStims/artist_kick_burglar_r.jpg,audio/serusidolupin.mp3,,,,,,,,,,,,,,,,,,,,,,,,,,,,,,,,,,,,,,,,,,,,,,,,,,,,,,,,,,,,,,,,,,,,,,,,,,
,,,,,,,,,R_ywJlRnprYwGbyOl,2022-09-01_19h20.26.149,jpn_C02,2022.1.2,Win32,60.10337781,,,space,0.0347,0,46,46,11,1,セル　ドキ　ルピン,,,CartoonStims/boxer_kick_burglar_r.jpg,audio/serudokilupin.mp3,,,,,,,,,,,,,,,,,,,,,,,,,,,,,,,,,,,,,,,,,,,,,,,,,,,,,,,,,,,,,,,,,,,,,,,,,,
,,,,,,,,,R_ywJlRnprYwGbyOl,2022-09-01_19h20.26.149,jpn_C02,2022.1.2,Win32,60.10337781,,,space,45.9155,0,47,47,41,1,プミ　ホレト　ルピン,,,CartoonStims/chef_punch_burglar_r.jpg,audio/pumihoretolupin.mp3,,,,,,,,,,,,,,,,,,,,,,,,,,,,,,,,,,,,,,,,,,,,,,,,,,,,,,,,,,,,,,,,,,,,,,,,,,
,,,,,,,,,R_ywJlRnprYwGbyOl,2022-09-01_19h20.26.149,jpn_C02,2022.1.2,Win32,60.10337781,,,,,,,,,,,,,,,space,0.2391,right,1,7.0854,,,,,,,,,,,,,,,,,,0,0,0,0,1,,,,,,,,,,,,,,,,,,,,,,,,,,,,,,,,,,,,,,,,,,,,,,,
,,,,,,,,,R_ywJlRnprYwGbyOl,2022-09-01_19h20.26.149,jpn_C02,2022.1.2,Win32,60.10337781,,,,,,,,,,,,,,,,,,,,,,,,,0,0,0,11,1,CartoonStims/burglar_punch_cowboy_r.jpg,プミ　ホレト　ムク,CartoonStims/chef_punch_cowboy_r.jpg,right,CartoonStims/chef_punch_cowboy_r.jpg,audio/pumihoretomuku.mp3,残念！ こちらが正しい画像です。,,,,,,,,,,,,,,,,,,,,,,,,,,,,,,,,,,,,,,,,,,,,,,,,,,,,
,,,,,,,,,R_ywJlRnprYwGbyOl,2022-09-01_19h20.26.149,jpn_C02,2022.1.2,Win32,60.10337781,,,,,,,,,,,,,,,,,right,1,4.9385,,,,,,,,,,,,,,,,,,0,0,0,0,1,,,,,,,,,,,,,,,,,,,,,,,,,,,,,,,,,,,,,,,,,,,,,,,
,,,,,,,,,R_ywJlRnprYwGbyOl,2022-09-01_19h20.26.149,jpn_C02,2022.1.2,Win32,60.10337781,,,,,,,,,,,,,,,,,,,,,,,,,0,1,1,5,1,CartoonStims/cowboy_point_chef_r.jpg,パツ　ムク　ホレト,CartoonStims/cowboy_shoot_chef_r.jpg,right,CartoonStims/cowboy_shoot_chef_r.jpg,audio/patsumukuhoreto.mp3,残念！ こちらが正しい画像です。,,,,,,,,,,,,,,,,,,,,,,,,,,,,,,,,,,,,,,,,,,,,,,,,,,,,
,,,,,,,,,R_ywJlRnprYwGbyOl,2022-09-01_19h20.26.149,jpn_C02,2022.1.2,Win32,60.10337781,,,,,,,,,,,,,,,,,right,1,7.3153,,,,,,,,,,,,,,,,,,0,0,0,0,1,,,,,,,,,,,,,,,,,,,,,,,,,,,,,,,,,,,,,,,,,,,,,,,
,,,,,,,,,R_ywJlRnprYwGbyOl,2022-09-01_19h20.26.149,jpn_C02,2022.1.2,Win32,60.10337781,,,,,,,,,,,,,,,,,,,,,,,,,0,2,2,9,1,CartoonStims/chef_kick_artist_r.jpg,セル　ムク　シド,CartoonStims/cowboy_kick_artist_r.jpg,right,CartoonStims/cowboy_kick_artist_r.jpg,audio/serumukusido.mp3,残念！ こちらが正しい画像です。,,,,,,,,,,,,,,,,,,,,,,,,,,,,,,,,,,,,,,,,,,,,,,,,,,,,
,,,,,,,,,R_ywJlRnprYwGbyOl,2022-09-01_19h20.26.149,jpn_C02,2022.1.2,Win32,60.10337781,,,,,,,,,,,,,,,,,right,1,1.6234,,,,,,,,,,,,,,,,,,0,0,0,0,1,,,,,,,,,,,,,,,,,,,,,,,,,,,,,,,,,,,,,,,,,,,,,,,
,,,,,,,,,R_ywJlRnprYwGbyOl,2022-09-01_19h20.26.149,jpn_C02,2022.1.2,Win32,60.10337781,,,,,,,,,,,,,,,,,,,,,,,,,0,3,3,1,1,CartoonStims/chef_point_burglar_r.jpg,トマ　ホレト　シド,CartoonStims/chef_point_artist_r.jpg,right,CartoonStims/chef_point_artist_r.jpg,audio/tomahoretosido.mp3,残念！ こちらが正しい画像です。,,,,,,,,,,,,,,,,,,,,,,,,,,,,,,,,,,,,,,,,,,,,,,,,,,,,
,,,,,,,,,R_ywJlRnprYwGbyOl,2022-09-01_19h20.26.149,jpn_C02,2022.1.2,Win32,60.10337781,,,,,,,,,,,,,,,,,left,1,3.2252,0,0,0,0,1,,,,,,,,,,,,,,,,,,,,,,,,,,,,,,,,,,,,,,,,,,,,,,,,,,,,,,,,,,,,,,,,
,,,,,,,,,R_ywJlRnprYwGbyOl,2022-09-01_19h20.26.149,jpn_C02,2022.1.2,Win32,60.10337781,,,,,,,,,,,,,,,,,,,,,,,,,0,4,4,6,1,CartoonStims/doctor_punch_boxer_r.jpg,プミ　ピポ　ドキ,CartoonStims/doctor_shoot_boxer_r.jpg,left,CartoonStims/doctor_punch_boxer_r.jpg,audio/pumipipodoki.mp3,残念！ こちらが正しい画像です。,,,,,,,,,,,,,,,,,,,,,,,,,,,,,,,,,,,,,,,,,,,,,,,,,,,,
,,,,,,,,,R_ywJlRnprYwGbyOl,2022-09-01_19h20.26.149,jpn_C02,2022.1.2,Win32,60.10337781,,,,,,,,,,,,,,,,,left,1,9.095,0,0,0,0,1,,,,,,,,,,,,,,,,,,,,,,,,,,,,,,,,,,,,,,,,,,,,,,,,,,,,,,,,,,,,,,,,
,,,,,,,,,R_ywJlRnprYwGbyOl,2022-09-01_19h20.26.149,jpn_C02,2022.1.2,Win32,60.10337781,,,,,,,,,,,,,,,,,,,,,,,,,0,5,5,4,1,CartoonStims/burglar_point_boxer_r.jpg,トマ　ルピン　ドキ,CartoonStims/burglar_kick_boxer_r.jpg,left,CartoonStims/burglar_point_boxer_r.jpg,audio/tomalupindoki.mp3,残念！ こちらが正しい画像です。,,,,,,,,,,,,,,,,,,,,,,,,,,,,,,,,,,,,,,,,,,,,,,,,,,,,
,,,,,,,,,R_ywJlRnprYwGbyOl,2022-09-01_19h20.26.149,jpn_C02,2022.1.2,Win32,60.10337781,,,,,,,,,,,,,,,,,left,1,13.3272,0,0,0,0,1,,,,,,,,,,,,,,,,,,,,,,,,,,,,,,,,,,,,,,,,,,,,,,,,,,,,,,,,,,,,,,,,
,,,,,,,,,R_ywJlRnprYwGbyOl,2022-09-01_19h20.26.149,jpn_C02,2022.1.2,Win32,60.10337781,,,,,,,,,,,,,,,,,,,,,,,,,0,6,6,2,1,CartoonStims/boxer_shoot_doctor_r.jpg,パツ　ドキ　ピポ,CartoonStims/boxer_shoot_artist_r.jpg,left,CartoonStims/boxer_shoot_doctor_r.jpg,audio/patsudokipipo.mp3,残念！ こちらが正しい画像です。,,,,,,,,,,,,,,,,,,,,,,,,,,,,,,,,,,,,,,,,,,,,,,,,,,,,
,,,,,,,,,R_ywJlRnprYwGbyOl,2022-09-01_19h20.26.149,jpn_C02,2022.1.2,Win32,60.10337781,,,,,,,,,,,,,,,,,left,1,7.2717,0,0,0,0,1,,,,,,,,,,,,,,,,,,,,,,,,,,,,,,,,,,,,,,,,,,,,,,,,,,,,,,,,,,,,,,,,
,,,,,,,,,R_ywJlRnprYwGbyOl,2022-09-01_19h20.26.149,jpn_C02,2022.1.2,Win32,60.10337781,,,,,,,,,,,,,,,,,,,,,,,,,0,7,7,10,1,CartoonStims/artist_shoot_burglar_r.jpg,パツ　シド　ルピン,CartoonStims/chef_shoot_burglar_r.jpg,left,CartoonStims/artist_shoot_burglar_r.jpg,audio/patsusidolupin.mp3,残念！ こちらが正しい画像です。,,,,,,,,,,,,,,,,,,,,,,,,,,,,,,,,,,,,,,,,,,,,,,,,,,,,
,,,,,,,,,R_ywJlRnprYwGbyOl,2022-09-01_19h20.26.149,jpn_C02,2022.1.2,Win32,60.10337781,,,,,,,,,,,,,,,,,right,1,5.009,,,,,,,,,,,,,,,,,,0,0,0,0,1,,,,,,,,,,,,,,,,,,,,,,,,,,,,,,,,,,,,,,,,,,,,,,,
,,,,,,,,,R_ywJlRnprYwGbyOl,2022-09-01_19h20.26.149,jpn_C02,2022.1.2,Win32,60.10337781,,,,,,,,,,,,,,,,,,,,,,,,,0,8,8,7,1,CartoonStims/artist_punch_cowboy_r.jpg,セル　シド　ムク,CartoonStims/artist_kick_cowboy_r.jpg,right,CartoonStims/artist_kick_cowboy_r.jpg,audio/serusidomuku.mp3,残念！ こちらが正しい画像です。,,,,,,,,,,,,,,,,,,,,,,,,,,,,,,,,,,,,,,,,,,,,,,,,,,,,
,,,,,,,,,R_ywJlRnprYwGbyOl,2022-09-01_19h20.26.149,jpn_C02,2022.1.2,Win32,60.10337781,,,,,,,,,,,,,,,,,left,1,37.9099,0,0,0,0,1,,,,,,,,,,,,,,,,,,,,,,,,,,,,,,,,,,,,,,,,,,,,,,,,,,,,,,,,,,,,,,,,
,,,,,,,,,R_ywJlRnprYwGbyOl,2022-09-01_19h20.26.149,jpn_C02,2022.1.2,Win32,60.10337781,,,,,,,,,,,,,,,,,,,,,,,,,0,9,9,0,1,CartoonStims/doctor_kick_burglar_r.jpg,セル　ピポ　ルピン,CartoonStims/doctor_kick_chef_r.jpg,left,CartoonStims/doctor_kick_burglar_r.jpg,audio/serupipolupin.mp3,残念！ こちらが正しい画像です。,,,,,,,,,,,,,,,,,,,,,,,,,,,,,,,,,,,,,,,,,,,,,,,,,,,,
,,,,,,,,,R_ywJlRnprYwGbyOl,2022-09-01_19h20.26.149,jpn_C02,2022.1.2,Win32,60.10337781,,,,,,,,,,,,,,,,,right,1,2.3105,,,,,,,,,,,,,,,,,,0,0,0,0,1,,,,,,,,,,,,,,,,,,,,,,,,,,,,,,,,,,,,,,,,,,,,,,,
,,,,,,,,,R_ywJlRnprYwGbyOl,2022-09-01_19h20.26.149,jpn_C02,2022.1.2,Win32,60.10337781,,,,,,,,,,,,,,,,,,,,,,,,,0,10,10,3,1,CartoonStims/cowboy_punch_doctor_r.jpg,プミ　ムク　ドキ,CartoonStims/cowboy_punch_boxer_r.jpg,right,CartoonStims/cowboy_punch_boxer_r.jpg,audio/pumimukudoki.mp3,残念！ こちらが正しい画像です。,,,,,,,,,,,,,,,,,,,,,,,,,,,,,,,,,,,,,,,,,,,,,,,,,,,,
,,,,,,,,,R_ywJlRnprYwGbyOl,2022-09-01_19h20.26.149,jpn_C02,2022.1.2,Win32,60.10337781,,,,,,,,,,,,,,,,,left,1,22.4297,0,0,0,0,1,,,,,,,,,,,,,,,,,,,,,,,,,,,,,,,,,,,,,,,,,,,,,,,,,,,,,,,,,,,,,,,,
,,,,,,,,,R_ywJlRnprYwGbyOl,2022-09-01_19h20.26.149,jpn_C02,2022.1.2,Win32,60.10337781,,,,,,,,,,,,,,,,,,,,,,,,,0,11,11,8,1,CartoonStims/doctor_point_cowboy_r.jpg,トマ　ピポ　ムク,CartoonStims/boxer_point_cowboy_r.jpg,left,CartoonStims/doctor_point_cowboy_r.jpg,audio/tomapipomuku.mp3,残念！ こちらが正しい画像です。,,,,,,,,,,,,,,,,,,,,,,,,,,,,,,,,,,,,,,,,,,,,,,,,,,,,
,,,,,,,,,R_ywJlRnprYwGbyOl,2022-09-01_19h20.26.149,jpn_C02,2022.1.2,Win32,60.10337781,,,,,,,,,,,,,,,,,,,,,,,,,,,,,,,,,,,,,,,,,,,,,,,space,44.9957,ドキ,right,9.1588,0,0,0,0,1,,,,,,,,,,,,,,,,,,,,,,,,,,,,,,,,
,,,,,,,,,R_ywJlRnprYwGbyOl,2022-09-01_19h20.26.149,jpn_C02,2022.1.2,Win32,60.10337781,,,,,,,,,,,,,CartoonStims/artist_point_boxer_r.jpg,audio/tomasidodoki.mp3,,,,,,,,,,,,,,,,,,,,,,,,,,,,,,,,,,,,,,,,,,,0,0,0,3,1,トマ　シド　ドキ,,,,,,,,,,,,,,,,,,,,,,,,,,
,,,,,,,,,R_ywJlRnprYwGbyOl,2022-09-01_19h20.26.149,jpn_C02,2022.1.2,Win32,60.10337781,,,,,,,,,,,,,,,,,,,,,,,,,,,,,,,,,,,,,,,,,,,,,,,,,発,right,6.1335,0,0,0,0,1,,,,,,,,,,,,,,,,,,,,,,,,,,,,,,,,
,,,,,,,,,R_ywJlRnprYwGbyOl,2022-09-01_19h20.26.149,jpn_C02,2022.1.2,Win32,60.10337781,,,,,,,,,,,,,CartoonStims/chef_shoot_cowboy_r.jpg,audio/patsuhoretomuku.mp3,,,,,,,,,,,,,,,,,,,,,,,,,,,,,,,,,,,,,,,,,,,0,1,1,7,1,パツ　ホレト　ムク,,,,,,,,,,,,,,,,,,,,,,,,,,
,,,,,,,,,R_ywJlRnprYwGbyOl,2022-09-01_19h20.26.149,jpn_C02,2022.1.2,Win32,60.10337781,,,,,,,,,,,,,,,,,,,,,,,,,,,,,,,,,,,,,,,,,,,,,,,,,セル　ムク　ドキ,right,34.0932,0,0,0,0,1,,,,,,,,,,,,,,,,,,,,,,,,,,,,,,,,
,,,,,,,,,R_ywJlRnprYwGbyOl,2022-09-01_19h20.26.149,jpn_C02,2022.1.2,Win32,60.10337781,,,,,,,,,,,,,CartoonStims/boxer_kick_cowboy_r.jpg,audio/serudokimuku.mp3,,,,,,,,,,,,,,,,,,,,,,,,,,,,,,,,,,,,,,,,,,,0,2,2,2,1,セル　ドキ　ムク,,,,,,,,,,,,,,,,,,,,,,,,,,
,,,,,,,,,R_ywJlRnprYwGbyOl,2022-09-01_19h20.26.149,jpn_C02,2022.1.2,Win32,60.10337781,,,,,,,,,,,,,,,,,,,,,,,,,,,,,,,,,,,,,,,,,,,,,,,,,ああ,right,5.1012,0,0,0,0,1,,,,,,,,,,,,,,,,,,,,,,,,,,,,,,,,
,,,,,,,,,R_ywJlRnprYwGbyOl,2022-09-01_19h20.26.149,jpn_C02,2022.1.2,Win32,60.10337781,,,,,,,,,,,,,CartoonStims/chef_point_burglar_r.jpg,audio/tomahoretolupin.mp3,,,,,,,,,,,,,,,,,,,,,,,,,,,,,,,,,,,,,,,,,,,0,3,3,5,1,トマ　ホレト　ルピン,,,,,,,,,,,,,,,,,,,,,,,,,,
,,,,,,,,,R_ywJlRnprYwGbyOl,2022-09-01_19h20.26.149,jpn_C02,2022.1.2,Win32,60.10337781,,,,,,,,,,,,,,,,,,,,,,,,,,,,,,,,,,,,,,,,,,,,,,,,,セル　シド　ホレト,right,22.3508,0,0,0,0,1,,,,,,,,,,,,,,,,,,,,,,,,,,,,,,,,
,,,,,,,,,R_ywJlRnprYwGbyOl,2022-09-01_19h20.26.149,jpn_C02,2022.1.2,Win32,60.10337781,,,,,,,,,,,,,CartoonStims/doctor_kick_chef_r.jpg,audio/serupipohoreto.mp3,,,,,,,,,,,,,,,,,,,,,,,,,,,,,,,,,,,,,,,,,,,0,4,4,1,1,セル　ピポ　ホレト,,,,,,,,,,,,,,,,,,,,,,,,,,
,,,,,,,,,R_ywJlRnprYwGbyOl,2022-09-01_19h20.26.149,jpn_C02,2022.1.2,Win32,60.10337781,,,,,,,,,,,,,,,,,,,,,,,,,,,,,,,,,,,,,,,,,,,,,,,,,,right,0.2758,0,0,0,0,1,,,,,,,,,,,,,,,,,,,,,,,,,,,,,,,,
,,,,,,,,,R_ywJlRnprYwGbyOl,2022-09-01_19h20.26.149,jpn_C02,2022.1.2,Win32,60.10337781,,,,,,,,,,,,,CartoonStims/cowboy_shoot_doctor_r.jpg,audio/patsumukupipo.mp3,,,,,,,,,,,,,,,,,,,,,,,,,,,,,,,,,,,,,,,,,,,0,5,5,8,1,パツ　ムク　ピポ,,,,,,,,,,,,,,,,,,,,,,,,,,
,,,,,,,,,R_ywJlRnprYwGbyOl,2022-09-01_19h20.26.149,jpn_C02,2022.1.2,Win32,60.10337781,,,,,,,,,,,,,,,,,,,,,,,,,,,,,,,,,,,,,,,,,,,,,,,,,,right,2.8357,0,0,0,0,1,,,,,,,,,,,,,,,,,,,,,,,,,,,,,,,,
,,,,,,,,,R_ywJlRnprYwGbyOl,2022-09-01_19h20.26.149,jpn_C02,2022.1.2,Win32,60.10337781,,,,,,,,,,,,,CartoonStims/artist_punch_burglar_r.jpg,audio/pumisidolupin.mp3,,,,,,,,,,,,,,,,,,,,,,,,,,,,,,,,,,,,,,,,,,,0,6,6,9,1,プミ　シド　ルピン,,,,,,,,,,,,,,,,,,,,,,,,,,
,,,,,,,,,R_ywJlRnprYwGbyOl,2022-09-01_19h20.26.149,jpn_C02,2022.1.2,Win32,60.10337781,,,,,,,,,,,,,,,,,,,,,,,,,,,,,,,,,,,,,,,,,,,,,,,,,,right,2.915,0,0,0,0,1,,,,,,,,,,,,,,,,,,,,,,,,,,,,,,,,
,,,,,,,,,R_ywJlRnprYwGbyOl,2022-09-01_19h20.26.149,jpn_C02,2022.1.2,Win32,60.10337781,,,,,,,,,,,,,CartoonStims/doctor_punch_boxer_r.jpg,audio/pumipipodoki.mp3,,,,,,,,,,,,,,,,,,,,,,,,,,,,,,,,,,,,,,,,,,,0,7,7,10,1,プミ　ピポ　ドキ,,,,,,,,,,,,,,,,,,,,,,,,,,
,,,,,,,,,R_ywJlRnprYwGbyOl,2022-09-01_19h20.26.149,jpn_C02,2022.1.2,Win32,60.10337781,,,,,,,,,,,,,,,,,,,,,,,,,,,,,,,,,,,,,,,,,,,,,,,,,パツ　ルピン　ホレト,right,20.486,0,0,0,0,1,,,,,,,,,,,,,,,,,,,,,,,,,,,,,,,,
,,,,,,,,,R_ywJlRnprYwGbyOl,2022-09-01_19h20.26.149,jpn_C02,2022.1.2,Win32,60.10337781,,,,,,,,,,,,,CartoonStims/burglar_shoot_chef_r.jpg,audio/patsulupinhoreto.mp3,,,,,,,,,,,,,,,,,,,,,,,,,,,,,,,,,,,,,,,,,,,0,8,8,6,1,パツ　ルピン　ホレト,,,,,,,,,,,,,,,,,,,,,,,,,,
,,,,,,,,,R_ywJlRnprYwGbyOl,2022-09-01_19h20.26.149,jpn_C02,2022.1.2,Win32,60.10337781,,,,,,,,,,,,,,,,,,,,,,,,,,,,,,,,,,,,,,,,,,,,,,,,,セル　シド　ルピン,right,18.86,0,0,0,0,1,,,,,,,,,,,,,,,,,,,,,,,,,,,,,,,,
,,,,,,,,,R_ywJlRnprYwGbyOl,2022-09-01_19h20.26.149,jpn_C02,2022.1.2,Win32,60.10337781,,,,,,,,,,,,,CartoonStims/cowboy_kick_burglar_r.jpg,audio/serumukulupin.mp3,,,,,,,,,,,,,,,,,,,,,,,,,,,,,,,,,,,,,,,,,,,0,9,9,0,1,セル　ムク　ルピン,,,,,,,,,,,,,,,,,,,,,,,,,,
,,,,,,,,,R_ywJlRnprYwGbyOl,2022-09-01_19h20.26.149,jpn_C02,2022.1.2,Win32,60.10337781,,,,,,,,,,,,,,,,,,,,,,,,,,,,,,,,,,,,,,,,,,,,,,,,,,right,4.0249,0,0,0,0,1,,,,,,,,,,,,,,,,,,,,,,,,,,,,,,,,
,,,,,,,,,R_ywJlRnprYwGbyOl,2022-09-01_19h20.26.149,jpn_C02,2022.1.2,Win32,60.10337781,,,,,,,,,,,,,CartoonStims/boxer_punch_artist_r.jpg,audio/pumidokisido.mp3,,,,,,,,,,,,,,,,,,,,,,,,,,,,,,,,,,,,,,,,,,,0,10,10,11,1,プミ　ドキ　シド,,,,,,,,,,,,,,,,,,,,,,,,,,
,,,,,,,,,R_ywJlRnprYwGbyOl,2022-09-01_19h20.26.149,jpn_C02,2022.1.2,Win32,60.10337781,,,,,,,,,,,,,,,,,,,,,,,,,,,,,,,,,,,,,,,,,,,,,,,,,,right,1.7471,0,0,0,0,1,,,,,,,,,,,,,,,,,,,,,,,,,,,,,,,,
,,,,,,,,,R_ywJlRnprYwGbyOl,2022-09-01_19h20.26.149,jpn_C02,2022.1.2,Win32,60.10337781,,,,,,,,,,,,,CartoonStims/burglar_point_artist_r.jpg,audio/tomalupinsido.mp3,,,,,,,,,,,,,,,,,,,,,,,,,,,,,,,,,,,,,,,,,,,0,11,11,4,1,トマ　ルピン　シド,,,,,,,,,,,,,,,,,,,,,,,,,,
,,,,,,,,,R_ywJlRnprYwGbyOl,2022-09-01_19h20.26.149,jpn_C02,2022.1.2,Win32,60.10337781,,,,,,,,,,,,,,,,,,,,,,,,,,,,,,,,,,,,,,,,,,,,,,,,,,,,,,,,,,,,,,,,space,1.0384,0,1,1,1,1,AffExposure.xlsx,"第二のトライアルの学習では、この言語で書かれた文を見ていただきます。引き続き注意して、 聞こえた音を復唱してください。


スペースキーを押してください。",1,AffFCT.xlsx,ここからクイズが始まります。 スクリーンに表示されるテキストに合う画像を選んでください。,AffTest.xlsx,1,次にここまで学んだことをアウトプットしていただきます。 表示される画像を描写していると思う単語を、テキストボックスにタイプしてください。 答えを提出したあとに正しい正解が少しの間画面に写ります。,1,"これで第二のトライアルが終了しました。 ここで休憩をとっていただいても構いません。

休憩が終わりましたら、 スペースキーを押して続きの学習を行いましょう。",,,,,,,,
,,,,,,,,,R_ywJlRnprYwGbyOl,2022-09-01_19h20.26.149,jpn_C02,2022.1.2,Win32,60.10337781,space,0.6843,space,1.609,0,0,0,34,1,ピク　パツ　ドキ　ホレト,,,CartoonStims/boxer_shoot_chef_r_no.jpg,audio/pikupatsudokihoreto.mp3,,,,,,,,,,,,,,,,,,,,,,,,,,,,,,,,,,,,,,,,,,,,,,,,,,,,,,,,,,,,,,,,,,,,,,,,,,
,,,,,,,,,R_ywJlRnprYwGbyOl,2022-09-01_19h20.26.149,jpn_C02,2022.1.2,Win32,60.10337781,,,space,0.1751,0,1,1,37,1,ピク　プミ　シド　ドキ,,,CartoonStims/artist_punch_boxer_r_no.jpg,audio/pikupumisidodoki.mp3,,,,,,,,,,,,,,,,,,,,,,,,,,,,,,,,,,,,,,,,,,,,,,,,,,,,,,,,,,,,,,,,,,,,,,,,,,
,,,,,,,,,R_ywJlRnprYwGbyOl,2022-09-01_19h20.26.149,jpn_C02,2022.1.2,Win32,60.10337781,,,space,0.035,0,2,2,13,1,ピク　トマ　シド　ムク,,,CartoonStims/artist_point_cowboy_r_no.jpg,audio/pikutomasidomuku.mp3,,,,,,,,,,,,,,,,,,,,,,,,,,,,,,,,,,,,,,,,,,,,,,,,,,,,,,,,,,,,,,,,,,,,,,,,,,
,,,,,,,,,R_ywJlRnprYwGbyOl,2022-09-01_19h20.26.149,jpn_C02,2022.1.2,Win32,60.10337781,,,space,0.0327,0,3,3,42,1,プミ　ピク　ムク　ルピン,,,CartoonStims/cowboy_punch_burglar_r_no.jpg,audio/pumipikumukulupin.mp3,,,,,,,,,,,,,,,,,,,,,,,,,,,,,,,,,,,,,,,,,,,,,,,,,,,,,,,,,,,,,,,,,,,,,,,,,,
,,,,,,,,,R_ywJlRnprYwGbyOl,2022-09-01_19h20.26.149,jpn_C02,2022.1.2,Win32,60.10337781,,,space,0.1333,0,4,4,18,1,ピク　トマ　ムク　ドキ,,,CartoonStims/cowboy_point_boxer_r_no.jpg,audio/pikutomamukudoki.mp3,,,,,,,,,,,,,,,,,,,,,,,,,,,,,,,,,,,,,,,,,,,,,,,,,,,,,,,,,,,,,,,,,,,,,,,,,,
,,,,,,,,,R_ywJlRnprYwGbyOl,2022-09-01_19h20.26.149,jpn_C02,2022.1.2,Win32,60.10337781,,,space,0.8723,0,5,5,17,1,ピク　トマ　ホレト　ドキ,,,CartoonStims/chef_point_boxer_r_no.jpg,audio/pikutomahoretodoki.mp3,,,,,,,,,,,,,,,,,,,,,,,,,,,,,,,,,,,,,,,,,,,,,,,,,,,,,,,,,,,,,,,,,,,,,,,,,,
,,,,,,,,,R_ywJlRnprYwGbyOl,2022-09-01_19h20.26.149,jpn_C02,2022.1.2,Win32,60.10337781,,,space,0.6403,0,6,6,29,1,パツ　ピク　ホレト　シド,,,CartoonStims/chef_shoot_artist_r_no.jpg,audio/patsupikuhoretosido.mp3,,,,,,,,,,,,,,,,,,,,,,,,,,,,,,,,,,,,,,,,,,,,,,,,,,,,,,,,,,,,,,,,,,,,,,,,,,
,,,,,,,,,R_ywJlRnprYwGbyOl,2022-09-01_19h20.26.149,jpn_C02,2022.1.2,Win32,60.10337781,,,space,4.7034,0,7,7,2,1,ピク　セル　ルピン　ホレト,,,CartoonStims/burglar_kick_chef_r_no.jpg,audio/pikuserulupinhoreto.mp3,,,,,,,,,,,,,,,,,,,,,,,,,,,,,,,,,,,,,,,,,,,,,,,,,,,,,,,,,,,,,,,,,,,,,,,,,,
,,,,,,,,,R_ywJlRnprYwGbyOl,2022-09-01_19h20.26.149,jpn_C02,2022.1.2,Win32,60.10337781,,,space,1.651,0,8,8,41,1,ピク　プミ　ホレト　ルピン,,,CartoonStims/chef_punch_burglar_r_no.jpg,audio/pikupumihoretolupin.mp3,,,,,,,,,,,,,,,,,,,,,,,,,,,,,,,,,,,,,,,,,,,,,,,,,,,,,,,,,,,,,,,,,,,,,,,,,,
,,,,,,,,,R_ywJlRnprYwGbyOl,2022-09-01_19h20.26.149,jpn_C02,2022.1.2,Win32,60.10337781,,,space,0.0414,0,9,9,47,1,ピク　プミ　ドキ　ピポ,,,CartoonStims/boxer_punch_doctor_r_no.jpg,audio/pikupumidokipipo.mp3,,,,,,,,,,,,,,,,,,,,,,,,,,,,,,,,,,,,,,,,,,,,,,,,,,,,,,,,,,,,,,,,,,,,,,,,,,
,,,,,,,,,R_ywJlRnprYwGbyOl,2022-09-01_19h20.26.149,jpn_C02,2022.1.2,Win32,60.10337781,,,space,0.1147,0,10,10,31,1,ピク　パツ　ムク　ルピン,,,CartoonStims/cowboy_shoot_burglar_r_no.jpg,audio/pikupatsumukulupin.mp3,,,,,,,,,,,,,,,,,,,,,,,,,,,,,,,,,,,,,,,,,,,,,,,,,,,,,,,,,,,,,,,,,,,,,,,,,,
,,,,,,,,,R_ywJlRnprYwGbyOl,2022-09-01_19h20.26.149,jpn_C02,2022.1.2,Win32,60.10337781,,,space,0.0718,0,11,11,32,1,ピク　パツ　ピポ　ルピン,,,CartoonStims/doctor_shoot_burglar_r_no.jpg,audio/pikupatsupipolupin.mp3,,,,,,,,,,,,,,,,,,,,,,,,,,,,,,,,,,,,,,,,,,,,,,,,,,,,,,,,,,,,,,,,,,,,,,,,,,
,,,,,,,,,R_ywJlRnprYwGbyOl,2022-09-01_19h20.26.149,jpn_C02,2022.1.2,Win32,60.10337781,,,space,0.033,0,12,12,14,1,ピク　トマ　ルピン　ムク,,,CartoonStims/burglar_point_cowboy_r_no.jpg,audio/pikutomalupinmuku.mp3,,,,,,,,,,,,,,,,,,,,,,,,,,,,,,,,,,,,,,,,,,,,,,,,,,,,,,,,,,,,,,,,,,,,,,,,,,
,,,,,,,,,R_ywJlRnprYwGbyOl,2022-09-01_19h20.26.149,jpn_C02,2022.1.2,Win32,60.10337781,,,space,0.0583,0,13,13,1,1,ピク　セル　シド　ホレト,,,CartoonStims/artist_kick_chef_r_no.jpg,audio/pikuserusidohoreto.mp3,,,,,,,,,,,,,,,,,,,,,,,,,,,,,,,,,,,,,,,,,,,,,,,,,,,,,,,,,,,,,,,,,,,,,,,,,,
,,,,,,,,,R_ywJlRnprYwGbyOl,2022-09-01_19h20.26.149,jpn_C02,2022.1.2,Win32,60.10337781,,,space,0.0177,0,14,14,30,1,ピク　パツ　ムク　シド,,,CartoonStims/cowboy_shoot_artist_r_no.jpg,audio/pikupatsumukusido.mp3,,,,,,,,,,,,,,,,,,,,,,,,,,,,,,,,,,,,,,,,,,,,,,,,,,,,,,,,,,,,,,,,,,,,,,,,,,
,,,,,,,,,R_ywJlRnprYwGbyOl,2022-09-01_19h20.26.149,jpn_C02,2022.1.2,Win32,60.10337781,,,space,0.0114,0,15,15,3,1,ピク　セル　ルピン　ムク,,,CartoonStims/burglar_kick_cowboy_r_no.jpg,audio/pikuserulupinmuku.mp3,,,,,,,,,,,,,,,,,,,,,,,,,,,,,,,,,,,,,,,,,,,,,,,,,,,,,,,,,,,,,,,,,,,,,,,,,,
,,,,,,,,,R_ywJlRnprYwGbyOl,2022-09-01_19h20.26.149,jpn_C02,2022.1.2,Win32,60.10337781,,,space,0.0063,0,16,16,20,1,ピク　トマ　ピポ　シド,,,CartoonStims/doctor_point_artist_r_no.jpg,audio/pikutomapiposido.mp3,,,,,,,,,,,,,,,,,,,,,,,,,,,,,,,,,,,,,,,,,,,,,,,,,,,,,,,,,,,,,,,,,,,,,,,,,,
,,,,,,,,,R_ywJlRnprYwGbyOl,2022-09-01_19h20.26.149,jpn_C02,2022.1.2,Win32,60.10337781,,,space,0.0003,0,17,17,5,1,ピク　セル　ホレト　ピポ,,,CartoonStims/chef_kick_doctor_r_no.jpg,audio/pikuseruhoretopipo.mp3,,,,,,,,,,,,,,,,,,,,,,,,,,,,,,,,,,,,,,,,,,,,,,,,,,,,,,,,,,,,,,,,,,,,,,,,,,
,,,,,,,,,R_ywJlRnprYwGbyOl,2022-09-01_19h20.26.149,jpn_C02,2022.1.2,Win32,60.10337781,,,space,0.0266,0,18,18,25,1,パツ　ピク　シド　ピポ,,,CartoonStims/artist_shoot_doctor_r_no.jpg,audio/patsupikusidopipo.mp3,,,,,,,,,,,,,,,,,,,,,,,,,,,,,,,,,,,,,,,,,,,,,,,,,,,,,,,,,,,,,,,,,,,,,,,,,,
,,,,,,,,,R_ywJlRnprYwGbyOl,2022-09-01_19h20.26.149,jpn_C02,2022.1.2,Win32,60.10337781,,,space,0.1172,0,19,19,40,1,ピク　プミ　ホレト　シド,,,CartoonStims/chef_punch_artist_r_no.jpg,audio/pikupumihoretosido.mp3,,,,,,,,,,,,,,,,,,,,,,,,,,,,,,,,,,,,,,,,,,,,,,,,,,,,,,,,,,,,,,,,,,,,,,,,,,
,,,,,,,,,R_ywJlRnprYwGbyOl,2022-09-01_19h20.26.149,jpn_C02,2022.1.2,Win32,60.10337781,,,space,0.0575,0,20,20,21,1,ピク　トマ　ピポ　ルピン,,,CartoonStims/doctor_point_burglar_r_no.jpg,audio/pikutomapipolupin.mp3,,,,,,,,,,,,,,,,,,,,,,,,,,,,,,,,,,,,,,,,,,,,,,,,,,,,,,,,,,,,,,,,,,,,,,,,,,
,,,,,,,,,R_ywJlRnprYwGbyOl,2022-09-01_19h20.26.149,jpn_C02,2022.1.2,Win32,60.10337781,,,space,37.602,0,21,21,28,1,ピク　パツ　ホレト　ドキ,,,CartoonStims/chef_shoot_boxer_r_no.jpg,audio/pikupatsuhoretodoki.mp3,,,,,,,,,,,,,,,,,,,,,,,,,,,,,,,,,,,,,,,,,,,,,,,,,,,,,,,,,,,,,,,,,,,,,,,,,,
,,,,,,,,,R_ywJlRnprYwGbyOl,2022-09-01_19h20.26.149,jpn_C02,2022.1.2,Win32,60.10337781,,,space,0.0203,0,22,22,35,1,ピク　パツ　ドキ　ムク,,,CartoonStims/boxer_shoot_cowboy_r_no.jpg,audio/pikupatsudokimuku.mp3,,,,,,,,,,,,,,,,,,,,,,,,,,,,,,,,,,,,,,,,,,,,,,,,,,,,,,,,,,,,,,,,,,,,,,,,,,
,,,,,,,,,R_ywJlRnprYwGbyOl,2022-09-01_19h20.26.149,jpn_C02,2022.1.2,Win32,60.10337781,,,space,0.0612,0,23,23,38,1,ピク　プミ　ルピン　ドキ,,,CartoonStims/burglar_punch_boxer_r_no.jpg,audio/pikupumilupindoki.mp3,,,,,,,,,,,,,,,,,,,,,,,,,,,,,,,,,,,,,,,,,,,,,,,,,,,,,,,,,,,,,,,,,,,,,,,,,,
,,,,,,,,,R_ywJlRnprYwGbyOl,2022-09-01_19h20.26.149,jpn_C02,2022.1.2,Win32,60.10337781,,,space,0.1008,0,24,24,19,1,トマ　ピク　ムク　シド,,,CartoonStims/cowboy_point_artist_r_no.jpg,audio/tomapikumukusido.mp3,,,,,,,,,,,,,,,,,,,,,,,,,,,,,,,,,,,,,,,,,,,,,,,,,,,,,,,,,,,,,,,,,,,,,,,,,,
,,,,,,,,,R_ywJlRnprYwGbyOl,2022-09-01_19h20.26.149,jpn_C02,2022.1.2,Win32,60.10337781,,,space,0.1713,0,25,25,45,1,ピク　プミ　ピポ　ムク,,,CartoonStims/doctor_punch_cowboy_r_no.jpg,audio/pikupumipipomuku.mp3,,,,,,,,,,,,,,,,,,,,,,,,,,,,,,,,,,,,,,,,,,,,,,,,,,,,,,,,,,,,,,,,,,,,,,,,,,
,,,,,,,,,R_ywJlRnprYwGbyOl,2022-09-01_19h20.26.149,jpn_C02,2022.1.2,Win32,60.10337781,,,space,0.2063,0,26,26,0,1,セル　ピク　シド　ルピン,,,CartoonStims/artist_kick_burglar_r_no.jpg,audio/serupikusidolupin.mp3,,,,,,,,,,,,,,,,,,,,,,,,,,,,,,,,,,,,,,,,,,,,,,,,,,,,,,,,,,,,,,,,,,,,,,,,,,
,,,,,,,,,R_ywJlRnprYwGbyOl,2022-09-01_19h20.26.149,jpn_C02,2022.1.2,Win32,60.10337781,,,space,0.143,0,27,27,8,1,セル　ピク　ピポ　ドキ,,,CartoonStims/doctor_kick_boxer_r_no.jpg,audio/serupikupipodoki.mp3,,,,,,,,,,,,,,,,,,,,,,,,,,,,,,,,,,,,,,,,,,,,,,,,,,,,,,,,,,,,,,,,,,,,,,,,,,
,,,,,,,,,R_ywJlRnprYwGbyOl,2022-09-01_19h20.26.149,jpn_C02,2022.1.2,Win32,60.10337781,,,space,0.1011,0,28,28,23,1,トマ　ピク　ドキ　ホレト,,,CartoonStims/boxer_point_chef_r_no.jpg,audio/tomapikudokihoreto.mp3,,,,,,,,,,,,,,,,,,,,,,,,,,,,,,,,,,,,,,,,,,,,,,,,,,,,,,,,,,,,,,,,,,,,,,,,,,
,,,,,,,,,R_ywJlRnprYwGbyOl,2022-09-01_19h20.26.149,jpn_C02,2022.1.2,Win32,60.10337781,,,space,0.0414,0,29,29,11,1,ピク　セル　ドキ　ルピン,,,CartoonStims/boxer_kick_burglar_r_no.jpg,audio/pikuserudokilupin.mp3,,,,,,,,,,,,,,,,,,,,,,,,,,,,,,,,,,,,,,,,,,,,,,,,,,,,,,,,,,,,,,,,,,,,,,,,,,
,,,,,,,,,R_ywJlRnprYwGbyOl,2022-09-01_19h20.26.149,jpn_C02,2022.1.2,Win32,60.10337781,,,space,0.0847,0,30,30,36,1,ピク　プミ　シド　ピポ,,,CartoonStims/artist_punch_doctor_r_no.jpg,audio/pikupumisidopipo.mp3,,,,,,,,,,,,,,,,,,,,,,,,,,,,,,,,,,,,,,,,,,,,,,,,,,,,,,,,,,,,,,,,,,,,,,,,,,
,,,,,,,,,R_ywJlRnprYwGbyOl,2022-09-01_19h20.26.149,jpn_C02,2022.1.2,Win32,60.10337781,,,space,0.1214,0,31,31,6,1,ピク　セル　ムク　ピポ,,,CartoonStims/cowboy_kick_doctor_r_no.jpg,audio/pikuserumukupipo.mp3,,,,,,,,,,,,,,,,,,,,,,,,,,,,,,,,,,,,,,,,,,,,,,,,,,,,,,,,,,,,,,,,,,,,,,,,,,
,,,,,,,,,R_ywJlRnprYwGbyOl,2022-09-01_19h20.26.149,jpn_C02,2022.1.2,Win32,60.10337781,,,space,0.0468,0,32,32,7,1,ピク　セル　ムク　ドキ,,,CartoonStims/cowboy_kick_boxer_r_no.jpg,audio/pikuserumukudoki.mp3,,,,,,,,,,,,,,,,,,,,,,,,,,,,,,,,,,,,,,,,,,,,,,,,,,,,,,,,,,,,,,,,,,,,,,,,,,
,,,,,,,,,R_ywJlRnprYwGbyOl,2022-09-01_19h20.26.149,jpn_C02,2022.1.2,Win32,60.10337781,,,space,0.235,0,33,33,46,1,プミ　ピク　ドキ　ムク,,,CartoonStims/boxer_punch_cowboy_r_no.jpg,audio/pumipikudokimuku.mp3,,,,,,,,,,,,,,,,,,,,,,,,,,,,,,,,,,,,,,,,,,,,,,,,,,,,,,,,,,,,,,,,,,,,,,,,,,
,,,,,,,,,R_ywJlRnprYwGbyOl,2022-09-01_19h20.26.149,jpn_C02,2022.1.2,Win32,60.10337781,,,space,0.007,0,34,34,22,1,ピク　トマ　ドキ　ルピン,,,CartoonStims/boxer_point_burglar_r_no.jpg,audio/pikutomadokilupin.mp3,,,,,,,,,,,,,,,,,,,,,,,,,,,,,,,,,,,,,,,,,,,,,,,,,,,,,,,,,,,,,,,,,,,,,,,,,,
,,,,,,,,,R_ywJlRnprYwGbyOl,2022-09-01_19h20.26.149,jpn_C02,2022.1.2,Win32,60.10337781,,,space,0.035,0,35,35,4,1,セル　ピク　ホレト　ムク,,,CartoonStims/chef_kick_cowboy_r_no.jpg,audio/serupikuhoretomuku.mp3,,,,,,,,,,,,,,,,,,,,,,,,,,,,,,,,,,,,,,,,,,,,,,,,,,,,,,,,,,,,,,,,,,,,,,,,,,
,,,,,,,,,R_ywJlRnprYwGbyOl,2022-09-01_19h20.26.149,jpn_C02,2022.1.2,Win32,60.10337781,,,space,0.1547,0,36,36,43,1,ピク　プミ　ムク　ホレト,,,CartoonStims/cowboy_punch_chef_r_no.jpg,audio/pikupumimukuhoreto.mp3,,,,,,,,,,,,,,,,,,,,,,,,,,,,,,,,,,,,,,,,,,,,,,,,,,,,,,,,,,,,,,,,,,,,,,,,,,
,,,,,,,,,R_ywJlRnprYwGbyOl,2022-09-01_19h20.26.149,jpn_C02,2022.1.2,Win32,60.10337781,,,space,0.1587,0,37,37,26,1,ピク　パツ　ルピン　ピポ,,,CartoonStims/burglar_shoot_doctor_r_no.jpg,audio/pikupatsulupinpipo.mp3,,,,,,,,,,,,,,,,,,,,,,,,,,,,,,,,,,,,,,,,,,,,,,,,,,,,,,,,,,,,,,,,,,,,,,,,,,
,,,,,,,,,R_ywJlRnprYwGbyOl,2022-09-01_19h20.26.149,jpn_C02,2022.1.2,Win32,60.10337781,,,space,0.0679,0,38,38,27,1,パツ　ピク　ルピン　ドキ,,,CartoonStims/burglar_shoot_boxer_r_no.jpg,audio/patsupikulupindoki.mp3,,,,,,,,,,,,,,,,,,,,,,,,,,,,,,,,,,,,,,,,,,,,,,,,,,,,,,,,,,,,,,,,,,,,,,,,,,
,,,,,,,,,R_ywJlRnprYwGbyOl,2022-09-01_19h20.26.149,jpn_C02,2022.1.2,Win32,60.10337781,,,space,112.3148,0,39,39,12,1,ピク　トマ　シド　ホレト,,,CartoonStims/artist_point_chef_r_no.jpg,audio/pikutomasidohoreto.mp3,,,,,,,,,,,,,,,,,,,,,,,,,,,,,,,,,,,,,,,,,,,,,,,,,,,,,,,,,,,,,,,,,,,,,,,,,,
,,,,,,,,,R_ywJlRnprYwGbyOl,2022-09-01_19h20.26.149,jpn_C02,2022.1.2,Win32,60.10337781,,,space,0.4375,0,40,40,39,1,ピク　プミ　ルピン　シド,,,CartoonStims/burglar_punch_artist_r_no.jpg,audio/pikupumilupinsido.mp3,,,,,,,,,,,,,,,,,,,,,,,,,,,,,,,,,,,,,,,,,,,,,,,,,,,,,,,,,,,,,,,,,,,,,,,,,,
,,,,,,,,,R_ywJlRnprYwGbyOl,2022-09-01_19h20.26.149,jpn_C02,2022.1.2,Win32,60.10337781,,,space,0.0599,0,41,41,44,1,プミ　ピク　ピポ　ホレト,,,CartoonStims/doctor_punch_chef_r_no.jpg,audio/pumipikupipohoreto.mp3,,,,,,,,,,,,,,,,,,,,,,,,,,,,,,,,,,,,,,,,,,,,,,,,,,,,,,,,,,,,,,,,,,,,,,,,,,
,,,,,,,,,R_ywJlRnprYwGbyOl,2022-09-01_19h20.26.149,jpn_C02,2022.1.2,Win32,60.10337781,,,space,0.135,0,42,42,15,1,トマ　ピク　ルピン　ピポ,,,CartoonStims/burglar_point_doctor_r_no.jpg,audio/tomapikulupinpipo.mp3,,,,,,,,,,,,,,,,,,,,,,,,,,,,,,,,,,,,,,,,,,,,,,,,,,,,,,,,,,,,,,,,,,,,,,,,,,
,,,,,,,,,R_ywJlRnprYwGbyOl,2022-09-01_19h20.26.149,jpn_C02,2022.1.2,Win32,60.10337781,,,space,0.2002,0,43,43,10,1,ピク　セル　ドキ　シド,,,CartoonStims/boxer_kick_artist_r_no.jpg,audio/pikuserudokisido.mp3,,,,,,,,,,,,,,,,,,,,,,,,,,,,,,,,,,,,,,,,,,,,,,,,,,,,,,,,,,,,,,,,,,,,,,,,,,
,,,,,,,,,R_ywJlRnprYwGbyOl,2022-09-01_19h20.26.149,jpn_C02,2022.1.2,Win32,60.10337781,,,space,0.1067,0,44,44,9,1,ピク　セル　ピポ　シド,,,CartoonStims/doctor_kick_artist_r_no.jpg,audio/pikuserupiposido.mp3,,,,,,,,,,,,,,,,,,,,,,,,,,,,,,,,,,,,,,,,,,,,,,,,,,,,,,,,,,,,,,,,,,,,,,,,,,
,,,,,,,,,R_ywJlRnprYwGbyOl,2022-09-01_19h20.26.149,jpn_C02,2022.1.2,Win32,60.10337781,,,space,0.0011,0,45,45,16,1,ピク　トマ　ホレト　ピポ,,,CartoonStims/chef_point_doctor_r_no.jpg,audio/pikutomahoretopipo.mp3,,,,,,,,,,,,,,,,,,,,,,,,,,,,,,,,,,,,,,,,,,,,,,,,,,,,,,,,,,,,,,,,,,,,,,,,,,
,,,,,,,,,R_ywJlRnprYwGbyOl,2022-09-01_19h20.26.149,jpn_C02,2022.1.2,Win32,60.10337781,,,space,0.044,0,46,46,24,1,ピク　パツ　シド　ムク,,,CartoonStims/artist_shoot_cowboy_r_no.jpg,audio/pikupatsusidomuku.mp3,,,,,,,,,,,,,,,,,,,,,,,,,,,,,,,,,,,,,,,,,,,,,,,,,,,,,,,,,,,,,,,,,,,,,,,,,,
,,,,,,,,,R_ywJlRnprYwGbyOl,2022-09-01_19h20.26.149,jpn_C02,2022.1.2,Win32,60.10337781,,,space,0.1361,0,47,47,33,1,ピク　パツ　ピポ　ホレト,,,CartoonStims/doctor_shoot_chef_r_no.jpg,audio/pikupatsupipohoreto.mp3,,,,,,,,,,,,,,,,,,,,,,,,,,,,,,,,,,,,,,,,,,,,,,,,,,,,,,,,,,,,,,,,,,,,,,,,,,
,,,,,,,,,R_ywJlRnprYwGbyOl,2022-09-01_19h20.26.149,jpn_C02,2022.1.2,Win32,60.10337781,,,,,,,,,,,,,,,space,0.1772,right,0,13.1264,,,,,,,,,,,,,,,,,,,,,,,,,,,,,,,,,,,,,,,,,,,,,,,,,,,,,,,,,,,,,,0,0,0,0,1,,,
,,,,,,,,,R_ywJlRnprYwGbyOl,2022-09-01_19h20.26.149,jpn_C02,2022.1.2,Win32,60.10337781,,,,,,,,,,,,,,,,,,,,,,,,,0,0,0,0,1,CartoonStims/artist_shoot_burglar_r.jpg,プミ　ピク　シド　ルピン,CartoonStims/artist_punch_burglar_r.jpg,left,CartoonStims/artist_shoot_burglar_r.jpg,audio/pumipikusidolupin.mp3,"残念！ こちらが正しい画像です。

否定文は起きていないことを示しているのを思い出してください。",,,,,,,,,,,,,,,,,,,,,,,,,,,,,,,,,,,,,,,,,,,,,,,,,,,,
,,,,,,,,,R_ywJlRnprYwGbyOl,2022-09-01_19h20.26.149,jpn_C02,2022.1.2,Win32,60.10337781,,,,,,,,,,,,,,,,,left,1,4.9209,0,0,0,0,1,,,,,,,,,,,,,,,,,,,,,,,,,,,,,,,,,,,,,,,,,,,,,,,,,,,,,,,,,,,,,,,,
,,,,,,,,,R_ywJlRnprYwGbyOl,2022-09-01_19h20.26.149,jpn_C02,2022.1.2,Win32,60.10337781,,,,,,,,,,,,,,,,,,,,,,,,,0,1,1,8,1,CartoonStims/burglar_punch_artist_r.jpg,ピク　トマ　ルピン　シド,CartoonStims/burglar_point_artist_r.jpg,left,CartoonStims/burglar_punch_artist_r.jpg,audio/pikutomalupinsido.mp3,"残念！ こちらが正しい画像です。

否定文は起きていないことを示しているのを思い出してください。",,,,,,,,,,,,,,,,,,,,,,,,,,,,,,,,,,,,,,,,,,,,,,,,,,,,
,,,,,,,,,R_ywJlRnprYwGbyOl,2022-09-01_19h20.26.149,jpn_C02,2022.1.2,Win32,60.10337781,,,,,,,,,,,,,,,,,left,1,8.0342,0,0,0,0,1,,,,,,,,,,,,,,,,,,,,,,,,,,,,,,,,,,,,,,,,,,,,,,,,,,,,,,,,,,,,,,,,
,,,,,,,,,R_ywJlRnprYwGbyOl,2022-09-01_19h20.26.149,jpn_C02,2022.1.2,Win32,60.10337781,,,,,,,,,,,,,,,,,,,,,,,,,0,2,2,2,1,CartoonStims/doctor_point_boxer_r.jpg,ピク　プミ　ピポ　ドキ,CartoonStims/doctor_punch_boxer_r.jpg,left,CartoonStims/doctor_point_boxer_r.jpg,audio/pikupumipipodoki.mp3,"残念！ こちらが正しい画像です。

否定文は起きていないことを示しているのを思い出してください。",,,,,,,,,,,,,,,,,,,,,,,,,,,,,,,,,,,,,,,,,,,,,,,,,,,,
,,,,,,,,,R_ywJlRnprYwGbyOl,2022-09-01_19h20.26.149,jpn_C02,2022.1.2,Win32,60.10337781,,,,,,,,,,,,,,,,,left,1,8.439,0,0,0,0,1,,,,,,,,,,,,,,,,,,,,,,,,,,,,,,,,,,,,,,,,,,,,,,,,,,,,,,,,,,,,,,,,
,,,,,,,,,R_ywJlRnprYwGbyOl,2022-09-01_19h20.26.149,jpn_C02,2022.1.2,Win32,60.10337781,,,,,,,,,,,,,,,,,,,,,,,,,0,3,3,10,1,CartoonStims/doctor_punch_cowboy_r.jpg,パツ　ピク　ピポ　ムク,CartoonStims/doctor_shoot_cowboy_r.jpg,left,CartoonStims/doctor_punch_cowboy_r.jpg,audio/patsupikupipomuku.mp3,"残念！ こちらが正しい画像です。

否定文は起きていないことを示しているのを思い出してください。",,,,,,,,,,,,,,,,,,,,,,,,,,,,,,,,,,,,,,,,,,,,,,,,,,,,
,,,,,,,,,R_ywJlRnprYwGbyOl,2022-09-01_19h20.26.149,jpn_C02,2022.1.2,Win32,60.10337781,,,,,,,,,,,,,,,,,right,1,5.3554,,,,,,,,,,,,,,,,,,0,0,0,0,1,,,,,,,,,,,,,,,,,,,,,,,,,,,,,,,,,,,,,,,,,,,,,,,
,,,,,,,,,R_ywJlRnprYwGbyOl,2022-09-01_19h20.26.149,jpn_C02,2022.1.2,Win32,60.10337781,,,,,,,,,,,,,,,,,,,,,,,,,0,4,4,3,1,CartoonStims/chef_kick_artist_r.jpg,セル　ピク　ホレト　シド,CartoonStims/chef_point_artist_r.jpg,right,CartoonStims/chef_point_artist_r.jpg,audio/serupikuhoretosido.mp3,"残念！ こちらが正しい画像です。

否定文は起きていないことを示しているのを思い出してください。",,,,,,,,,,,,,,,,,,,,,,,,,,,,,,,,,,,,,,,,,,,,,,,,,,,,
,,,,,,,,,R_ywJlRnprYwGbyOl,2022-09-01_19h20.26.149,jpn_C02,2022.1.2,Win32,60.10337781,,,,,,,,,,,,,,,,,right,1,4.2418,,,,,,,,,,,,,,,,,,0,0,0,0,1,,,,,,,,,,,,,,,,,,,,,,,,,,,,,,,,,,,,,,,,,,,,,,,
,,,,,,,,,R_ywJlRnprYwGbyOl,2022-09-01_19h20.26.149,jpn_C02,2022.1.2,Win32,60.10337781,,,,,,,,,,,,,,,,,,,,,,,,,0,5,5,7,1,CartoonStims/cowboy_point_chef_r.jpg,トマ　ピク　ムク　ホレト,CartoonStims/cowboy_kick_chef_r.jpg,right,CartoonStims/cowboy_kick_chef_r.jpg,audio/tomapikumukuhoreto.mp3,"残念！ こちらが正しい画像です。

否定文は起きていないことを示しているのを思い出してください。",,,,,,,,,,,,,,,,,,,,,,,,,,,,,,,,,,,,,,,,,,,,,,,,,,,,
,,,,,,,,,R_ywJlRnprYwGbyOl,2022-09-01_19h20.26.149,jpn_C02,2022.1.2,Win32,60.10337781,,,,,,,,,,,,,,,,,right,1,4.3749,,,,,,,,,,,,,,,,,,0,0,0,0,1,,,,,,,,,,,,,,,,,,,,,,,,,,,,,,,,,,,,,,,,,,,,,,,
,,,,,,,,,R_ywJlRnprYwGbyOl,2022-09-01_19h20.26.149,jpn_C02,2022.1.2,Win32,60.10337781,,,,,,,,,,,,,,,,,,,,,,,,,0,6,6,5,1,CartoonStims/boxer_kick_cowboy_r.jpg,ピク　セル　ドキ　ムク,CartoonStims/boxer_punch_cowboy_r.jpg,right,CartoonStims/boxer_punch_cowboy_r.jpg,audio/pikuserudokimuku.mp3,"残念！ こちらが正しい画像です。

否定文は起きていないことを示しているのを思い出してください。",,,,,,,,,,,,,,,,,,,,,,,,,,,,,,,,,,,,,,,,,,,,,,,,,,,,
,,,,,,,,,R_ywJlRnprYwGbyOl,2022-09-01_19h20.26.149,jpn_C02,2022.1.2,Win32,60.10337781,,,,,,,,,,,,,,,,,right,1,3.2079,,,,,,,,,,,,,,,,,,0,0,0,0,1,,,,,,,,,,,,,,,,,,,,,,,,,,,,,,,,,,,,,,,,,,,,,,,
,,,,,,,,,R_ywJlRnprYwGbyOl,2022-09-01_19h20.26.149,jpn_C02,2022.1.2,Win32,60.10337781,,,,,,,,,,,,,,,,,,,,,,,,,0,7,7,11,1,CartoonStims/chef_shoot_burglar_r.jpg,ピク　パツ　ホレト　ルピン,CartoonStims/chef_kick_burglar_r.jpg,right,CartoonStims/chef_kick_burglar_r.jpg,audio/pikupatsuhoretolupin.mp3,"残念！ こちらが正しい画像です。

否定文は起きていないことを示しているのを思い出してください。",,,,,,,,,,,,,,,,,,,,,,,,,,,,,,,,,,,,,,,,,,,,,,,,,,,,
,,,,,,,,,R_ywJlRnprYwGbyOl,2022-09-01_19h20.26.149,jpn_C02,2022.1.2,Win32,60.10337781,,,,,,,,,,,,,,,,,left,1,26.6771,0,0,0,0,1,,,,,,,,,,,,,,,,,,,,,,,,,,,,,,,,,,,,,,,,,,,,,,,,,,,,,,,,,,,,,,,,
,,,,,,,,,R_ywJlRnprYwGbyOl,2022-09-01_19h20.26.149,jpn_C02,2022.1.2,Win32,60.10337781,,,,,,,,,,,,,,,,,,,,,,,,,0,8,8,6,1,CartoonStims/artist_shoot_boxer_r.jpg,ピク　トマ　シド　ドキ,CartoonStims/artist_point_boxer_r.jpg,left,CartoonStims/artist_shoot_boxer_r.jpg,audio/pikutomasidodoki.mp3,"残念！ こちらが正しい画像です。

否定文は起きていないことを示しているのを思い出してください。",,,,,,,,,,,,,,,,,,,,,,,,,,,,,,,,,,,,,,,,,,,,,,,,,,,,
,,,,,,,,,R_ywJlRnprYwGbyOl,2022-09-01_19h20.26.149,jpn_C02,2022.1.2,Win32,60.10337781,,,,,,,,,,,,,,,,,left,0,5.9505,,,,,,,,,,,,,,,,,,,,,,,0,0,0,0,1,,,,,,,,,,,,,,,,,,,,,,,,,,,,,,,,,,,,,,,,,,
,,,,,,,,,R_ywJlRnprYwGbyOl,2022-09-01_19h20.26.149,jpn_C02,2022.1.2,Win32,60.10337781,,,,,,,,,,,,,,,,,,,,,,,,,0,9,9,1,1,CartoonStims/chef_punch_cowboy_r.jpg,ピク　プミ　ホレト　ムク,CartoonStims/chef_kick_cowboy_r.jpg,right,CartoonStims/chef_kick_cowboy_r.jpg,audio/pikupumihoretomuku.mp3,"残念！ こちらが正しい画像です。

否定文は起きていないことを示しているのを思い出してください。",,,,,,,,,,,,,,,,,,,,,,,,,,,,,,,,,,,,,,,,,,,,,,,,,,,,
,,,,,,,,,R_ywJlRnprYwGbyOl,2022-09-01_19h20.26.149,jpn_C02,2022.1.2,Win32,60.10337781,,,,,,,,,,,,,,,,,right,1,1.726,,,,,,,,,,,,,,,,,,0,0,0,0,1,,,,,,,,,,,,,,,,,,,,,,,,,,,,,,,,,,,,,,,,,,,,,,,
,,,,,,,,,R_ywJlRnprYwGbyOl,2022-09-01_19h20.26.149,jpn_C02,2022.1.2,Win32,60.10337781,,,,,,,,,,,,,,,,,,,,,,,,,0,10,10,9,1,CartoonStims/boxer_shoot_doctor_r.jpg,ピク　パツ　ドキ　ピポ,CartoonStims/boxer_point_doctor_r.jpg,right,CartoonStims/boxer_point_doctor_r.jpg,audio/pikupatsudokipipo.mp3,"残念！ こちらが正しい画像です。

否定文は起きていないことを示しているのを思い出してください。",,,,,,,,,,,,,,,,,,,,,,,,,,,,,,,,,,,,,,,,,,,,,,,,,,,,
,,,,,,,,,R_ywJlRnprYwGbyOl,2022-09-01_19h20.26.149,jpn_C02,2022.1.2,Win32,60.10337781,,,,,,,,,,,,,,,,,left,1,137.3401,0,0,0,0,1,,,,,,,,,,,,,,,,,,,,,,,,,,,,,,,,,,,,,,,,,,,,,,,,,,,,,,,,,,,,,,,,
,,,,,,,,,R_ywJlRnprYwGbyOl,2022-09-01_19h20.26.149,jpn_C02,2022.1.2,Win32,60.10337781,,,,,,,,,,,,,,,,,,,,,,,,,0,11,11,4,1,CartoonStims/burglar_shoot_doctor_r.jpg,ピク　セル　ルピン　ピポ,CartoonStims/burglar_kick_doctor_r.jpg,left,CartoonStims/burglar_shoot_doctor_r.jpg,audio/pikuserulupinpipo.mp3,"残念！ こちらが正しい画像です。

否定文は起きていないことを示しているのを思い出してください。",,,,,,,,,,,,,,,,,,,,,,,,,,,,,,,,,,,,,,,,,,,,,,,,,,,,
,,,,,,,,,R_ywJlRnprYwGbyOl,2022-09-01_19h20.26.149,jpn_C02,2022.1.2,Win32,60.10337781,,,,,,,,,,,,,CartoonStims/burglar_shoot_cowboy_r_no.jpg,,,,,,,,,,,,,,,,,,,,,,,,,,,,,,,,,,space,142.009,"　　
",right,5.9442,,,,,,0,0,0,13,1,,,,,,,,,,,,,,,,,,,,,,,,,ピク　パツ　ルピン　ムク,パツ　ピク　ルピン　ムク,1
,,,,,,,,,R_ywJlRnprYwGbyOl,2022-09-01_19h20.26.149,jpn_C02,2022.1.2,Win32,60.10337781,,,,,,,,,,,,,CartoonStims/chef_point_cowboy_r_no.jpg,,,,,,,,,,,,,,,,,,,,,,,,,,,,,,,,,,,,,right,0.5353,,,,,,0,1,1,8,1,,,,,,,,,,,,,,,,,,,,,,,,,ピク　トマ　ホレト　ムク,トマ　ピク　ホレト　ムク,1
,,,,,,,,,R_ywJlRnprYwGbyOl,2022-09-01_19h20.26.149,jpn_C02,2022.1.2,Win32,60.10337781,,,,,,,,,,,,,CartoonStims/burglar_shoot_chef_r.jpg,,,,,,,,,,,,,,,,,,,,,,,,,,,,,,,,,,,,,right,0.2027,,,,,,0,2,2,30,1,,,,,,,,,,,,,,,,,,,,,,,,,パツ　ルピン　ホレト,パツ　ルピン　ホレト,0
,,,,,,,,,R_ywJlRnprYwGbyOl,2022-09-01_19h20.26.149,jpn_C02,2022.1.2,Win32,60.10337781,,,,,,,,,,,,,CartoonStims/boxer_kick_doctor_r_no.jpg,,,,,,,,,,,,,,,,,,,,,,,,,,,,,,,,,,,,,right,0.1104,,,,,,0,3,3,5,1,,,,,,,,,,,,,,,,,,,,,,,,,ピク　セル　ドキ　ピポ,セル　ピク　ドキ　ピポ,1
,,,,,,,,,R_ywJlRnprYwGbyOl,2022-09-01_19h20.26.149,jpn_C02,2022.1.2,Win32,60.10337781,,,,,,,,,,,,,CartoonStims/doctor_punch_burglar_r_no.jpg,,,,,,,,,,,,,,,,,,,,,,,,,,,,,,,,,,,,,right,0.1224,,,,,,0,4,4,22,1,,,,,,,,,,,,,,,,,,,,,,,,,ピク　プミ　ピポ　ルピン,プミ　ピク　ピポ　ルピン,1
,,,,,,,,,R_ywJlRnprYwGbyOl,2022-09-01_19h20.26.149,jpn_C02,2022.1.2,Win32,60.10337781,,,,,,,,,,,,,CartoonStims/doctor_kick_chef_r.jpg,,,,,,,,,,,,,,,,,,,,,,,,,,,,,,,,,,,,,right,0.0822,,,,,,0,5,5,25,1,,,,,,,,,,,,,,,,,,,,,,,,,セル　ピポ　ホレト,セル　ピポ　ホレト,0
,,,,,,,,,R_ywJlRnprYwGbyOl,2022-09-01_19h20.26.149,jpn_C02,2022.1.2,Win32,60.10337781,,,,,,,,,,,,,CartoonStims/cowboy_kick_chef_r_no.jpg,,,,,,,,,,,,,,,,,,,,,,,,,,,,,,,,,,,,,right,0.0963,,,,,,0,6,6,3,1,,,,,,,,,,,,,,,,,,,,,,,,,ピク　セル　ムク　ホレト,セル　ピク　ムク　ホレト,1
,,,,,,,,,R_ywJlRnprYwGbyOl,2022-09-01_19h20.26.149,jpn_C02,2022.1.2,Win32,60.10337781,,,,,,,,,,,,,CartoonStims/cowboy_point_doctor_r_no.jpg,,,,,,,,,,,,,,,,,,,,,,,,,,,,,,,,,,,,,right,0.0834,,,,,,0,7,7,9,1,,,,,,,,,,,,,,,,,,,,,,,,,ピク　トマ　ムク　ピポ,トマ　ピク　ムク　ピポ,1
,,,,,,,,,R_ywJlRnprYwGbyOl,2022-09-01_19h20.26.149,jpn_C02,2022.1.2,Win32,60.10337781,,,,,,,,,,,,,CartoonStims/artist_point_boxer_r.jpg,,,,,,,,,,,,,,,,,,,,,,,,,,,,,,,,,,,,,right,0.0978,,,,,,0,8,8,27,1,,,,,,,,,,,,,,,,,,,,,,,,,トマ　シド　ドキ,トマ　シド　ドキ,0
,,,,,,,,,R_ywJlRnprYwGbyOl,2022-09-01_19h20.26.149,jpn_C02,2022.1.2,Win32,60.10337781,,,,,,,,,,,,,CartoonStims/boxer_punch_artist_r.jpg,,,,,,,,,,,,,,,,,,,,,,,,,,,,,,,,,,,,,right,0.0825,,,,,,0,9,9,35,1,,,,,,,,,,,,,,,,,,,,,,,,,プミ　ドキ　シド,プミ　ドキ　シド,0
,,,,,,,,,R_ywJlRnprYwGbyOl,2022-09-01_19h20.26.149,jpn_C02,2022.1.2,Win32,60.10337781,,,,,,,,,,,,,CartoonStims/artist_shoot_chef_r_no.jpg,,,,,,,,,,,,,,,,,,,,,,,,,,,,,,,,,,,,,right,0.0941,,,,,,0,10,10,12,1,,,,,,,,,,,,,,,,,,,,,,,,,ピク　パツ　シド　ホレト,パツ　ピク　シド　ホレト,1
,,,,,,,,,R_ywJlRnprYwGbyOl,2022-09-01_19h20.26.149,jpn_C02,2022.1.2,Win32,60.10337781,,,,,,,,,,,,,CartoonStims/burglar_point_artist_r.jpg,,,,,,,,,,,,,,,,,,,,,,,,,,,,,,,,,,,,,right,0.1069,,,,,,0,11,11,28,1,,,,,,,,,,,,,,,,,,,,,,,,,トマ　ルピン　シド,トマ　ルピン　シド,0
,,,,,,,,,R_ywJlRnprYwGbyOl,2022-09-01_19h20.26.149,jpn_C02,2022.1.2,Win32,60.10337781,,,,,,,,,,,,,CartoonStims/doctor_point_boxer_r_no.jpg,,,,,,,,,,,,,,,,,,,,,,,,,,,,,,,,,,,,,right,0.0841,,,,,,0,12,12,10,1,,,,,,,,,,,,,,,,,,,,,,,,,ピク　トマ　ピポ　ドキ,トマ　ピク　ピポ　ドキ,1
,,,,,,,,,R_ywJlRnprYwGbyOl,2022-09-01_19h20.26.149,jpn_C02,2022.1.2,Win32,60.10337781,,,,,,,,,,,,,CartoonStims/artist_kick_boxer_r_no.jpg,,,,,,,,,,,,,,,,,,,,,,,,,,,,,,,,,,,,,right,0.128,,,,,,0,13,13,0,1,,,,,,,,,,,,,,,,,,,,,,,,,ピク　セル　シド　ドキ,セル　ピク　シド　ドキ,1
,,,,,,,,,R_ywJlRnprYwGbyOl,2022-09-01_19h20.26.149,jpn_C02,2022.1.2,Win32,60.10337781,,,,,,,,,,,,,CartoonStims/cowboy_shoot_doctor_r.jpg,,,,,,,,,,,,,,,,,,,,,,,,,,,,,,,,,,,,,right,0.1073,,,,,,0,14,14,32,1,,,,,,,,,,,,,,,,,,,,,,,,,パツ　ムク　ピポ,パツ　ムク　ピポ,0
,,,,,,,,,R_ywJlRnprYwGbyOl,2022-09-01_19h20.26.149,jpn_C02,2022.1.2,Win32,60.10337781,,,,,,,,,,,,,CartoonStims/doctor_kick_cowboy_r_no.jpg,,,,,,,,,,,,,,,,,,,,,,,,,,,,,,,,,,,,,right,0.1018,,,,,,0,15,15,4,1,,,,,,,,,,,,,,,,,,,,,,,,,ピク　セル　ピポ　ムク,セル　ピク　ピポ　ムク,1
,,,,,,,,,R_ywJlRnprYwGbyOl,2022-09-01_19h20.26.149,jpn_C02,2022.1.2,Win32,60.10337781,,,,,,,,,,,,,CartoonStims/cowboy_shoot_boxer_r_no.jpg,,,,,,,,,,,,,,,,,,,,,,,,,,,,,,,,,,,,,right,0.0944,,,,,,0,16,16,15,1,,,,,,,,,,,,,,,,,,,,,,,,,ピク　パツ　ムク　ドキ,パツ　ピク　ムク　ドキ,1
,,,,,,,,,R_ywJlRnprYwGbyOl,2022-09-01_19h20.26.149,jpn_C02,2022.1.2,Win32,60.10337781,,,,,,,,,,,,,CartoonStims/chef_kick_burglar_r_no.jpg,,,,,,,,,,,,,,,,,,,,,,,,,,,,,,,,,,,,,right,0.1061,,,,,,0,17,17,2,1,,,,,,,,,,,,,,,,,,,,,,,,,ピク　セル　ホレト　ルピン,セル　ピク　ホレト　ルピン,1
,,,,,,,,,R_ywJlRnprYwGbyOl,2022-09-01_19h20.26.149,jpn_C02,2022.1.2,Win32,60.10337781,,,,,,,,,,,,,CartoonStims/boxer_point_artist_r_no.jpg,,,,,,,,,,,,,,,,,,,,,,,,,,,,,,,,,,,,,right,0.1035,,,,,,0,18,18,11,1,,,,,,,,,,,,,,,,,,,,,,,,,ピク　トマ　ドキ　シド,トマ　ピク　ドキ　シド,1
,,,,,,,,,R_ywJlRnprYwGbyOl,2022-09-01_19h20.26.149,jpn_C02,2022.1.2,Win32,60.10337781,,,,,,,,,,,,,CartoonStims/burglar_punch_doctor_r_no.jpg,,,,,,,,,,,,,,,,,,,,,,,,,,,,,,,,,,,,,right,0.1115,,,,,,0,19,19,19,1,,,,,,,,,,,,,,,,,,,,,,,,,ピク　プミ　ルピン　ピポ,プミ　ピク　ルピン　ピポ,1
,,,,,,,,,R_ywJlRnprYwGbyOl,2022-09-01_19h20.26.149,jpn_C02,2022.1.2,Win32,60.10337781,,,,,,,,,,,,,CartoonStims/artist_punch_burglar_r.jpg,,,,,,,,,,,,,,,,,,,,,,,,,,,,,,,,,,,,,right,0.0782,,,,,,0,20,20,33,1,,,,,,,,,,,,,,,,,,,,,,,,,プミ　シド　ルピン,プミ　シド　ルピン,0
,,,,,,,,,R_ywJlRnprYwGbyOl,2022-09-01_19h20.26.149,jpn_C02,2022.1.2,Win32,60.10337781,,,,,,,,,,,,,CartoonStims/burglar_kick_artist_r_no.jpg,,,,,,,,,,,,,,,,,,,,,,,,,,,,,,,,,,,,,right,0.0911,,,,,,0,21,21,1,1,,,,,,,,,,,,,,,,,,,,,,,,,ピク　セル　ルピン　シド,セル　ピク　ルピン　シド,1
,,,,,,,,,R_ywJlRnprYwGbyOl,2022-09-01_19h20.26.149,jpn_C02,2022.1.2,Win32,60.10337781,,,,,,,,,,,,,CartoonStims/doctor_shoot_artist_r_no.jpg,,,,,,,,,,,,,,,,,,,,,,,,,,,,,,,,,,,,,right,0.1335,,,,,,0,22,22,16,1,,,,,,,,,,,,,,,,,,,,,,,,,ピク　パツ　ピポ　シド,パツ　ピク　ピポ　シド,1
,,,,,,,,,R_ywJlRnprYwGbyOl,2022-09-01_19h20.26.149,jpn_C02,2022.1.2,Win32,60.10337781,,,,,,,,,,,,,CartoonStims/cowboy_punch_artist_r_no.jpg,,,,,,,,,,,,,,,,,,,,,,,,,,,,,,,,,,,,,right,0.1255,,,,,,0,23,23,21,1,,,,,,,,,,,,,,,,,,,,,,,,,ピク　プミ　ムク　シド,プミ　ピク　ムク　シド,1
,,,,,,,,,R_ywJlRnprYwGbyOl,2022-09-01_19h20.26.149,jpn_C02,2022.1.2,Win32,60.10337781,,,,,,,,,,,,,CartoonStims/chef_punch_boxer_r_no.jpg,,,,,,,,,,,,,,,,,,,,,,,,,,,,,,,,,,,,,right,0.1217,,,,,,0,24,24,20,1,,,,,,,,,,,,,,,,,,,,,,,,,ピク　プミ　ホレト　ドキ,プミ　ピク　ホレト　ドキ,1
,,,,,,,,,R_ywJlRnprYwGbyOl,2022-09-01_19h20.26.149,jpn_C02,2022.1.2,Win32,60.10337781,,,,,,,,,,,,,CartoonStims/chef_shoot_cowboy_r.jpg,,,,,,,,,,,,,,,,,,,,,,,,,,,,,,,,,,,,,right,0.1004,,,,,,0,25,25,31,1,,,,,,,,,,,,,,,,,,,,,,,,,パツ　ホレト　ムク,パツ　ホレト　ムク,0
,,,,,,,,,R_ywJlRnprYwGbyOl,2022-09-01_19h20.26.149,jpn_C02,2022.1.2,Win32,60.10337781,,,,,,,,,,,,,CartoonStims/boxer_punch_chef_r_no.jpg,,,,,,,,,,,,,,,,,,,,,,,,,,,,,,,,,,,,,right,0.1098,,,,,,0,26,26,23,1,,,,,,,,,,,,,,,,,,,,,,,,,ピク　プミ　ドキ　ホレト,プミ　ピク　ドキ　ホレト,1
,,,,,,,,,R_ywJlRnprYwGbyOl,2022-09-01_19h20.26.149,jpn_C02,2022.1.2,Win32,60.10337781,,,,,,,,,,,,,CartoonStims/doctor_punch_boxer_r.jpg,,,,,,,,,,,,,,,,,,,,,,,,,,,,,,,,,,,,,right,0.1401,,,,,,0,27,27,34,1,,,,,,,,,,,,,,,,,,,,,,,,,プミ　ピポ　ドキ,プミ　ピポ　ドキ,0
,,,,,,,,,R_ywJlRnprYwGbyOl,2022-09-01_19h20.26.149,jpn_C02,2022.1.2,Win32,60.10337781,,,,,,,,,,,,,CartoonStims/cowboy_kick_burglar_r.jpg,,,,,,,,,,,,,,,,,,,,,,,,,,,,,,,,,,,,,right,0.11,,,,,,0,28,28,24,1,,,,,,,,,,,,,,,,,,,,,,,,,セル　ムク　ルピン,セル　ムク　ルピン,0
,,,,,,,,,R_ywJlRnprYwGbyOl,2022-09-01_19h20.26.149,jpn_C02,2022.1.2,Win32,60.10337781,,,,,,,,,,,,,CartoonStims/boxer_shoot_burglar_r_no.jpg,,,,,,,,,,,,,,,,,,,,,,,,,,,,,,,,,,,,,right,0.0921,,,,,,0,29,29,17,1,,,,,,,,,,,,,,,,,,,,,,,,,ピク　パツ　ドキ　ルピン,パツ　ピク　ドキ　ルピン,1
,,,,,,,,,R_ywJlRnprYwGbyOl,2022-09-01_19h20.26.149,jpn_C02,2022.1.2,Win32,60.10337781,,,,,,,,,,,,,CartoonStims/boxer_kick_cowboy_r.jpg,,,,,,,,,,,,,,,,,,,,,,,,,,,,,,,,,,,,,right,0.1237,,,,,,0,30,30,26,1,,,,,,,,,,,,,,,,,,,,,,,,,セル　ドキ　ムク,セル　ドキ　ムク,0
,,,,,,,,,R_ywJlRnprYwGbyOl,2022-09-01_19h20.26.149,jpn_C02,2022.1.2,Win32,60.10337781,,,,,,,,,,,,,CartoonStims/artist_punch_cowboy_r_no.jpg,,,,,,,,,,,,,,,,,,,,,,,,,,,,,,,,,,,,,right,0.1162,,,,,,0,31,31,18,1,,,,,,,,,,,,,,,,,,,,,,,,,ピク　プミ　シド　ムク,プミ　ピク　シド　ムク,1
,,,,,,,,,R_ywJlRnprYwGbyOl,2022-09-01_19h20.26.149,jpn_C02,2022.1.2,Win32,60.10337781,,,,,,,,,,,,,CartoonStims/chef_point_burglar_r.jpg,,,,,,,,,,,,,,,,,,,,,,,,,,,,,,,,,,,,,right,0.0952,,,,,,0,32,32,29,1,,,,,,,,,,,,,,,,,,,,,,,,,トマ　ホレト　ルピン,トマ　ホレト　ルピン,0
,,,,,,,,,R_ywJlRnprYwGbyOl,2022-09-01_19h20.26.149,jpn_C02,2022.1.2,Win32,60.10337781,,,,,,,,,,,,,CartoonStims/burglar_point_chef_r_no.jpg,,,,,,,,,,,,,,,,,,,,,,,,,,,,,,,,,,,,,right,0.1384,,,,,,0,33,33,7,1,,,,,,,,,,,,,,,,,,,,,,,,,ピク　トマ　ルピン　ホレト,トマ　ピク　ルピン　ホレト,1
,,,,,,,,,R_ywJlRnprYwGbyOl,2022-09-01_19h20.26.149,jpn_C02,2022.1.2,Win32,60.10337781,,,,,,,,,,,,,CartoonStims/artist_point_burglar_r_no.jpg,,,,,,,,,,,,,,,,,,,,,,,,,,,,,,,,,,,,,right,0.1072,,,,,,0,34,34,6,1,,,,,,,,,,,,,,,,,,,,,,,,,ピク　トマ　シド　ルピン,トマ　ピク　シド　ルピン,1
,,,,,,,,,R_ywJlRnprYwGbyOl,2022-09-01_19h20.26.149,jpn_C02,2022.1.2,Win32,60.10337781,,,,,,,,,,,,,CartoonStims/chef_shoot_doctor_r_no.jpg,,,,,,,,,,,,,,,,,,,,,,,,,,,,,,,,,,,,,right,0.1014,,,,,,0,35,35,14,1,,,,,,,,,,,,,,,,,,,,,,,,,ピク　パツ　ホレト　ピポ,パツ　ピク　ホレト　ピポ,1
,,,,,,,,,R_ywJlRnprYwGbyOl,2022-09-01_19h20.26.149,jpn_C02,2022.1.2,Win32,60.10337781,,,,,,,,,,,,,,,,,,,,,,,,,,,,,,,,,,,,,,,,,,,,,,,,,,,,,,,,,,,,,,,,space,4.433,0,2,2,2,1,NegVCondition.xlsx,"ここではこの言語における否定の文を学習していただきます。引き続き注意して、 聞こえた音を復唱してください。

スペースキーを押してください。",1,NegVFCT.xlsx,ここからクイズが始まります。 スクリーンに表示されるテキストに合うイメージを選んでください。,NegTest.xlsx,1,最後にここまで学んだことをアウトプットしていただきます。 テキストボックスにあるイメージを描写するテキストを入力してください。 このタスクでは、 答え合わせは行いません。,0,これですべての実験が終わりました。 お疲れさまです。 この後はアンケートに答えていただきます。,,,,,,,,