key_resp_instr_a.keys,key_resp_instr_a.rt,key_resp_instr_b.keys,key_resp_instr_b.rt,dummy.thisRepN,dummy.thisTrialN,dummy.thisN,dummy.thisIndex,dummy.ran,participant,date,expName,psychopyVersion,OS,frameRate,key_resp_instr1.keys,key_resp_instr1.rt,key_resp.keys,key_resp.rt,exp_loop.thisRepN,exp_loop.thisTrialN,exp_loop.thisN,exp_loop.thisIndex,exp_loop.ran,Word,English,Flip,Path,Audio,key_resp_instr2.keys,key_resp_instr2.rt,key_resp_fct.keys,key_resp_fct.corr,key_resp_fct.rt,trials.thisRepN,trials.thisTrialN,trials.thisN,trials.thisIndex,trials.ran,fct_loop.thisRepN,fct_loop.thisTrialN,fct_loop.thisN,fct_loop.thisIndex,fct_loop.ran,left_img,word,right_img,correctans,correct_img,audio,incorrect_feedback,trials_2.thisRepN,trials_2.thisTrialN,trials_2.thisN,trials_2.thisIndex,trials_2.ran,key_resp_instr3.keys,key_resp_instr3.rt,textbox.text,key_resp_2.keys,key_resp_2.rt,fb_yn.thisRepN,fb_yn.thisTrialN,fb_yn.thisN,fb_yn.thisIndex,fb_yn.ran,gather_loop.thisRepN,gather_loop.thisTrialN,gather_loop.thisN,gather_loop.thisIndex,gather_loop.ran,Text,Wordbank,key_resp_instr4.keys,key_resp_instr4.rt,master_loop.thisRepN,master_loop.thisTrialN,master_loop.thisN,master_loop.thisIndex,master_loop.ran,exposure_file,instr_1,exp_reps,fct_file,instr_2,gather_file,gather_reps,instr_3,fReps,instr_4,trials_4.thisRepN,trials_4.thisTrialN,trials_4.thisN,trials_4.thisIndex,trials_4.ran,NegVSentence,VNegSentence,NegTF
space,6.5294,space,10.2508,0,0,0,0,1,R_1jOkqhkzWX4GFfj,2022-09-01_19h37.13.165,jpn_C02,2022.1.2,Win32,59.87306909,,,,,,,,,,,,,,,,,,,,,,,,,,,,,,,,,,,,,,,,,,,,,,,,,,,,,,,,,,,,,,,,,,,,,,,,,,,,,,,,,,,
,,,,,,,,,R_1jOkqhkzWX4GFfj,2022-09-01_19h37.13.165,jpn_C02,2022.1.2,Win32,59.87306909,space,41.8659,space,22.6647,0,0,0,3,1,ムク,cowboy,,CartoonStims/cowboy_r.jpg,audio/muku.mp3,,,,,,,,,,,,,,,,,,,,,,,,,,,,,,,,,,,,,,,,,,,,,,,,,,,,,,,,,,,,,,,,,,,,,
,,,,,,,,,R_1jOkqhkzWX4GFfj,2022-09-01_19h37.13.165,jpn_C02,2022.1.2,Win32,59.87306909,,,space,9.823,0,1,1,5,1,ドキ,boxer,,CartoonStims/boxer_r.jpg,audio/doki.mp3,,,,,,,,,,,,,,,,,,,,,,,,,,,,,,,,,,,,,,,,,,,,,,,,,,,,,,,,,,,,,,,,,,,,,
,,,,,,,,,R_1jOkqhkzWX4GFfj,2022-09-01_19h37.13.165,jpn_C02,2022.1.2,Win32,59.87306909,,,space,13.7349,0,2,2,2,1,ホレト,chef,,CartoonStims/chef_r.jpg,audio/horeto.mp3,,,,,,,,,,,,,,,,,,,,,,,,,,,,,,,,,,,,,,,,,,,,,,,,,,,,,,,,,,,,,,,,,,,,,
,,,,,,,,,R_1jOkqhkzWX4GFfj,2022-09-01_19h37.13.165,jpn_C02,2022.1.2,Win32,59.87306909,,,space,4.2512,0,3,3,1,1,ルピン,burglar,,CartoonStims/burglar_r.jpg,audio/lupin.mp3,,,,,,,,,,,,,,,,,,,,,,,,,,,,,,,,,,,,,,,,,,,,,,,,,,,,,,,,,,,,,,,,,,,,,
,,,,,,,,,R_1jOkqhkzWX4GFfj,2022-09-01_19h37.13.165,jpn_C02,2022.1.2,Win32,59.87306909,,,space,8.3805,0,4,4,0,1,シド,artist,,CartoonStims/artist_r.jpg,audio/sido.mp3,,,,,,,,,,,,,,,,,,,,,,,,,,,,,,,,,,,,,,,,,,,,,,,,,,,,,,,,,,,,,,,,,,,,,
,,,,,,,,,R_1jOkqhkzWX4GFfj,2022-09-01_19h37.13.165,jpn_C02,2022.1.2,Win32,59.87306909,,,space,6.1501,0,5,5,4,1,ピポ,doctor,,CartoonStims/doctor_r.jpg,audio/pipo.mp3,,,,,,,,,,,,,,,,,,,,,,,,,,,,,,,,,,,,,,,,,,,,,,,,,,,,,,,,,,,,,,,,,,,,,
,,,,,,,,,R_1jOkqhkzWX4GFfj,2022-09-01_19h37.13.165,jpn_C02,2022.1.2,Win32,59.87306909,,,space,1.7336,1,0,6,5,1,ドキ,boxer,,CartoonStims/boxer_r.jpg,audio/doki.mp3,,,,,,,,,,,,,,,,,,,,,,,,,,,,,,,,,,,,,,,,,,,,,,,,,,,,,,,,,,,,,,,,,,,,,
,,,,,,,,,R_1jOkqhkzWX4GFfj,2022-09-01_19h37.13.165,jpn_C02,2022.1.2,Win32,59.87306909,,,space,2.74,1,1,7,3,1,ムク,cowboy,,CartoonStims/cowboy_r.jpg,audio/muku.mp3,,,,,,,,,,,,,,,,,,,,,,,,,,,,,,,,,,,,,,,,,,,,,,,,,,,,,,,,,,,,,,,,,,,,,
,,,,,,,,,R_1jOkqhkzWX4GFfj,2022-09-01_19h37.13.165,jpn_C02,2022.1.2,Win32,59.87306909,,,space,6.602,1,2,8,4,1,ピポ,doctor,,CartoonStims/doctor_r.jpg,audio/pipo.mp3,,,,,,,,,,,,,,,,,,,,,,,,,,,,,,,,,,,,,,,,,,,,,,,,,,,,,,,,,,,,,,,,,,,,,
,,,,,,,,,R_1jOkqhkzWX4GFfj,2022-09-01_19h37.13.165,jpn_C02,2022.1.2,Win32,59.87306909,,,space,5.6653,1,3,9,0,1,シド,artist,,CartoonStims/artist_r.jpg,audio/sido.mp3,,,,,,,,,,,,,,,,,,,,,,,,,,,,,,,,,,,,,,,,,,,,,,,,,,,,,,,,,,,,,,,,,,,,,
,,,,,,,,,R_1jOkqhkzWX4GFfj,2022-09-01_19h37.13.165,jpn_C02,2022.1.2,Win32,59.87306909,,,space,1.8873,1,4,10,1,1,ルピン,burglar,,CartoonStims/burglar_r.jpg,audio/lupin.mp3,,,,,,,,,,,,,,,,,,,,,,,,,,,,,,,,,,,,,,,,,,,,,,,,,,,,,,,,,,,,,,,,,,,,,
,,,,,,,,,R_1jOkqhkzWX4GFfj,2022-09-01_19h37.13.165,jpn_C02,2022.1.2,Win32,59.87306909,,,space,5.108,1,5,11,2,1,ホレト,chef,,CartoonStims/chef_r.jpg,audio/horeto.mp3,,,,,,,,,,,,,,,,,,,,,,,,,,,,,,,,,,,,,,,,,,,,,,,,,,,,,,,,,,,,,,,,,,,,,
,,,,,,,,,R_1jOkqhkzWX4GFfj,2022-09-01_19h37.13.165,jpn_C02,2022.1.2,Win32,59.87306909,,,space,3.6824,2,0,12,0,1,シド,artist,,CartoonStims/artist_r.jpg,audio/sido.mp3,,,,,,,,,,,,,,,,,,,,,,,,,,,,,,,,,,,,,,,,,,,,,,,,,,,,,,,,,,,,,,,,,,,,,
,,,,,,,,,R_1jOkqhkzWX4GFfj,2022-09-01_19h37.13.165,jpn_C02,2022.1.2,Win32,59.87306909,,,space,1.2423,2,1,13,1,1,ルピン,burglar,,CartoonStims/burglar_r.jpg,audio/lupin.mp3,,,,,,,,,,,,,,,,,,,,,,,,,,,,,,,,,,,,,,,,,,,,,,,,,,,,,,,,,,,,,,,,,,,,,
,,,,,,,,,R_1jOkqhkzWX4GFfj,2022-09-01_19h37.13.165,jpn_C02,2022.1.2,Win32,59.87306909,,,space,1.3339,2,2,14,3,1,ムク,cowboy,,CartoonStims/cowboy_r.jpg,audio/muku.mp3,,,,,,,,,,,,,,,,,,,,,,,,,,,,,,,,,,,,,,,,,,,,,,,,,,,,,,,,,,,,,,,,,,,,,
,,,,,,,,,R_1jOkqhkzWX4GFfj,2022-09-01_19h37.13.165,jpn_C02,2022.1.2,Win32,59.87306909,,,space,0.8834,2,3,15,2,1,ホレト,chef,,CartoonStims/chef_r.jpg,audio/horeto.mp3,,,,,,,,,,,,,,,,,,,,,,,,,,,,,,,,,,,,,,,,,,,,,,,,,,,,,,,,,,,,,,,,,,,,,
,,,,,,,,,R_1jOkqhkzWX4GFfj,2022-09-01_19h37.13.165,jpn_C02,2022.1.2,Win32,59.87306909,,,space,2.8014,2,4,16,5,1,ドキ,boxer,,CartoonStims/boxer_r.jpg,audio/doki.mp3,,,,,,,,,,,,,,,,,,,,,,,,,,,,,,,,,,,,,,,,,,,,,,,,,,,,,,,,,,,,,,,,,,,,,
,,,,,,,,,R_1jOkqhkzWX4GFfj,2022-09-01_19h37.13.165,jpn_C02,2022.1.2,Win32,59.87306909,,,space,1.0871,2,5,17,4,1,ピポ,doctor,,CartoonStims/doctor_r.jpg,audio/pipo.mp3,,,,,,,,,,,,,,,,,,,,,,,,,,,,,,,,,,,,,,,,,,,,,,,,,,,,,,,,,,,,,,,,,,,,,
,,,,,,,,,R_1jOkqhkzWX4GFfj,2022-09-01_19h37.13.165,jpn_C02,2022.1.2,Win32,59.87306909,,,,,,,,,,,,,,,space,5.4327,left,1,1.7399,0,0,0,0,1,,,,,,,,,,,,,,,,,,,,,,,,,,,,,,,,,,,,,,,,,,,,,,,,,,,,,,,,,,,
,,,,,,,,,R_1jOkqhkzWX4GFfj,2022-09-01_19h37.13.165,jpn_C02,2022.1.2,Win32,59.87306909,,,,,,,,,,,,,,,,,,,,,,,,,0,0,0,3,1,CartoonStims/cowboy_r.jpg,ムク,CartoonStims/doctor_r.jpg,left,CartoonStims/cowboy_r.jpg,audio/muku.mp3,残念！ こちらが正しい画像です。,,,,,,,,,,,,,,,,,,,,,,,,,,,,,,,,,,,,,,,,,,,,,,,
,,,,,,,,,R_1jOkqhkzWX4GFfj,2022-09-01_19h37.13.165,jpn_C02,2022.1.2,Win32,59.87306909,,,,,,,,,,,,,,,,,left,1,0.6847,0,0,0,0,1,,,,,,,,,,,,,,,,,,,,,,,,,,,,,,,,,,,,,,,,,,,,,,,,,,,,,,,,,,,
,,,,,,,,,R_1jOkqhkzWX4GFfj,2022-09-01_19h37.13.165,jpn_C02,2022.1.2,Win32,59.87306909,,,,,,,,,,,,,,,,,,,,,,,,,0,1,1,5,1,CartoonStims/boxer_r.jpg,ドキ,CartoonStims/artist_r.jpg,left,CartoonStims/boxer_r.jpg,audio/doki.mp3,残念！ こちらが正しい画像です。,,,,,,,,,,,,,,,,,,,,,,,,,,,,,,,,,,,,,,,,,,,,,,,
,,,,,,,,,R_1jOkqhkzWX4GFfj,2022-09-01_19h37.13.165,jpn_C02,2022.1.2,Win32,59.87306909,,,,,,,,,,,,,,,,,right,1,1.5081,,,,,,,,,,,,,,,,,,0,0,0,0,1,,,,,,,,,,,,,,,,,,,,,,,,,,,,,,,,,,,,,,,,,,
,,,,,,,,,R_1jOkqhkzWX4GFfj,2022-09-01_19h37.13.165,jpn_C02,2022.1.2,Win32,59.87306909,,,,,,,,,,,,,,,,,,,,,,,,,0,2,2,6,1,CartoonStims/chef_r.jpg,シド,CartoonStims/artist_r.jpg,right,CartoonStims/artist_r.jpg,audio/sido.mp3,残念！ こちらが正しい画像です。,,,,,,,,,,,,,,,,,,,,,,,,,,,,,,,,,,,,,,,,,,,,,,,
,,,,,,,,,R_1jOkqhkzWX4GFfj,2022-09-01_19h37.13.165,jpn_C02,2022.1.2,Win32,59.87306909,,,,,,,,,,,,,,,,,left,1,0.867,0,0,0,0,1,,,,,,,,,,,,,,,,,,,,,,,,,,,,,,,,,,,,,,,,,,,,,,,,,,,,,,,,,,,
,,,,,,,,,R_1jOkqhkzWX4GFfj,2022-09-01_19h37.13.165,jpn_C02,2022.1.2,Win32,59.87306909,,,,,,,,,,,,,,,,,,,,,,,,,0,3,3,2,1,CartoonStims/chef_r.jpg,ホレト,CartoonStims/cowboy_r.jpg,left,CartoonStims/chef_r.jpg,audio/horeto.mp3,残念！ こちらが正しい画像です。,,,,,,,,,,,,,,,,,,,,,,,,,,,,,,,,,,,,,,,,,,,,,,,
,,,,,,,,,R_1jOkqhkzWX4GFfj,2022-09-01_19h37.13.165,jpn_C02,2022.1.2,Win32,59.87306909,,,,,,,,,,,,,,,,,left,1,1.3229,0,0,0,0,1,,,,,,,,,,,,,,,,,,,,,,,,,,,,,,,,,,,,,,,,,,,,,,,,,,,,,,,,,,,
,,,,,,,,,R_1jOkqhkzWX4GFfj,2022-09-01_19h37.13.165,jpn_C02,2022.1.2,Win32,59.87306909,,,,,,,,,,,,,,,,,,,,,,,,,0,4,4,4,1,CartoonStims/doctor_r.jpg,ピポ,CartoonStims/boxer_r.jpg,left,CartoonStims/doctor_r.jpg,audio/pipo.mp3,残念！ こちらが正しい画像です。,,,,,,,,,,,,,,,,,,,,,,,,,,,,,,,,,,,,,,,,,,,,,,,
,,,,,,,,,R_1jOkqhkzWX4GFfj,2022-09-01_19h37.13.165,jpn_C02,2022.1.2,Win32,59.87306909,,,,,,,,,,,,,,,,,right,1,0.8233,,,,,,,,,,,,,,,,,,0,0,0,0,1,,,,,,,,,,,,,,,,,,,,,,,,,,,,,,,,,,,,,,,,,,
,,,,,,,,,R_1jOkqhkzWX4GFfj,2022-09-01_19h37.13.165,jpn_C02,2022.1.2,Win32,59.87306909,,,,,,,,,,,,,,,,,,,,,,,,,0,5,5,9,1,CartoonStims/boxer_r.jpg,ムク,CartoonStims/cowboy_r.jpg,right,CartoonStims/cowboy_r.jpg,audio/muku.mp3,残念！ こちらが正しい画像です。,,,,,,,,,,,,,,,,,,,,,,,,,,,,,,,,,,,,,,,,,,,,,,,
,,,,,,,,,R_1jOkqhkzWX4GFfj,2022-09-01_19h37.13.165,jpn_C02,2022.1.2,Win32,59.87306909,,,,,,,,,,,,,,,,,right,1,2.5043,,,,,,,,,,,,,,,,,,0,0,0,0,1,,,,,,,,,,,,,,,,,,,,,,,,,,,,,,,,,,,,,,,,,,
,,,,,,,,,R_1jOkqhkzWX4GFfj,2022-09-01_19h37.13.165,jpn_C02,2022.1.2,Win32,59.87306909,,,,,,,,,,,,,,,,,,,,,,,,,0,6,6,10,1,CartoonStims/artist_r.jpg,ピポ,CartoonStims/doctor_r.jpg,right,CartoonStims/doctor_r.jpg,audio/pipo.mp3,残念！ こちらが正しい画像です。,,,,,,,,,,,,,,,,,,,,,,,,,,,,,,,,,,,,,,,,,,,,,,,
,,,,,,,,,R_1jOkqhkzWX4GFfj,2022-09-01_19h37.13.165,jpn_C02,2022.1.2,Win32,59.87306909,,,,,,,,,,,,,,,,,right,1,3.1831,,,,,,,,,,,,,,,,,,0,0,0,0,1,,,,,,,,,,,,,,,,,,,,,,,,,,,,,,,,,,,,,,,,,,
,,,,,,,,,R_1jOkqhkzWX4GFfj,2022-09-01_19h37.13.165,jpn_C02,2022.1.2,Win32,59.87306909,,,,,,,,,,,,,,,,,,,,,,,,,0,7,7,8,1,CartoonStims/doctor_r.jpg,ホレト,CartoonStims/chef_r.jpg,right,CartoonStims/chef_r.jpg,audio/horeto.mp3,残念！ こちらが正しい画像です。,,,,,,,,,,,,,,,,,,,,,,,,,,,,,,,,,,,,,,,,,,,,,,,
,,,,,,,,,R_1jOkqhkzWX4GFfj,2022-09-01_19h37.13.165,jpn_C02,2022.1.2,Win32,59.87306909,,,,,,,,,,,,,,,,,right,1,0.7035,,,,,,,,,,,,,,,,,,0,0,0,0,1,,,,,,,,,,,,,,,,,,,,,,,,,,,,,,,,,,,,,,,,,,
,,,,,,,,,R_1jOkqhkzWX4GFfj,2022-09-01_19h37.13.165,jpn_C02,2022.1.2,Win32,59.87306909,,,,,,,,,,,,,,,,,,,,,,,,,0,8,8,11,1,CartoonStims/burglar_r.jpg,ドキ,CartoonStims/boxer_r.jpg,right,CartoonStims/boxer_r.jpg,audio/doki.mp3,残念！ こちらが正しい画像です。,,,,,,,,,,,,,,,,,,,,,,,,,,,,,,,,,,,,,,,,,,,,,,,
,,,,,,,,,R_1jOkqhkzWX4GFfj,2022-09-01_19h37.13.165,jpn_C02,2022.1.2,Win32,59.87306909,,,,,,,,,,,,,,,,,left,1,0.2266,0,0,0,0,1,,,,,,,,,,,,,,,,,,,,,,,,,,,,,,,,,,,,,,,,,,,,,,,,,,,,,,,,,,,
,,,,,,,,,R_1jOkqhkzWX4GFfj,2022-09-01_19h37.13.165,jpn_C02,2022.1.2,Win32,59.87306909,,,,,,,,,,,,,,,,,,,,,,,,,0,9,9,1,1,CartoonStims/burglar_r.jpg,ルピン,CartoonStims/chef_r.jpg,left,CartoonStims/burglar_r.jpg,audio/lupin.mp3,残念！ こちらが正しい画像です。,,,,,,,,,,,,,,,,,,,,,,,,,,,,,,,,,,,,,,,,,,,,,,,
,,,,,,,,,R_1jOkqhkzWX4GFfj,2022-09-01_19h37.13.165,jpn_C02,2022.1.2,Win32,59.87306909,,,,,,,,,,,,,,,,,left,1,1.2547,0,0,0,0,1,,,,,,,,,,,,,,,,,,,,,,,,,,,,,,,,,,,,,,,,,,,,,,,,,,,,,,,,,,,
,,,,,,,,,R_1jOkqhkzWX4GFfj,2022-09-01_19h37.13.165,jpn_C02,2022.1.2,Win32,59.87306909,,,,,,,,,,,,,,,,,,,,,,,,,0,10,10,0,1,CartoonStims/artist_r.jpg,シド,CartoonStims/burglar_r.jpg,left,CartoonStims/artist_r.jpg,audio/sido.mp3,残念！ こちらが正しい画像です。,,,,,,,,,,,,,,,,,,,,,,,,,,,,,,,,,,,,,,,,,,,,,,,
,,,,,,,,,R_1jOkqhkzWX4GFfj,2022-09-01_19h37.13.165,jpn_C02,2022.1.2,Win32,59.87306909,,,,,,,,,,,,,,,,,right,1,0.2686,,,,,,,,,,,,,,,,,,0,0,0,0,1,,,,,,,,,,,,,,,,,,,,,,,,,,,,,,,,,,,,,,,,,,
,,,,,,,,,R_1jOkqhkzWX4GFfj,2022-09-01_19h37.13.165,jpn_C02,2022.1.2,Win32,59.87306909,,,,,,,,,,,,,,,,,,,,,,,,,0,11,11,7,1,CartoonStims/cowboy_r.jpg,ルピン,CartoonStims/burglar_r.jpg,right,CartoonStims/burglar_r.jpg,audio/lupin.mp3,残念！ こちらが正しい画像です。,,,,,,,,,,,,,,,,,,,,,,,,,,,,,,,,,,,,,,,,,,,,,,,
,,,,,,,,,R_1jOkqhkzWX4GFfj,2022-09-01_19h37.13.165,jpn_C02,2022.1.2,Win32,59.87306909,,,,,,,,,,,,,,,,,,,,,,,,,,,,,,,,,,,,,,,,,,space,4.6585,ルピン,right,9.6152,0,0,0,0,1,,,,,,,,,,,,,,,,,,,,,,,,,,,,,,,,
,,,,,,,,,R_1jOkqhkzWX4GFfj,2022-09-01_19h37.13.165,jpn_C02,2022.1.2,Win32,59.87306909,,,,,,,,,,,,,CartoonStims/burglar_r.jpg,audio/lupin.mp3,,,,,,,,,,,,,,,,,,,,,,,,,,,,,,,,,,,,,,0,0,0,1,1,ルピン,,,,,,,,,,,,,,,,,,,,,,,,,,
,,,,,,,,,R_1jOkqhkzWX4GFfj,2022-09-01_19h37.13.165,jpn_C02,2022.1.2,Win32,59.87306909,,,,,,,,,,,,,,,,,,,,,,,,,,,,,,,,,,,,,,,,,,,,ピポ,right,14.7519,0,0,0,0,1,,,,,,,,,,,,,,,,,,,,,,,,,,,,,,,,
,,,,,,,,,R_1jOkqhkzWX4GFfj,2022-09-01_19h37.13.165,jpn_C02,2022.1.2,Win32,59.87306909,,,,,,,,,,,,,CartoonStims/doctor_r.jpg,audio/pipo.mp3,,,,,,,,,,,,,,,,,,,,,,,,,,,,,,,,,,,,,,0,1,1,4,1,ピポ,,,,,,,,,,,,,,,,,,,,,,,,,,
,,,,,,,,,R_1jOkqhkzWX4GFfj,2022-09-01_19h37.13.165,jpn_C02,2022.1.2,Win32,59.87306909,,,,,,,,,,,,,,,,,,,,,,,,,,,,,,,,,,,,,,,,,,,,ホレト,right,23.7085,0,0,0,0,1,,,,,,,,,,,,,,,,,,,,,,,,,,,,,,,,
,,,,,,,,,R_1jOkqhkzWX4GFfj,2022-09-01_19h37.13.165,jpn_C02,2022.1.2,Win32,59.87306909,,,,,,,,,,,,,CartoonStims/cowboy_r.jpg,audio/muku.mp3,,,,,,,,,,,,,,,,,,,,,,,,,,,,,,,,,,,,,,0,2,2,3,1,ムク,,,,,,,,,,,,,,,,,,,,,,,,,,
,,,,,,,,,R_1jOkqhkzWX4GFfj,2022-09-01_19h37.13.165,jpn_C02,2022.1.2,Win32,59.87306909,,,,,,,,,,,,,,,,,,,,,,,,,,,,,,,,,,,,,,,,,,,,ピポ,right,9.2665,0,0,0,0,1,,,,,,,,,,,,,,,,,,,,,,,,,,,,,,,,
,,,,,,,,,R_1jOkqhkzWX4GFfj,2022-09-01_19h37.13.165,jpn_C02,2022.1.2,Win32,59.87306909,,,,,,,,,,,,,CartoonStims/chef_r.jpg,audio/horeto.mp3,,,,,,,,,,,,,,,,,,,,,,,,,,,,,,,,,,,,,,0,3,3,2,1,ホレト,,,,,,,,,,,,,,,,,,,,,,,,,,
,,,,,,,,,R_1jOkqhkzWX4GFfj,2022-09-01_19h37.13.165,jpn_C02,2022.1.2,Win32,59.87306909,,,,,,,,,,,,,,,,,,,,,,,,,,,,,,,,,,,,,,,,,,,,シド,right,8.7845,0,0,0,0,1,,,,,,,,,,,,,,,,,,,,,,,,,,,,,,,,
,,,,,,,,,R_1jOkqhkzWX4GFfj,2022-09-01_19h37.13.165,jpn_C02,2022.1.2,Win32,59.87306909,,,,,,,,,,,,,CartoonStims/artist_r.jpg,audio/sido.mp3,,,,,,,,,,,,,,,,,,,,,,,,,,,,,,,,,,,,,,0,4,4,0,1,シド,,,,,,,,,,,,,,,,,,,,,,,,,,
,,,,,,,,,R_1jOkqhkzWX4GFfj,2022-09-01_19h37.13.165,jpn_C02,2022.1.2,Win32,59.87306909,,,,,,,,,,,,,,,,,,,,,,,,,,,,,,,,,,,,,,,,,,,,ドキ,right,5.1546,0,0,0,0,1,,,,,,,,,,,,,,,,,,,,,,,,,,,,,,,,
,,,,,,,,,R_1jOkqhkzWX4GFfj,2022-09-01_19h37.13.165,jpn_C02,2022.1.2,Win32,59.87306909,,,,,,,,,,,,,CartoonStims/boxer_r.jpg,audio/doki.mp3,,,,,,,,,,,,,,,,,,,,,,,,,,,,,,,,,,,,,,0,5,5,5,1,ドキ,,,,,,,,,,,,,,,,,,,,,,,,,,
,,,,,,,,,R_1jOkqhkzWX4GFfj,2022-09-01_19h37.13.165,jpn_C02,2022.1.2,Win32,59.87306909,,,,,,,,,,,,,,,,,,,,,,,,,,,,,,,,,,,,,,,,,,,,ドキ,right,5.1148,0,0,0,0,1,,,,,,,,,,,,,,,,,,,,,,,,,,,,,,,,
,,,,,,,,,R_1jOkqhkzWX4GFfj,2022-09-01_19h37.13.165,jpn_C02,2022.1.2,Win32,59.87306909,,,,,,,,,,,,,CartoonStims/boxer_r.jpg,audio/doki.mp3,,,,,,,,,,,,,,,,,,,,,,,,,,,,,,,,,,,,,,1,0,6,5,1,ドキ,,,,,,,,,,,,,,,,,,,,,,,,,,
,,,,,,,,,R_1jOkqhkzWX4GFfj,2022-09-01_19h37.13.165,jpn_C02,2022.1.2,Win32,59.87306909,,,,,,,,,,,,,,,,,,,,,,,,,,,,,,,,,,,,,,,,,,,,ピポ,right,7.7223,0,0,0,0,1,,,,,,,,,,,,,,,,,,,,,,,,,,,,,,,,
,,,,,,,,,R_1jOkqhkzWX4GFfj,2022-09-01_19h37.13.165,jpn_C02,2022.1.2,Win32,59.87306909,,,,,,,,,,,,,CartoonStims/doctor_r.jpg,audio/pipo.mp3,,,,,,,,,,,,,,,,,,,,,,,,,,,,,,,,,,,,,,1,1,7,4,1,ピポ,,,,,,,,,,,,,,,,,,,,,,,,,,
,,,,,,,,,R_1jOkqhkzWX4GFfj,2022-09-01_19h37.13.165,jpn_C02,2022.1.2,Win32,59.87306909,,,,,,,,,,,,,,,,,,,,,,,,,,,,,,,,,,,,,,,,,,,,ムク,right,8.7128,0,0,0,0,1,,,,,,,,,,,,,,,,,,,,,,,,,,,,,,,,
,,,,,,,,,R_1jOkqhkzWX4GFfj,2022-09-01_19h37.13.165,jpn_C02,2022.1.2,Win32,59.87306909,,,,,,,,,,,,,CartoonStims/cowboy_r.jpg,audio/muku.mp3,,,,,,,,,,,,,,,,,,,,,,,,,,,,,,,,,,,,,,1,2,8,3,1,ムク,,,,,,,,,,,,,,,,,,,,,,,,,,
,,,,,,,,,R_1jOkqhkzWX4GFfj,2022-09-01_19h37.13.165,jpn_C02,2022.1.2,Win32,59.87306909,,,,,,,,,,,,,,,,,,,,,,,,,,,,,,,,,,,,,,,,,,,,シド,right,4.2092,0,0,0,0,1,,,,,,,,,,,,,,,,,,,,,,,,,,,,,,,,
,,,,,,,,,R_1jOkqhkzWX4GFfj,2022-09-01_19h37.13.165,jpn_C02,2022.1.2,Win32,59.87306909,,,,,,,,,,,,,CartoonStims/artist_r.jpg,audio/sido.mp3,,,,,,,,,,,,,,,,,,,,,,,,,,,,,,,,,,,,,,1,3,9,0,1,シド,,,,,,,,,,,,,,,,,,,,,,,,,,
,,,,,,,,,R_1jOkqhkzWX4GFfj,2022-09-01_19h37.13.165,jpn_C02,2022.1.2,Win32,59.87306909,,,,,,,,,,,,,,,,,,,,,,,,,,,,,,,,,,,,,,,,,,,,ルピン,right,5.1013,0,0,0,0,1,,,,,,,,,,,,,,,,,,,,,,,,,,,,,,,,
,,,,,,,,,R_1jOkqhkzWX4GFfj,2022-09-01_19h37.13.165,jpn_C02,2022.1.2,Win32,59.87306909,,,,,,,,,,,,,CartoonStims/burglar_r.jpg,audio/lupin.mp3,,,,,,,,,,,,,,,,,,,,,,,,,,,,,,,,,,,,,,1,4,10,1,1,ルピン,,,,,,,,,,,,,,,,,,,,,,,,,,
,,,,,,,,,R_1jOkqhkzWX4GFfj,2022-09-01_19h37.13.165,jpn_C02,2022.1.2,Win32,59.87306909,,,,,,,,,,,,,,,,,,,,,,,,,,,,,,,,,,,,,,,,,,,,ホレト,right,22.8762,0,0,0,0,1,,,,,,,,,,,,,,,,,,,,,,,,,,,,,,,,
,,,,,,,,,R_1jOkqhkzWX4GFfj,2022-09-01_19h37.13.165,jpn_C02,2022.1.2,Win32,59.87306909,,,,,,,,,,,,,CartoonStims/chef_r.jpg,audio/horeto.mp3,,,,,,,,,,,,,,,,,,,,,,,,,,,,,,,,,,,,,,1,5,11,2,1,ホレト,,,,,,,,,,,,,,,,,,,,,,,,,,
,,,,,,,,,R_1jOkqhkzWX4GFfj,2022-09-01_19h37.13.165,jpn_C02,2022.1.2,Win32,59.87306909,,,,,,,,,,,,,,,,,,,,,,,,,,,,,,,,,,,,,,,,,,,,,,,,,,,,,,,,,,,space,4.5389,0,0,0,0,1,NounExposure.xlsx,"最初のトライアルでは、 画像が表示され、 その画像の下に単語が出てきます。 またこの単語の音も聞くことができます。 この音を大きな声で復唱してください。 そしてこの画像がどのような単語を示しているのか, 考えてみてください。 その後、 続きのボタンを押すと次の単語の学習が始まります。

スペースキーを押して、学習を始めましょう。",3,NounFCT.xlsx,ここから語彙のクイズが始まります。スクリーンに表示される単語に合う画像をキーボードの右と左の矢印キーを使って選択してください。,NounTest.xlsx,2,次に、これまで学習してきたことをアウトプットしていただきます。 表示される画像を描写していると思う単語を、テキストボックスにタイプしてください。,1,"ここまでが最初のトライアルです。ここで休憩をとっても構いません。

休憩が済みましたら、スペースキーを押して続きを始めましょう。",,,,,,,,
,,,,,,,,,R_1jOkqhkzWX4GFfj,2022-09-01_19h37.13.165,jpn_C02,2022.1.2,Win32,59.87306909,space,11.1199,space,13.1491,0,0,0,42,1,プミ　ムク　ルピン,,,CartoonStims/cowboy_punch_burglar_r.jpg,audio/pumimukulupin.mp3,,,,,,,,,,,,,,,,,,,,,,,,,,,,,,,,,,,,,,,,,,,,,,,,,,,,,,,,,,,,,,,,,,,,,
,,,,,,,,,R_1jOkqhkzWX4GFfj,2022-09-01_19h37.13.165,jpn_C02,2022.1.2,Win32,59.87306909,,,space,10.932,0,1,1,25,1,パツ　シド　ピポ,,,CartoonStims/artist_shoot_doctor_r.jpg,audio/patsusidopipo.mp3,,,,,,,,,,,,,,,,,,,,,,,,,,,,,,,,,,,,,,,,,,,,,,,,,,,,,,,,,,,,,,,,,,,,,
,,,,,,,,,R_1jOkqhkzWX4GFfj,2022-09-01_19h37.13.165,jpn_C02,2022.1.2,Win32,59.87306909,,,space,9.4964,0,2,2,18,1,トマ　ムク　ドキ,,,CartoonStims/cowboy_point_boxer_r.jpg,audio/tomamukudoki.mp3,,,,,,,,,,,,,,,,,,,,,,,,,,,,,,,,,,,,,,,,,,,,,,,,,,,,,,,,,,,,,,,,,,,,,
,,,,,,,,,R_1jOkqhkzWX4GFfj,2022-09-01_19h37.13.165,jpn_C02,2022.1.2,Win32,59.87306909,,,space,6.8026,0,3,3,40,1,プミ　ホレト　シド,,,CartoonStims/chef_punch_artist_r.jpg,audio/pumihoretosido.mp3,,,,,,,,,,,,,,,,,,,,,,,,,,,,,,,,,,,,,,,,,,,,,,,,,,,,,,,,,,,,,,,,,,,,,
,,,,,,,,,R_1jOkqhkzWX4GFfj,2022-09-01_19h37.13.165,jpn_C02,2022.1.2,Win32,59.87306909,,,space,5.6727,0,4,4,24,1,パツ　シド　ムク,,,CartoonStims/artist_shoot_cowboy_r.jpg,audio/patsusidomuku.mp3,,,,,,,,,,,,,,,,,,,,,,,,,,,,,,,,,,,,,,,,,,,,,,,,,,,,,,,,,,,,,,,,,,,,,
,,,,,,,,,R_1jOkqhkzWX4GFfj,2022-09-01_19h37.13.165,jpn_C02,2022.1.2,Win32,59.87306909,,,space,2.5592,0,5,5,35,1,パツ　ドキ　ムク,,,CartoonStims/boxer_shoot_cowboy_r.jpg,audio/patsudokimuku.mp3,,,,,,,,,,,,,,,,,,,,,,,,,,,,,,,,,,,,,,,,,,,,,,,,,,,,,,,,,,,,,,,,,,,,,
,,,,,,,,,R_1jOkqhkzWX4GFfj,2022-09-01_19h37.13.165,jpn_C02,2022.1.2,Win32,59.87306909,,,space,10.5873,0,6,6,3,1,セル　ルピン　ムク,,,CartoonStims/burglar_kick_cowboy_r.jpg,audio/serulupinmuku.mp3,,,,,,,,,,,,,,,,,,,,,,,,,,,,,,,,,,,,,,,,,,,,,,,,,,,,,,,,,,,,,,,,,,,,,
,,,,,,,,,R_1jOkqhkzWX4GFfj,2022-09-01_19h37.13.165,jpn_C02,2022.1.2,Win32,59.87306909,,,space,4.1368,0,7,7,5,1,セル　ホレト　ピポ,,,CartoonStims/chef_kick_doctor_r.jpg,audio/seruhoretopipo.mp3,,,,,,,,,,,,,,,,,,,,,,,,,,,,,,,,,,,,,,,,,,,,,,,,,,,,,,,,,,,,,,,,,,,,,
,,,,,,,,,R_1jOkqhkzWX4GFfj,2022-09-01_19h37.13.165,jpn_C02,2022.1.2,Win32,59.87306909,,,space,6.0714,0,8,8,23,1,トマ　ドキ　ホレト,,,CartoonStims/boxer_point_chef_r.jpg,audio/tomadokihoreto.mp3,,,,,,,,,,,,,,,,,,,,,,,,,,,,,,,,,,,,,,,,,,,,,,,,,,,,,,,,,,,,,,,,,,,,,
,,,,,,,,,R_1jOkqhkzWX4GFfj,2022-09-01_19h37.13.165,jpn_C02,2022.1.2,Win32,59.87306909,,,space,3.8327,0,9,9,4,1,セル　ホレト　ムク,,,CartoonStims/chef_kick_cowboy_r.jpg,audio/seruhoretomuku.mp3,,,,,,,,,,,,,,,,,,,,,,,,,,,,,,,,,,,,,,,,,,,,,,,,,,,,,,,,,,,,,,,,,,,,,
,,,,,,,,,R_1jOkqhkzWX4GFfj,2022-09-01_19h37.13.165,jpn_C02,2022.1.2,Win32,59.87306909,,,space,3.0826,0,10,10,10,1,セル　ドキ　シド,,,CartoonStims/boxer_kick_artist_r.jpg,audio/serudokisido.mp3,,,,,,,,,,,,,,,,,,,,,,,,,,,,,,,,,,,,,,,,,,,,,,,,,,,,,,,,,,,,,,,,,,,,,
,,,,,,,,,R_1jOkqhkzWX4GFfj,2022-09-01_19h37.13.165,jpn_C02,2022.1.2,Win32,59.87306909,,,space,8.4478,0,11,11,17,1,トマ　ホレト　ドキ,,,CartoonStims/chef_point_boxer_r.jpg,audio/tomahoretodoki.mp3,,,,,,,,,,,,,,,,,,,,,,,,,,,,,,,,,,,,,,,,,,,,,,,,,,,,,,,,,,,,,,,,,,,,,
,,,,,,,,,R_1jOkqhkzWX4GFfj,2022-09-01_19h37.13.165,jpn_C02,2022.1.2,Win32,59.87306909,,,space,2.1524,0,12,12,22,1,トマ　ドキ　ルピン,,,CartoonStims/boxer_point_burglar_r.jpg,audio/tomadokilupin.mp3,,,,,,,,,,,,,,,,,,,,,,,,,,,,,,,,,,,,,,,,,,,,,,,,,,,,,,,,,,,,,,,,,,,,,
,,,,,,,,,R_1jOkqhkzWX4GFfj,2022-09-01_19h37.13.165,jpn_C02,2022.1.2,Win32,59.87306909,,,space,1.5842,0,13,13,11,1,セル　ドキ　ルピン,,,CartoonStims/boxer_kick_burglar_r.jpg,audio/serudokilupin.mp3,,,,,,,,,,,,,,,,,,,,,,,,,,,,,,,,,,,,,,,,,,,,,,,,,,,,,,,,,,,,,,,,,,,,,
,,,,,,,,,R_1jOkqhkzWX4GFfj,2022-09-01_19h37.13.165,jpn_C02,2022.1.2,Win32,59.87306909,,,space,4.7537,0,14,14,16,1,トマ　ホレト　ピポ,,,CartoonStims/chef_point_doctor_r.jpg,audio/tomahoretopipo.mp3,,,,,,,,,,,,,,,,,,,,,,,,,,,,,,,,,,,,,,,,,,,,,,,,,,,,,,,,,,,,,,,,,,,,,
,,,,,,,,,R_1jOkqhkzWX4GFfj,2022-09-01_19h37.13.165,jpn_C02,2022.1.2,Win32,59.87306909,,,space,3.6996,0,15,15,0,1,セル　シド　ルピン,,,CartoonStims/artist_kick_burglar_r.jpg,audio/serusidolupin.mp3,,,,,,,,,,,,,,,,,,,,,,,,,,,,,,,,,,,,,,,,,,,,,,,,,,,,,,,,,,,,,,,,,,,,,
,,,,,,,,,R_1jOkqhkzWX4GFfj,2022-09-01_19h37.13.165,jpn_C02,2022.1.2,Win32,59.87306909,,,space,2.3216,0,16,16,14,1,トマ　ルピン　ムク,,,CartoonStims/burglar_point_cowboy_r.jpg,audio/tomalupinmuku.mp3,,,,,,,,,,,,,,,,,,,,,,,,,,,,,,,,,,,,,,,,,,,,,,,,,,,,,,,,,,,,,,,,,,,,,
,,,,,,,,,R_1jOkqhkzWX4GFfj,2022-09-01_19h37.13.165,jpn_C02,2022.1.2,Win32,59.87306909,,,space,18.2498,0,17,17,33,1,パツ　ピポ　ホレト,,,CartoonStims/doctor_shoot_chef_r.jpg,audio/patsupipohoreto.mp3,,,,,,,,,,,,,,,,,,,,,,,,,,,,,,,,,,,,,,,,,,,,,,,,,,,,,,,,,,,,,,,,,,,,,
,,,,,,,,,R_1jOkqhkzWX4GFfj,2022-09-01_19h37.13.165,jpn_C02,2022.1.2,Win32,59.87306909,,,space,3.8878,0,18,18,26,1,パツ　ルピン　ピポ,,,CartoonStims/burglar_shoot_doctor_r.jpg,audio/patsulupinpipo.mp3,,,,,,,,,,,,,,,,,,,,,,,,,,,,,,,,,,,,,,,,,,,,,,,,,,,,,,,,,,,,,,,,,,,,,
,,,,,,,,,R_1jOkqhkzWX4GFfj,2022-09-01_19h37.13.165,jpn_C02,2022.1.2,Win32,59.87306909,,,space,5.1852,0,19,19,2,1,セル 　ルピン 　ホレト,,,CartoonStims/burglar_kick_chef_r.jpg,audio/serulupinhoreto.mp3,,,,,,,,,,,,,,,,,,,,,,,,,,,,,,,,,,,,,,,,,,,,,,,,,,,,,,,,,,,,,,,,,,,,,
,,,,,,,,,R_1jOkqhkzWX4GFfj,2022-09-01_19h37.13.165,jpn_C02,2022.1.2,Win32,59.87306909,,,space,4.4493,0,20,20,38,1,プミ　ルピン　ドキ,,,CartoonStims/burglar_punch_boxer_r.jpg,audio/pumilupindoki.mp3,,,,,,,,,,,,,,,,,,,,,,,,,,,,,,,,,,,,,,,,,,,,,,,,,,,,,,,,,,,,,,,,,,,,,
,,,,,,,,,R_1jOkqhkzWX4GFfj,2022-09-01_19h37.13.165,jpn_C02,2022.1.2,Win32,59.87306909,,,space,12.8857,0,21,21,7,1,セル　ムク　ドキ,,,CartoonStims/cowboy_kick_boxer_r.jpg,audio/serumukudoki.mp3,,,,,,,,,,,,,,,,,,,,,,,,,,,,,,,,,,,,,,,,,,,,,,,,,,,,,,,,,,,,,,,,,,,,,
,,,,,,,,,R_1jOkqhkzWX4GFfj,2022-09-01_19h37.13.165,jpn_C02,2022.1.2,Win32,59.87306909,,,space,7.2139,0,22,22,20,1,トマ　ピポ　シド,,,CartoonStims/doctor_point_artist_r.jpg,audio/tomapiposido.mp3,,,,,,,,,,,,,,,,,,,,,,,,,,,,,,,,,,,,,,,,,,,,,,,,,,,,,,,,,,,,,,,,,,,,,
,,,,,,,,,R_1jOkqhkzWX4GFfj,2022-09-01_19h37.13.165,jpn_C02,2022.1.2,Win32,59.87306909,,,space,2.6996,0,23,23,12,1,トマ　シド　ホレト,,,CartoonStims/artist_point_chef_r.jpg,audio/tomasidohoreto.mp3,,,,,,,,,,,,,,,,,,,,,,,,,,,,,,,,,,,,,,,,,,,,,,,,,,,,,,,,,,,,,,,,,,,,,
,,,,,,,,,R_1jOkqhkzWX4GFfj,2022-09-01_19h37.13.165,jpn_C02,2022.1.2,Win32,59.87306909,,,space,4.9335,0,24,24,29,1,パツ　ホレト　シド,,,CartoonStims/chef_shoot_artist_r.jpg,audio/patsuhoretosido.mp3,,,,,,,,,,,,,,,,,,,,,,,,,,,,,,,,,,,,,,,,,,,,,,,,,,,,,,,,,,,,,,,,,,,,,
,,,,,,,,,R_1jOkqhkzWX4GFfj,2022-09-01_19h37.13.165,jpn_C02,2022.1.2,Win32,59.87306909,,,space,7.4978,0,25,25,39,1,プミ　ルピン　シド,,,CartoonStims/burglar_punch_artist_r.jpg,audio/pumilupinsido.mp3,,,,,,,,,,,,,,,,,,,,,,,,,,,,,,,,,,,,,,,,,,,,,,,,,,,,,,,,,,,,,,,,,,,,,
,,,,,,,,,R_1jOkqhkzWX4GFfj,2022-09-01_19h37.13.165,jpn_C02,2022.1.2,Win32,59.87306909,,,space,9.6661,0,26,26,1,1,セル 　シド 　ホレト,,,CartoonStims/artist_kick_chef_r.jpg,audio/serusidohoreto.mp3,,,,,,,,,,,,,,,,,,,,,,,,,,,,,,,,,,,,,,,,,,,,,,,,,,,,,,,,,,,,,,,,,,,,,
,,,,,,,,,R_1jOkqhkzWX4GFfj,2022-09-01_19h37.13.165,jpn_C02,2022.1.2,Win32,59.87306909,,,space,7.381,0,27,27,34,1,パツ　ドキ　ホレト,,,CartoonStims/boxer_shoot_chef_r.jpg,audio/patsudokihoreto.mp3,,,,,,,,,,,,,,,,,,,,,,,,,,,,,,,,,,,,,,,,,,,,,,,,,,,,,,,,,,,,,,,,,,,,,
,,,,,,,,,R_1jOkqhkzWX4GFfj,2022-09-01_19h37.13.165,jpn_C02,2022.1.2,Win32,59.87306909,,,space,18.0516,0,28,28,47,1,プミ　ドキ　ピポ,,,CartoonStims/boxer_punch_doctor_r.jpg,audio/pumidokipipo.mp3,,,,,,,,,,,,,,,,,,,,,,,,,,,,,,,,,,,,,,,,,,,,,,,,,,,,,,,,,,,,,,,,,,,,,
,,,,,,,,,R_1jOkqhkzWX4GFfj,2022-09-01_19h37.13.165,jpn_C02,2022.1.2,Win32,59.87306909,,,space,3.0538,0,29,29,9,1,セル　ピポ　シド,,,CartoonStims/doctor_kick_artist_r.jpg,audio/serupiposido.mp3,,,,,,,,,,,,,,,,,,,,,,,,,,,,,,,,,,,,,,,,,,,,,,,,,,,,,,,,,,,,,,,,,,,,,
,,,,,,,,,R_1jOkqhkzWX4GFfj,2022-09-01_19h37.13.165,jpn_C02,2022.1.2,Win32,59.87306909,,,space,17.3977,0,30,30,15,1,トマ　ルピン　ピポ,,,CartoonStims/burglar_point_doctor_r.jpg,audio/tomalupinpipo.mp3,,,,,,,,,,,,,,,,,,,,,,,,,,,,,,,,,,,,,,,,,,,,,,,,,,,,,,,,,,,,,,,,,,,,,
,,,,,,,,,R_1jOkqhkzWX4GFfj,2022-09-01_19h37.13.165,jpn_C02,2022.1.2,Win32,59.87306909,,,space,2.0895,0,31,31,19,1,トマ　ムク　シド,,,CartoonStims/cowboy_point_artist_r.jpg,audio/tomamukusido.mp3,,,,,,,,,,,,,,,,,,,,,,,,,,,,,,,,,,,,,,,,,,,,,,,,,,,,,,,,,,,,,,,,,,,,,
,,,,,,,,,R_1jOkqhkzWX4GFfj,2022-09-01_19h37.13.165,jpn_C02,2022.1.2,Win32,59.87306909,,,space,12.2876,0,32,32,46,1,プミ　ドキ　ムク,,,CartoonStims/boxer_punch_cowboy_r.jpg,audio/pumidokimuku.mp3,,,,,,,,,,,,,,,,,,,,,,,,,,,,,,,,,,,,,,,,,,,,,,,,,,,,,,,,,,,,,,,,,,,,,
,,,,,,,,,R_1jOkqhkzWX4GFfj,2022-09-01_19h37.13.165,jpn_C02,2022.1.2,Win32,59.87306909,,,space,5.8847,0,33,33,31,1,パツ　ムク　ルピン,,,CartoonStims/cowboy_shoot_burglar_r.jpg,audio/patsumukulupin.mp3,,,,,,,,,,,,,,,,,,,,,,,,,,,,,,,,,,,,,,,,,,,,,,,,,,,,,,,,,,,,,,,,,,,,,
,,,,,,,,,R_1jOkqhkzWX4GFfj,2022-09-01_19h37.13.165,jpn_C02,2022.1.2,Win32,59.87306909,,,space,2.5999,0,34,34,32,1,パツ　ピポ　ルピン,,,CartoonStims/doctor_shoot_burglar_r.jpg,audio/patsupipolupin.mp3,,,,,,,,,,,,,,,,,,,,,,,,,,,,,,,,,,,,,,,,,,,,,,,,,,,,,,,,,,,,,,,,,,,,,
,,,,,,,,,R_1jOkqhkzWX4GFfj,2022-09-01_19h37.13.165,jpn_C02,2022.1.2,Win32,59.87306909,,,space,5.1154,0,35,35,8,1,セル　ピポ　ドキ,,,CartoonStims/doctor_kick_boxer_r.jpg,audio/serupipodoki.mp3,,,,,,,,,,,,,,,,,,,,,,,,,,,,,,,,,,,,,,,,,,,,,,,,,,,,,,,,,,,,,,,,,,,,,
,,,,,,,,,R_1jOkqhkzWX4GFfj,2022-09-01_19h37.13.165,jpn_C02,2022.1.2,Win32,59.87306909,,,space,4.6833,0,36,36,21,1,トマ　ピポ　ルピン,,,CartoonStims/doctor_point_burglar_r.jpg,audio/tomapipolupin.mp3,,,,,,,,,,,,,,,,,,,,,,,,,,,,,,,,,,,,,,,,,,,,,,,,,,,,,,,,,,,,,,,,,,,,,
,,,,,,,,,R_1jOkqhkzWX4GFfj,2022-09-01_19h37.13.165,jpn_C02,2022.1.2,Win32,59.87306909,,,space,4.0096,0,37,37,27,1,パツ　ルピン　ドキ,,,CartoonStims/burglar_shoot_boxer_r.jpg,audio/patsulupindoki.mp3,,,,,,,,,,,,,,,,,,,,,,,,,,,,,,,,,,,,,,,,,,,,,,,,,,,,,,,,,,,,,,,,,,,,,
,,,,,,,,,R_1jOkqhkzWX4GFfj,2022-09-01_19h37.13.165,jpn_C02,2022.1.2,Win32,59.87306909,,,space,14.1948,0,38,38,13,1,トマ　シド　ムク,,,CartoonStims/artist_point_cowboy_r.jpg,audio/tomasidomuku.mp3,,,,,,,,,,,,,,,,,,,,,,,,,,,,,,,,,,,,,,,,,,,,,,,,,,,,,,,,,,,,,,,,,,,,,
,,,,,,,,,R_1jOkqhkzWX4GFfj,2022-09-01_19h37.13.165,jpn_C02,2022.1.2,Win32,59.87306909,,,space,10.3795,0,39,39,45,1,プミ　ピポ　ムク,,,CartoonStims/doctor_punch_cowboy_r.jpg,audio/pumipipomuku.mp3,,,,,,,,,,,,,,,,,,,,,,,,,,,,,,,,,,,,,,,,,,,,,,,,,,,,,,,,,,,,,,,,,,,,,
,,,,,,,,,R_1jOkqhkzWX4GFfj,2022-09-01_19h37.13.165,jpn_C02,2022.1.2,Win32,59.87306909,,,space,6.6148,0,40,40,44,1,プミ　ピポ　ホレト,,,CartoonStims/doctor_punch_chef_r.jpg,audio/pumipipohoreto.mp3,,,,,,,,,,,,,,,,,,,,,,,,,,,,,,,,,,,,,,,,,,,,,,,,,,,,,,,,,,,,,,,,,,,,,
,,,,,,,,,R_1jOkqhkzWX4GFfj,2022-09-01_19h37.13.165,jpn_C02,2022.1.2,Win32,59.87306909,,,space,3.9026,0,41,41,41,1,プミ　ホレト　ルピン,,,CartoonStims/chef_punch_burglar_r.jpg,audio/pumihoretolupin.mp3,,,,,,,,,,,,,,,,,,,,,,,,,,,,,,,,,,,,,,,,,,,,,,,,,,,,,,,,,,,,,,,,,,,,,
,,,,,,,,,R_1jOkqhkzWX4GFfj,2022-09-01_19h37.13.165,jpn_C02,2022.1.2,Win32,59.87306909,,,space,4.6319,0,42,42,6,1,セル　ムク　ピポ,,,CartoonStims/cowboy_kick_doctor_r.jpg,audio/serumukupipo.mp3,,,,,,,,,,,,,,,,,,,,,,,,,,,,,,,,,,,,,,,,,,,,,,,,,,,,,,,,,,,,,,,,,,,,,
,,,,,,,,,R_1jOkqhkzWX4GFfj,2022-09-01_19h37.13.165,jpn_C02,2022.1.2,Win32,59.87306909,,,space,3.9207,0,43,43,28,1,パツ　ホレト　ドキ,,,CartoonStims/chef_shoot_boxer_r.jpg,audio/patsuhoretodoki.mp3,,,,,,,,,,,,,,,,,,,,,,,,,,,,,,,,,,,,,,,,,,,,,,,,,,,,,,,,,,,,,,,,,,,,,
,,,,,,,,,R_1jOkqhkzWX4GFfj,2022-09-01_19h37.13.165,jpn_C02,2022.1.2,Win32,59.87306909,,,space,5.765,0,44,44,30,1,パツ　ムク　シド,,,CartoonStims/cowboy_shoot_artist_r.jpg,audio/patsumukusido.mp3,,,,,,,,,,,,,,,,,,,,,,,,,,,,,,,,,,,,,,,,,,,,,,,,,,,,,,,,,,,,,,,,,,,,,
,,,,,,,,,R_1jOkqhkzWX4GFfj,2022-09-01_19h37.13.165,jpn_C02,2022.1.2,Win32,59.87306909,,,space,6.3647,0,45,45,36,1,プミ　シド　ピポ,,,CartoonStims/artist_punch_doctor_r.jpg,audio/pumisidopipo.mp3,,,,,,,,,,,,,,,,,,,,,,,,,,,,,,,,,,,,,,,,,,,,,,,,,,,,,,,,,,,,,,,,,,,,,
,,,,,,,,,R_1jOkqhkzWX4GFfj,2022-09-01_19h37.13.165,jpn_C02,2022.1.2,Win32,59.87306909,,,space,6.8321,0,46,46,43,1,プミ　ムク　ホレト,,,CartoonStims/cowboy_punch_chef_r.jpg,audio/pumimukuhoreto.mp3,,,,,,,,,,,,,,,,,,,,,,,,,,,,,,,,,,,,,,,,,,,,,,,,,,,,,,,,,,,,,,,,,,,,,
,,,,,,,,,R_1jOkqhkzWX4GFfj,2022-09-01_19h37.13.165,jpn_C02,2022.1.2,Win32,59.87306909,,,space,6.3651,0,47,47,37,1,プミ　シド　ドキ,,,CartoonStims/artist_punch_boxer_r.jpg,audio/pumisidodoki.mp3,,,,,,,,,,,,,,,,,,,,,,,,,,,,,,,,,,,,,,,,,,,,,,,,,,,,,,,,,,,,,,,,,,,,,
,,,,,,,,,R_1jOkqhkzWX4GFfj,2022-09-01_19h37.13.165,jpn_C02,2022.1.2,Win32,59.87306909,,,,,,,,,,,,,,,space,1.4156,left,1,6.1526,0,0,0,0,1,,,,,,,,,,,,,,,,,,,,,,,,,,,,,,,,,,,,,,,,,,,,,,,,,,,,,,,,,,,
,,,,,,,,,R_1jOkqhkzWX4GFfj,2022-09-01_19h37.13.165,jpn_C02,2022.1.2,Win32,59.87306909,,,,,,,,,,,,,,,,,,,,,,,,,0,0,0,8,1,CartoonStims/doctor_point_cowboy_r.jpg,トマ　ピポ　ムク,CartoonStims/boxer_point_cowboy_r.jpg,left,CartoonStims/doctor_point_cowboy_r.jpg,audio/tomapipomuku.mp3,残念！ こちらが正しい画像です。,,,,,,,,,,,,,,,,,,,,,,,,,,,,,,,,,,,,,,,,,,,,,,,
,,,,,,,,,R_1jOkqhkzWX4GFfj,2022-09-01_19h37.13.165,jpn_C02,2022.1.2,Win32,59.87306909,,,,,,,,,,,,,,,,,right,1,2.1188,,,,,,,,,,,,,,,,,,0,0,0,0,1,,,,,,,,,,,,,,,,,,,,,,,,,,,,,,,,,,,,,,,,,,
,,,,,,,,,R_1jOkqhkzWX4GFfj,2022-09-01_19h37.13.165,jpn_C02,2022.1.2,Win32,59.87306909,,,,,,,,,,,,,,,,,,,,,,,,,0,1,1,7,1,CartoonStims/artist_punch_cowboy_r.jpg,セル　シド　ムク,CartoonStims/artist_kick_cowboy_r.jpg,right,CartoonStims/artist_kick_cowboy_r.jpg,audio/serusidomuku.mp3,残念！ こちらが正しい画像です。,,,,,,,,,,,,,,,,,,,,,,,,,,,,,,,,,,,,,,,,,,,,,,,
,,,,,,,,,R_1jOkqhkzWX4GFfj,2022-09-01_19h37.13.165,jpn_C02,2022.1.2,Win32,59.87306909,,,,,,,,,,,,,,,,,right,1,5.5992,,,,,,,,,,,,,,,,,,0,0,0,0,1,,,,,,,,,,,,,,,,,,,,,,,,,,,,,,,,,,,,,,,,,,
,,,,,,,,,R_1jOkqhkzWX4GFfj,2022-09-01_19h37.13.165,jpn_C02,2022.1.2,Win32,59.87306909,,,,,,,,,,,,,,,,,,,,,,,,,0,2,2,9,1,CartoonStims/chef_kick_artist_r.jpg,セル　ムク　シド,CartoonStims/cowboy_kick_artist_r.jpg,right,CartoonStims/cowboy_kick_artist_r.jpg,audio/serumukusido.mp3,残念！ こちらが正しい画像です。,,,,,,,,,,,,,,,,,,,,,,,,,,,,,,,,,,,,,,,,,,,,,,,
,,,,,,,,,R_1jOkqhkzWX4GFfj,2022-09-01_19h37.13.165,jpn_C02,2022.1.2,Win32,59.87306909,,,,,,,,,,,,,,,,,right,1,9.7627,,,,,,,,,,,,,,,,,,0,0,0,0,1,,,,,,,,,,,,,,,,,,,,,,,,,,,,,,,,,,,,,,,,,,
,,,,,,,,,R_1jOkqhkzWX4GFfj,2022-09-01_19h37.13.165,jpn_C02,2022.1.2,Win32,59.87306909,,,,,,,,,,,,,,,,,,,,,,,,,0,3,3,1,1,CartoonStims/chef_point_burglar_r.jpg,トマ　ホレト　シド,CartoonStims/chef_point_artist_r.jpg,right,CartoonStims/chef_point_artist_r.jpg,audio/tomahoretosido.mp3,残念！ こちらが正しい画像です。,,,,,,,,,,,,,,,,,,,,,,,,,,,,,,,,,,,,,,,,,,,,,,,
,,,,,,,,,R_1jOkqhkzWX4GFfj,2022-09-01_19h37.13.165,jpn_C02,2022.1.2,Win32,59.87306909,,,,,,,,,,,,,,,,,right,1,5.5308,,,,,,,,,,,,,,,,,,0,0,0,0,1,,,,,,,,,,,,,,,,,,,,,,,,,,,,,,,,,,,,,,,,,,
,,,,,,,,,R_1jOkqhkzWX4GFfj,2022-09-01_19h37.13.165,jpn_C02,2022.1.2,Win32,59.87306909,,,,,,,,,,,,,,,,,,,,,,,,,0,4,4,3,1,CartoonStims/cowboy_punch_doctor_r.jpg,プミ　ムク　ドキ,CartoonStims/cowboy_punch_boxer_r.jpg,right,CartoonStims/cowboy_punch_boxer_r.jpg,audio/pumimukudoki.mp3,残念！ こちらが正しい画像です。,,,,,,,,,,,,,,,,,,,,,,,,,,,,,,,,,,,,,,,,,,,,,,,
,,,,,,,,,R_1jOkqhkzWX4GFfj,2022-09-01_19h37.13.165,jpn_C02,2022.1.2,Win32,59.87306909,,,,,,,,,,,,,,,,,right,1,3.9679,,,,,,,,,,,,,,,,,,0,0,0,0,1,,,,,,,,,,,,,,,,,,,,,,,,,,,,,,,,,,,,,,,,,,
,,,,,,,,,R_1jOkqhkzWX4GFfj,2022-09-01_19h37.13.165,jpn_C02,2022.1.2,Win32,59.87306909,,,,,,,,,,,,,,,,,,,,,,,,,0,5,5,11,1,CartoonStims/burglar_punch_cowboy_r.jpg,プミ　ホレト　ムク,CartoonStims/chef_punch_cowboy_r.jpg,right,CartoonStims/chef_punch_cowboy_r.jpg,audio/pumihoretomuku.mp3,残念！ こちらが正しい画像です。,,,,,,,,,,,,,,,,,,,,,,,,,,,,,,,,,,,,,,,,,,,,,,,
,,,,,,,,,R_1jOkqhkzWX4GFfj,2022-09-01_19h37.13.165,jpn_C02,2022.1.2,Win32,59.87306909,,,,,,,,,,,,,,,,,right,1,1.7539,,,,,,,,,,,,,,,,,,0,0,0,0,1,,,,,,,,,,,,,,,,,,,,,,,,,,,,,,,,,,,,,,,,,,
,,,,,,,,,R_1jOkqhkzWX4GFfj,2022-09-01_19h37.13.165,jpn_C02,2022.1.2,Win32,59.87306909,,,,,,,,,,,,,,,,,,,,,,,,,0,6,6,5,1,CartoonStims/cowboy_point_chef_r.jpg,パツ　ムク　ホレト,CartoonStims/cowboy_shoot_chef_r.jpg,right,CartoonStims/cowboy_shoot_chef_r.jpg,audio/patsumukuhoreto.mp3,残念！ こちらが正しい画像です。,,,,,,,,,,,,,,,,,,,,,,,,,,,,,,,,,,,,,,,,,,,,,,,
,,,,,,,,,R_1jOkqhkzWX4GFfj,2022-09-01_19h37.13.165,jpn_C02,2022.1.2,Win32,59.87306909,,,,,,,,,,,,,,,,,left,1,1.8035,0,0,0,0,1,,,,,,,,,,,,,,,,,,,,,,,,,,,,,,,,,,,,,,,,,,,,,,,,,,,,,,,,,,,
,,,,,,,,,R_1jOkqhkzWX4GFfj,2022-09-01_19h37.13.165,jpn_C02,2022.1.2,Win32,59.87306909,,,,,,,,,,,,,,,,,,,,,,,,,0,7,7,0,1,CartoonStims/doctor_kick_burglar_r.jpg,セル　ピポ　ルピン,CartoonStims/doctor_kick_chef_r.jpg,left,CartoonStims/doctor_kick_burglar_r.jpg,audio/serupipolupin.mp3,残念！ こちらが正しい画像です。,,,,,,,,,,,,,,,,,,,,,,,,,,,,,,,,,,,,,,,,,,,,,,,
,,,,,,,,,R_1jOkqhkzWX4GFfj,2022-09-01_19h37.13.165,jpn_C02,2022.1.2,Win32,59.87306909,,,,,,,,,,,,,,,,,left,1,2.8248,0,0,0,0,1,,,,,,,,,,,,,,,,,,,,,,,,,,,,,,,,,,,,,,,,,,,,,,,,,,,,,,,,,,,
,,,,,,,,,R_1jOkqhkzWX4GFfj,2022-09-01_19h37.13.165,jpn_C02,2022.1.2,Win32,59.87306909,,,,,,,,,,,,,,,,,,,,,,,,,0,8,8,10,1,CartoonStims/artist_shoot_burglar_r.jpg,パツ　シド　ルピン,CartoonStims/chef_shoot_burglar_r.jpg,left,CartoonStims/artist_shoot_burglar_r.jpg,audio/patsusidolupin.mp3,残念！ こちらが正しい画像です。,,,,,,,,,,,,,,,,,,,,,,,,,,,,,,,,,,,,,,,,,,,,,,,
,,,,,,,,,R_1jOkqhkzWX4GFfj,2022-09-01_19h37.13.165,jpn_C02,2022.1.2,Win32,59.87306909,,,,,,,,,,,,,,,,,left,1,2.4716,0,0,0,0,1,,,,,,,,,,,,,,,,,,,,,,,,,,,,,,,,,,,,,,,,,,,,,,,,,,,,,,,,,,,
,,,,,,,,,R_1jOkqhkzWX4GFfj,2022-09-01_19h37.13.165,jpn_C02,2022.1.2,Win32,59.87306909,,,,,,,,,,,,,,,,,,,,,,,,,0,9,9,2,1,CartoonStims/boxer_shoot_doctor_r.jpg,パツ　ドキ　ピポ,CartoonStims/boxer_shoot_artist_r.jpg,left,CartoonStims/boxer_shoot_doctor_r.jpg,audio/patsudokipipo.mp3,残念！ こちらが正しい画像です。,,,,,,,,,,,,,,,,,,,,,,,,,,,,,,,,,,,,,,,,,,,,,,,
,,,,,,,,,R_1jOkqhkzWX4GFfj,2022-09-01_19h37.13.165,jpn_C02,2022.1.2,Win32,59.87306909,,,,,,,,,,,,,,,,,left,1,4.0893,0,0,0,0,1,,,,,,,,,,,,,,,,,,,,,,,,,,,,,,,,,,,,,,,,,,,,,,,,,,,,,,,,,,,
,,,,,,,,,R_1jOkqhkzWX4GFfj,2022-09-01_19h37.13.165,jpn_C02,2022.1.2,Win32,59.87306909,,,,,,,,,,,,,,,,,,,,,,,,,0,10,10,4,1,CartoonStims/burglar_point_boxer_r.jpg,トマ　ルピン　ドキ,CartoonStims/burglar_kick_boxer_r.jpg,left,CartoonStims/burglar_point_boxer_r.jpg,audio/tomalupindoki.mp3,残念！ こちらが正しい画像です。,,,,,,,,,,,,,,,,,,,,,,,,,,,,,,,,,,,,,,,,,,,,,,,
,,,,,,,,,R_1jOkqhkzWX4GFfj,2022-09-01_19h37.13.165,jpn_C02,2022.1.2,Win32,59.87306909,,,,,,,,,,,,,,,,,left,1,2.7287,0,0,0,0,1,,,,,,,,,,,,,,,,,,,,,,,,,,,,,,,,,,,,,,,,,,,,,,,,,,,,,,,,,,,
,,,,,,,,,R_1jOkqhkzWX4GFfj,2022-09-01_19h37.13.165,jpn_C02,2022.1.2,Win32,59.87306909,,,,,,,,,,,,,,,,,,,,,,,,,0,11,11,6,1,CartoonStims/doctor_punch_boxer_r.jpg,プミ　ピポ　ドキ,CartoonStims/doctor_shoot_boxer_r.jpg,left,CartoonStims/doctor_punch_boxer_r.jpg,audio/pumipipodoki.mp3,残念！ こちらが正しい画像です。,,,,,,,,,,,,,,,,,,,,,,,,,,,,,,,,,,,,,,,,,,,,,,,
,,,,,,,,,R_1jOkqhkzWX4GFfj,2022-09-01_19h37.13.165,jpn_C02,2022.1.2,Win32,59.87306909,,,,,,,,,,,,,,,,,,,,,,,,,,,,,,,,,,,,,,,,,,space,3.649,トマ　ルピン　シド,right,25.3288,0,0,0,0,1,,,,,,,,,,,,,,,,,,,,,,,,,,,,,,,,
,,,,,,,,,R_1jOkqhkzWX4GFfj,2022-09-01_19h37.13.165,jpn_C02,2022.1.2,Win32,59.87306909,,,,,,,,,,,,,CartoonStims/burglar_point_artist_r.jpg,audio/tomalupinsido.mp3,,,,,,,,,,,,,,,,,,,,,,,,,,,,,,,,,,,,,,0,0,0,4,1,トマ　ルピン　シド,,,,,,,,,,,,,,,,,,,,,,,,,,
,,,,,,,,,R_1jOkqhkzWX4GFfj,2022-09-01_19h37.13.165,jpn_C02,2022.1.2,Win32,59.87306909,,,,,,,,,,,,,,,,,,,,,,,,,,,,,,,,,,,,,,,,,,,,セル　ピポ　ホレト,right,10.8019,0,0,0,0,1,,,,,,,,,,,,,,,,,,,,,,,,,,,,,,,,
,,,,,,,,,R_1jOkqhkzWX4GFfj,2022-09-01_19h37.13.165,jpn_C02,2022.1.2,Win32,59.87306909,,,,,,,,,,,,,CartoonStims/doctor_kick_chef_r.jpg,audio/serupipohoreto.mp3,,,,,,,,,,,,,,,,,,,,,,,,,,,,,,,,,,,,,,0,1,1,1,1,セル　ピポ　ホレト,,,,,,,,,,,,,,,,,,,,,,,,,,
,,,,,,,,,R_1jOkqhkzWX4GFfj,2022-09-01_19h37.13.165,jpn_C02,2022.1.2,Win32,59.87306909,,,,,,,,,,,,,,,,,,,,,,,,,,,,,,,,,,,,,,,,,,,,セル　ムク　ルピン,right,14.804,0,0,0,0,1,,,,,,,,,,,,,,,,,,,,,,,,,,,,,,,,
,,,,,,,,,R_1jOkqhkzWX4GFfj,2022-09-01_19h37.13.165,jpn_C02,2022.1.2,Win32,59.87306909,,,,,,,,,,,,,CartoonStims/cowboy_kick_burglar_r.jpg,audio/serumukulupin.mp3,,,,,,,,,,,,,,,,,,,,,,,,,,,,,,,,,,,,,,0,2,2,0,1,セル　ムク　ルピン,,,,,,,,,,,,,,,,,,,,,,,,,,
,,,,,,,,,R_1jOkqhkzWX4GFfj,2022-09-01_19h37.13.165,jpn_C02,2022.1.2,Win32,59.87306909,,,,,,,,,,,,,,,,,,,,,,,,,,,,,,,,,,,,,,,,,,,,パツ　ルピン　ホレト,right,17.9771,0,0,0,0,1,,,,,,,,,,,,,,,,,,,,,,,,,,,,,,,,
,,,,,,,,,R_1jOkqhkzWX4GFfj,2022-09-01_19h37.13.165,jpn_C02,2022.1.2,Win32,59.87306909,,,,,,,,,,,,,CartoonStims/burglar_shoot_chef_r.jpg,audio/patsulupinhoreto.mp3,,,,,,,,,,,,,,,,,,,,,,,,,,,,,,,,,,,,,,0,3,3,6,1,パツ　ルピン　ホレト,,,,,,,,,,,,,,,,,,,,,,,,,,
,,,,,,,,,R_1jOkqhkzWX4GFfj,2022-09-01_19h37.13.165,jpn_C02,2022.1.2,Win32,59.87306909,,,,,,,,,,,,,,,,,,,,,,,,,,,,,,,,,,,,,,,,,,,,トマ　ホレト　ルピン,right,12.5816,0,0,0,0,1,,,,,,,,,,,,,,,,,,,,,,,,,,,,,,,,
,,,,,,,,,R_1jOkqhkzWX4GFfj,2022-09-01_19h37.13.165,jpn_C02,2022.1.2,Win32,59.87306909,,,,,,,,,,,,,CartoonStims/chef_point_burglar_r.jpg,audio/tomahoretolupin.mp3,,,,,,,,,,,,,,,,,,,,,,,,,,,,,,,,,,,,,,0,4,4,5,1,トマ　ホレト　ルピン,,,,,,,,,,,,,,,,,,,,,,,,,,
,,,,,,,,,R_1jOkqhkzWX4GFfj,2022-09-01_19h37.13.165,jpn_C02,2022.1.2,Win32,59.87306909,,,,,,,,,,,,,,,,,,,,,,,,,,,,,,,,,,,,,,,,,,,,パツ　ホレト　ムク,right,8.0712,0,0,0,0,1,,,,,,,,,,,,,,,,,,,,,,,,,,,,,,,,
,,,,,,,,,R_1jOkqhkzWX4GFfj,2022-09-01_19h37.13.165,jpn_C02,2022.1.2,Win32,59.87306909,,,,,,,,,,,,,CartoonStims/chef_shoot_cowboy_r.jpg,audio/patsuhoretomuku.mp3,,,,,,,,,,,,,,,,,,,,,,,,,,,,,,,,,,,,,,0,5,5,7,1,パツ　ホレト　ムク,,,,,,,,,,,,,,,,,,,,,,,,,,
,,,,,,,,,R_1jOkqhkzWX4GFfj,2022-09-01_19h37.13.165,jpn_C02,2022.1.2,Win32,59.87306909,,,,,,,,,,,,,,,,,,,,,,,,,,,,,,,,,,,,,,,,,,,,プミ　シド　ルピン,right,17.071,0,0,0,0,1,,,,,,,,,,,,,,,,,,,,,,,,,,,,,,,,
,,,,,,,,,R_1jOkqhkzWX4GFfj,2022-09-01_19h37.13.165,jpn_C02,2022.1.2,Win32,59.87306909,,,,,,,,,,,,,CartoonStims/artist_punch_burglar_r.jpg,audio/pumisidolupin.mp3,,,,,,,,,,,,,,,,,,,,,,,,,,,,,,,,,,,,,,0,6,6,9,1,プミ　シド　ルピン,,,,,,,,,,,,,,,,,,,,,,,,,,
,,,,,,,,,R_1jOkqhkzWX4GFfj,2022-09-01_19h37.13.165,jpn_C02,2022.1.2,Win32,59.87306909,,,,,,,,,,,,,,,,,,,,,,,,,,,,,,,,,,,,,,,,,,,,トマ　シド　ドキ,right,6.7761,0,0,0,0,1,,,,,,,,,,,,,,,,,,,,,,,,,,,,,,,,
,,,,,,,,,R_1jOkqhkzWX4GFfj,2022-09-01_19h37.13.165,jpn_C02,2022.1.2,Win32,59.87306909,,,,,,,,,,,,,CartoonStims/artist_point_boxer_r.jpg,audio/tomasidodoki.mp3,,,,,,,,,,,,,,,,,,,,,,,,,,,,,,,,,,,,,,0,7,7,3,1,トマ　シド　ドキ,,,,,,,,,,,,,,,,,,,,,,,,,,
,,,,,,,,,R_1jOkqhkzWX4GFfj,2022-09-01_19h37.13.165,jpn_C02,2022.1.2,Win32,59.87306909,,,,,,,,,,,,,,,,,,,,,,,,,,,,,,,,,,,,,,,,,,,,パツ　ムク　ピポ,right,7.4447,0,0,0,0,1,,,,,,,,,,,,,,,,,,,,,,,,,,,,,,,,
,,,,,,,,,R_1jOkqhkzWX4GFfj,2022-09-01_19h37.13.165,jpn_C02,2022.1.2,Win32,59.87306909,,,,,,,,,,,,,CartoonStims/cowboy_shoot_doctor_r.jpg,audio/patsumukupipo.mp3,,,,,,,,,,,,,,,,,,,,,,,,,,,,,,,,,,,,,,0,8,8,8,1,パツ　ムク　ピポ,,,,,,,,,,,,,,,,,,,,,,,,,,
,,,,,,,,,R_1jOkqhkzWX4GFfj,2022-09-01_19h37.13.165,jpn_C02,2022.1.2,Win32,59.87306909,,,,,,,,,,,,,,,,,,,,,,,,,,,,,,,,,,,,,,,,,,,,プミ　ピポ　ドキ,right,8.9382,0,0,0,0,1,,,,,,,,,,,,,,,,,,,,,,,,,,,,,,,,
,,,,,,,,,R_1jOkqhkzWX4GFfj,2022-09-01_19h37.13.165,jpn_C02,2022.1.2,Win32,59.87306909,,,,,,,,,,,,,CartoonStims/doctor_punch_boxer_r.jpg,audio/pumipipodoki.mp3,,,,,,,,,,,,,,,,,,,,,,,,,,,,,,,,,,,,,,0,9,9,10,1,プミ　ピポ　ドキ,,,,,,,,,,,,,,,,,,,,,,,,,,
,,,,,,,,,R_1jOkqhkzWX4GFfj,2022-09-01_19h37.13.165,jpn_C02,2022.1.2,Win32,59.87306909,,,,,,,,,,,,,,,,,,,,,,,,,,,,,,,,,,,,,,,,,,,,プミ　ドキ　シド,right,6.5719,0,0,0,0,1,,,,,,,,,,,,,,,,,,,,,,,,,,,,,,,,
,,,,,,,,,R_1jOkqhkzWX4GFfj,2022-09-01_19h37.13.165,jpn_C02,2022.1.2,Win32,59.87306909,,,,,,,,,,,,,CartoonStims/boxer_punch_artist_r.jpg,audio/pumidokisido.mp3,,,,,,,,,,,,,,,,,,,,,,,,,,,,,,,,,,,,,,0,10,10,11,1,プミ　ドキ　シド,,,,,,,,,,,,,,,,,,,,,,,,,,
,,,,,,,,,R_1jOkqhkzWX4GFfj,2022-09-01_19h37.13.165,jpn_C02,2022.1.2,Win32,59.87306909,,,,,,,,,,,,,,,,,,,,,,,,,,,,,,,,,,,,,,,,,,,,セル　ドキ　ムク,right,5.86,0,0,0,0,1,,,,,,,,,,,,,,,,,,,,,,,,,,,,,,,,
,,,,,,,,,R_1jOkqhkzWX4GFfj,2022-09-01_19h37.13.165,jpn_C02,2022.1.2,Win32,59.87306909,,,,,,,,,,,,,CartoonStims/boxer_kick_cowboy_r.jpg,audio/serudokimuku.mp3,,,,,,,,,,,,,,,,,,,,,,,,,,,,,,,,,,,,,,0,11,11,2,1,セル　ドキ　ムク,,,,,,,,,,,,,,,,,,,,,,,,,,
,,,,,,,,,R_1jOkqhkzWX4GFfj,2022-09-01_19h37.13.165,jpn_C02,2022.1.2,Win32,59.87306909,,,,,,,,,,,,,,,,,,,,,,,,,,,,,,,,,,,,,,,,,,,,,,,,,,,,,,,,,,,space,6.4217,0,1,1,1,1,AffExposure.xlsx,"第二のトライアルの学習では、この言語で書かれた文を見ていただきます。引き続き注意して、 聞こえた音を復唱してください。


スペースキーを押してください。",1,AffFCT.xlsx,ここからクイズが始まります。 スクリーンに表示されるテキストに合う画像を選んでください。,AffTest.xlsx,1,次にここまで学んだことをアウトプットしていただきます。 表示される画像を描写していると思う単語を、テキストボックスにタイプしてください。 答えを提出したあとに正しい正解が少しの間画面に写ります。,1,"これで第二のトライアルが終了しました。 ここで休憩をとっていただいても構いません。

休憩が終わりましたら、 スペースキーを押して続きの学習を行いましょう。",,,,,,,,
,,,,,,,,,R_1jOkqhkzWX4GFfj,2022-09-01_19h37.13.165,jpn_C02,2022.1.2,Win32,59.87306909,space,6.2211,space,10.0481,0,0,0,42,1,プミ　ピク　ムク　ルピン,,,CartoonStims/cowboy_punch_burglar_r_no.jpg,audio/pumipikumukulupin.mp3,,,,,,,,,,,,,,,,,,,,,,,,,,,,,,,,,,,,,,,,,,,,,,,,,,,,,,,,,,,,,,,,,,,,,
,,,,,,,,,R_1jOkqhkzWX4GFfj,2022-09-01_19h37.13.165,jpn_C02,2022.1.2,Win32,59.87306909,,,space,9.813,0,1,1,47,1,ピク　プミ　ドキ　ピポ,,,CartoonStims/boxer_punch_doctor_r_no.jpg,audio/pikupumidokipipo.mp3,,,,,,,,,,,,,,,,,,,,,,,,,,,,,,,,,,,,,,,,,,,,,,,,,,,,,,,,,,,,,,,,,,,,,
,,,,,,,,,R_1jOkqhkzWX4GFfj,2022-09-01_19h37.13.165,jpn_C02,2022.1.2,Win32,59.87306909,,,space,9.149,0,2,2,32,1,ピク　パツ　ピポ　ルピン,,,CartoonStims/doctor_shoot_burglar_r_no.jpg,audio/pikupatsupipolupin.mp3,,,,,,,,,,,,,,,,,,,,,,,,,,,,,,,,,,,,,,,,,,,,,,,,,,,,,,,,,,,,,,,,,,,,,
,,,,,,,,,R_1jOkqhkzWX4GFfj,2022-09-01_19h37.13.165,jpn_C02,2022.1.2,Win32,59.87306909,,,space,5.4982,0,3,3,29,1,パツ　ピク　ホレト　シド,,,CartoonStims/chef_shoot_artist_r_no.jpg,audio/patsupikuhoretosido.mp3,,,,,,,,,,,,,,,,,,,,,,,,,,,,,,,,,,,,,,,,,,,,,,,,,,,,,,,,,,,,,,,,,,,,,
,,,,,,,,,R_1jOkqhkzWX4GFfj,2022-09-01_19h37.13.165,jpn_C02,2022.1.2,Win32,59.87306909,,,space,25.1576,0,4,4,41,1,ピク　プミ　ホレト　ルピン,,,CartoonStims/chef_punch_burglar_r_no.jpg,audio/pikupumihoretolupin.mp3,,,,,,,,,,,,,,,,,,,,,,,,,,,,,,,,,,,,,,,,,,,,,,,,,,,,,,,,,,,,,,,,,,,,,
,,,,,,,,,R_1jOkqhkzWX4GFfj,2022-09-01_19h37.13.165,jpn_C02,2022.1.2,Win32,59.87306909,,,space,3.8752,0,5,5,23,1,トマ　ピク　ドキ　ホレト,,,CartoonStims/boxer_point_chef_r_no.jpg,audio/tomapikudokihoreto.mp3,,,,,,,,,,,,,,,,,,,,,,,,,,,,,,,,,,,,,,,,,,,,,,,,,,,,,,,,,,,,,,,,,,,,,
,,,,,,,,,R_1jOkqhkzWX4GFfj,2022-09-01_19h37.13.165,jpn_C02,2022.1.2,Win32,59.87306909,,,space,6.7316,0,6,6,17,1,ピク　トマ　ホレト　ドキ,,,CartoonStims/chef_point_boxer_r_no.jpg,audio/pikutomahoretodoki.mp3,,,,,,,,,,,,,,,,,,,,,,,,,,,,,,,,,,,,,,,,,,,,,,,,,,,,,,,,,,,,,,,,,,,,,
,,,,,,,,,R_1jOkqhkzWX4GFfj,2022-09-01_19h37.13.165,jpn_C02,2022.1.2,Win32,59.87306909,,,space,17.7095,0,7,7,25,1,パツ　ピク　シド　ピポ,,,CartoonStims/artist_shoot_doctor_r_no.jpg,audio/patsupikusidopipo.mp3,,,,,,,,,,,,,,,,,,,,,,,,,,,,,,,,,,,,,,,,,,,,,,,,,,,,,,,,,,,,,,,,,,,,,
,,,,,,,,,R_1jOkqhkzWX4GFfj,2022-09-01_19h37.13.165,jpn_C02,2022.1.2,Win32,59.87306909,,,space,7.2004,0,8,8,46,1,プミ　ピク　ドキ　ムク,,,CartoonStims/boxer_punch_cowboy_r_no.jpg,audio/pumipikudokimuku.mp3,,,,,,,,,,,,,,,,,,,,,,,,,,,,,,,,,,,,,,,,,,,,,,,,,,,,,,,,,,,,,,,,,,,,,
,,,,,,,,,R_1jOkqhkzWX4GFfj,2022-09-01_19h37.13.165,jpn_C02,2022.1.2,Win32,59.87306909,,,space,26.3254,0,9,9,43,1,ピク　プミ　ムク　ホレト,,,CartoonStims/cowboy_punch_chef_r_no.jpg,audio/pikupumimukuhoreto.mp3,,,,,,,,,,,,,,,,,,,,,,,,,,,,,,,,,,,,,,,,,,,,,,,,,,,,,,,,,,,,,,,,,,,,,
,,,,,,,,,R_1jOkqhkzWX4GFfj,2022-09-01_19h37.13.165,jpn_C02,2022.1.2,Win32,59.87306909,,,space,17.2131,0,10,10,38,1,ピク　プミ　ルピン　ドキ,,,CartoonStims/burglar_punch_boxer_r_no.jpg,audio/pikupumilupindoki.mp3,,,,,,,,,,,,,,,,,,,,,,,,,,,,,,,,,,,,,,,,,,,,,,,,,,,,,,,,,,,,,,,,,,,,,
,,,,,,,,,R_1jOkqhkzWX4GFfj,2022-09-01_19h37.13.165,jpn_C02,2022.1.2,Win32,59.87306909,,,space,3.9328,0,11,11,31,1,ピク　パツ　ムク　ルピン,,,CartoonStims/cowboy_shoot_burglar_r_no.jpg,audio/pikupatsumukulupin.mp3,,,,,,,,,,,,,,,,,,,,,,,,,,,,,,,,,,,,,,,,,,,,,,,,,,,,,,,,,,,,,,,,,,,,,
,,,,,,,,,R_1jOkqhkzWX4GFfj,2022-09-01_19h37.13.165,jpn_C02,2022.1.2,Win32,59.87306909,,,space,20.1947,0,12,12,13,1,ピク　トマ　シド　ムク,,,CartoonStims/artist_point_cowboy_r_no.jpg,audio/pikutomasidomuku.mp3,,,,,,,,,,,,,,,,,,,,,,,,,,,,,,,,,,,,,,,,,,,,,,,,,,,,,,,,,,,,,,,,,,,,,
,,,,,,,,,R_1jOkqhkzWX4GFfj,2022-09-01_19h37.13.165,jpn_C02,2022.1.2,Win32,59.87306909,,,space,5.5742,0,13,13,8,1,セル　ピク　ピポ　ドキ,,,CartoonStims/doctor_kick_boxer_r_no.jpg,audio/serupikupipodoki.mp3,,,,,,,,,,,,,,,,,,,,,,,,,,,,,,,,,,,,,,,,,,,,,,,,,,,,,,,,,,,,,,,,,,,,,
,,,,,,,,,R_1jOkqhkzWX4GFfj,2022-09-01_19h37.13.165,jpn_C02,2022.1.2,Win32,59.87306909,,,space,10.257,0,14,14,19,1,トマ　ピク　ムク　シド,,,CartoonStims/cowboy_point_artist_r_no.jpg,audio/tomapikumukusido.mp3,,,,,,,,,,,,,,,,,,,,,,,,,,,,,,,,,,,,,,,,,,,,,,,,,,,,,,,,,,,,,,,,,,,,,
,,,,,,,,,R_1jOkqhkzWX4GFfj,2022-09-01_19h37.13.165,jpn_C02,2022.1.2,Win32,59.87306909,,,space,12.079,0,15,15,14,1,ピク　トマ　ルピン　ムク,,,CartoonStims/burglar_point_cowboy_r_no.jpg,audio/pikutomalupinmuku.mp3,,,,,,,,,,,,,,,,,,,,,,,,,,,,,,,,,,,,,,,,,,,,,,,,,,,,,,,,,,,,,,,,,,,,,
,,,,,,,,,R_1jOkqhkzWX4GFfj,2022-09-01_19h37.13.165,jpn_C02,2022.1.2,Win32,59.87306909,,,space,25.9554,0,16,16,33,1,ピク　パツ　ピポ　ホレト,,,CartoonStims/doctor_shoot_chef_r_no.jpg,audio/pikupatsupipohoreto.mp3,,,,,,,,,,,,,,,,,,,,,,,,,,,,,,,,,,,,,,,,,,,,,,,,,,,,,,,,,,,,,,,,,,,,,
,,,,,,,,,R_1jOkqhkzWX4GFfj,2022-09-01_19h37.13.165,jpn_C02,2022.1.2,Win32,59.87306909,,,space,18.0922,0,17,17,10,1,ピク　セル　ドキ　シド,,,CartoonStims/boxer_kick_artist_r_no.jpg,audio/pikuserudokisido.mp3,,,,,,,,,,,,,,,,,,,,,,,,,,,,,,,,,,,,,,,,,,,,,,,,,,,,,,,,,,,,,,,,,,,,,
,,,,,,,,,R_1jOkqhkzWX4GFfj,2022-09-01_19h37.13.165,jpn_C02,2022.1.2,Win32,59.87306909,,,space,7.5569,0,18,18,1,1,ピク　セル　シド　ホレト,,,CartoonStims/artist_kick_chef_r_no.jpg,audio/pikuserusidohoreto.mp3,,,,,,,,,,,,,,,,,,,,,,,,,,,,,,,,,,,,,,,,,,,,,,,,,,,,,,,,,,,,,,,,,,,,,
,,,,,,,,,R_1jOkqhkzWX4GFfj,2022-09-01_19h37.13.165,jpn_C02,2022.1.2,Win32,59.87306909,,,space,7.998,0,19,19,6,1,ピク　セル　ムク　ピポ,,,CartoonStims/cowboy_kick_doctor_r_no.jpg,audio/pikuserumukupipo.mp3,,,,,,,,,,,,,,,,,,,,,,,,,,,,,,,,,,,,,,,,,,,,,,,,,,,,,,,,,,,,,,,,,,,,,
,,,,,,,,,R_1jOkqhkzWX4GFfj,2022-09-01_19h37.13.165,jpn_C02,2022.1.2,Win32,59.87306909,,,space,4.0864,0,20,20,7,1,ピク　セル　ムク　ドキ,,,CartoonStims/cowboy_kick_boxer_r_no.jpg,audio/pikuserumukudoki.mp3,,,,,,,,,,,,,,,,,,,,,,,,,,,,,,,,,,,,,,,,,,,,,,,,,,,,,,,,,,,,,,,,,,,,,
,,,,,,,,,R_1jOkqhkzWX4GFfj,2022-09-01_19h37.13.165,jpn_C02,2022.1.2,Win32,59.87306909,,,space,9.5722,0,21,21,36,1,ピク　プミ　シド　ピポ,,,CartoonStims/artist_punch_doctor_r_no.jpg,audio/pikupumisidopipo.mp3,,,,,,,,,,,,,,,,,,,,,,,,,,,,,,,,,,,,,,,,,,,,,,,,,,,,,,,,,,,,,,,,,,,,,
,,,,,,,,,R_1jOkqhkzWX4GFfj,2022-09-01_19h37.13.165,jpn_C02,2022.1.2,Win32,59.87306909,,,space,6.0647,0,22,22,11,1,ピク　セル　ドキ　ルピン,,,CartoonStims/boxer_kick_burglar_r_no.jpg,audio/pikuserudokilupin.mp3,,,,,,,,,,,,,,,,,,,,,,,,,,,,,,,,,,,,,,,,,,,,,,,,,,,,,,,,,,,,,,,,,,,,,
,,,,,,,,,R_1jOkqhkzWX4GFfj,2022-09-01_19h37.13.165,jpn_C02,2022.1.2,Win32,59.87306909,,,space,7.3347,0,23,23,27,1,パツ　ピク　ルピン　ドキ,,,CartoonStims/burglar_shoot_boxer_r_no.jpg,audio/patsupikulupindoki.mp3,,,,,,,,,,,,,,,,,,,,,,,,,,,,,,,,,,,,,,,,,,,,,,,,,,,,,,,,,,,,,,,,,,,,,
,,,,,,,,,R_1jOkqhkzWX4GFfj,2022-09-01_19h37.13.165,jpn_C02,2022.1.2,Win32,59.87306909,,,space,10.1089,0,24,24,0,1,セル　ピク　シド　ルピン,,,CartoonStims/artist_kick_burglar_r_no.jpg,audio/serupikusidolupin.mp3,,,,,,,,,,,,,,,,,,,,,,,,,,,,,,,,,,,,,,,,,,,,,,,,,,,,,,,,,,,,,,,,,,,,,
,,,,,,,,,R_1jOkqhkzWX4GFfj,2022-09-01_19h37.13.165,jpn_C02,2022.1.2,Win32,59.87306909,,,space,9.5316,0,25,25,40,1,ピク　プミ　ホレト　シド,,,CartoonStims/chef_punch_artist_r_no.jpg,audio/pikupumihoretosido.mp3,,,,,,,,,,,,,,,,,,,,,,,,,,,,,,,,,,,,,,,,,,,,,,,,,,,,,,,,,,,,,,,,,,,,,
,,,,,,,,,R_1jOkqhkzWX4GFfj,2022-09-01_19h37.13.165,jpn_C02,2022.1.2,Win32,59.87306909,,,space,10.9456,0,26,26,22,1,ピク　トマ　ドキ　ルピン,,,CartoonStims/boxer_point_burglar_r_no.jpg,audio/pikutomadokilupin.mp3,,,,,,,,,,,,,,,,,,,,,,,,,,,,,,,,,,,,,,,,,,,,,,,,,,,,,,,,,,,,,,,,,,,,,
,,,,,,,,,R_1jOkqhkzWX4GFfj,2022-09-01_19h37.13.165,jpn_C02,2022.1.2,Win32,59.87306909,,,space,16.2102,0,27,27,37,1,ピク　プミ　シド　ドキ,,,CartoonStims/artist_punch_boxer_r_no.jpg,audio/pikupumisidodoki.mp3,,,,,,,,,,,,,,,,,,,,,,,,,,,,,,,,,,,,,,,,,,,,,,,,,,,,,,,,,,,,,,,,,,,,,
,,,,,,,,,R_1jOkqhkzWX4GFfj,2022-09-01_19h37.13.165,jpn_C02,2022.1.2,Win32,59.87306909,,,space,14.3771,0,28,28,4,1,セル　ピク　ホレト　ムク,,,CartoonStims/chef_kick_cowboy_r_no.jpg,audio/serupikuhoretomuku.mp3,,,,,,,,,,,,,,,,,,,,,,,,,,,,,,,,,,,,,,,,,,,,,,,,,,,,,,,,,,,,,,,,,,,,,
,,,,,,,,,R_1jOkqhkzWX4GFfj,2022-09-01_19h37.13.165,jpn_C02,2022.1.2,Win32,59.87306909,,,space,4.4404,0,29,29,45,1,ピク　プミ　ピポ　ムク,,,CartoonStims/doctor_punch_cowboy_r_no.jpg,audio/pikupumipipomuku.mp3,,,,,,,,,,,,,,,,,,,,,,,,,,,,,,,,,,,,,,,,,,,,,,,,,,,,,,,,,,,,,,,,,,,,,
,,,,,,,,,R_1jOkqhkzWX4GFfj,2022-09-01_19h37.13.165,jpn_C02,2022.1.2,Win32,59.87306909,,,space,4.0159,0,30,30,34,1,ピク　パツ　ドキ　ホレト,,,CartoonStims/boxer_shoot_chef_r_no.jpg,audio/pikupatsudokihoreto.mp3,,,,,,,,,,,,,,,,,,,,,,,,,,,,,,,,,,,,,,,,,,,,,,,,,,,,,,,,,,,,,,,,,,,,,
,,,,,,,,,R_1jOkqhkzWX4GFfj,2022-09-01_19h37.13.165,jpn_C02,2022.1.2,Win32,59.87306909,,,space,5.0159,0,31,31,9,1,ピク　セル　ピポ　シド,,,CartoonStims/doctor_kick_artist_r_no.jpg,audio/pikuserupiposido.mp3,,,,,,,,,,,,,,,,,,,,,,,,,,,,,,,,,,,,,,,,,,,,,,,,,,,,,,,,,,,,,,,,,,,,,
,,,,,,,,,R_1jOkqhkzWX4GFfj,2022-09-01_19h37.13.165,jpn_C02,2022.1.2,Win32,59.87306909,,,space,6.8477,0,32,32,30,1,ピク　パツ　ムク　シド,,,CartoonStims/cowboy_shoot_artist_r_no.jpg,audio/pikupatsumukusido.mp3,,,,,,,,,,,,,,,,,,,,,,,,,,,,,,,,,,,,,,,,,,,,,,,,,,,,,,,,,,,,,,,,,,,,,
,,,,,,,,,R_1jOkqhkzWX4GFfj,2022-09-01_19h37.13.165,jpn_C02,2022.1.2,Win32,59.87306909,,,space,15.3485,0,33,33,44,1,プミ　ピク　ピポ　ホレト,,,CartoonStims/doctor_punch_chef_r_no.jpg,audio/pumipikupipohoreto.mp3,,,,,,,,,,,,,,,,,,,,,,,,,,,,,,,,,,,,,,,,,,,,,,,,,,,,,,,,,,,,,,,,,,,,,
,,,,,,,,,R_1jOkqhkzWX4GFfj,2022-09-01_19h37.13.165,jpn_C02,2022.1.2,Win32,59.87306909,,,space,7.0468,0,34,34,39,1,ピク　プミ　ルピン　シド,,,CartoonStims/burglar_punch_artist_r_no.jpg,audio/pikupumilupinsido.mp3,,,,,,,,,,,,,,,,,,,,,,,,,,,,,,,,,,,,,,,,,,,,,,,,,,,,,,,,,,,,,,,,,,,,,
,,,,,,,,,R_1jOkqhkzWX4GFfj,2022-09-01_19h37.13.165,jpn_C02,2022.1.2,Win32,59.87306909,,,space,8.9057,0,35,35,16,1,ピク　トマ　ホレト　ピポ,,,CartoonStims/chef_point_doctor_r_no.jpg,audio/pikutomahoretopipo.mp3,,,,,,,,,,,,,,,,,,,,,,,,,,,,,,,,,,,,,,,,,,,,,,,,,,,,,,,,,,,,,,,,,,,,,
,,,,,,,,,R_1jOkqhkzWX4GFfj,2022-09-01_19h37.13.165,jpn_C02,2022.1.2,Win32,59.87306909,,,space,9.0633,0,36,36,28,1,ピク　パツ　ホレト　ドキ,,,CartoonStims/chef_shoot_boxer_r_no.jpg,audio/pikupatsuhoretodoki.mp3,,,,,,,,,,,,,,,,,,,,,,,,,,,,,,,,,,,,,,,,,,,,,,,,,,,,,,,,,,,,,,,,,,,,,
,,,,,,,,,R_1jOkqhkzWX4GFfj,2022-09-01_19h37.13.165,jpn_C02,2022.1.2,Win32,59.87306909,,,space,15.5403,0,37,37,18,1,ピク　トマ　ムク　ドキ,,,CartoonStims/cowboy_point_boxer_r_no.jpg,audio/pikutomamukudoki.mp3,,,,,,,,,,,,,,,,,,,,,,,,,,,,,,,,,,,,,,,,,,,,,,,,,,,,,,,,,,,,,,,,,,,,,
,,,,,,,,,R_1jOkqhkzWX4GFfj,2022-09-01_19h37.13.165,jpn_C02,2022.1.2,Win32,59.87306909,,,space,6.1317,0,38,38,21,1,ピク　トマ　ピポ　ルピン,,,CartoonStims/doctor_point_burglar_r_no.jpg,audio/pikutomapipolupin.mp3,,,,,,,,,,,,,,,,,,,,,,,,,,,,,,,,,,,,,,,,,,,,,,,,,,,,,,,,,,,,,,,,,,,,,
,,,,,,,,,R_1jOkqhkzWX4GFfj,2022-09-01_19h37.13.165,jpn_C02,2022.1.2,Win32,59.87306909,,,space,4.8338,0,39,39,5,1,ピク　セル　ホレト　ピポ,,,CartoonStims/chef_kick_doctor_r_no.jpg,audio/pikuseruhoretopipo.mp3,,,,,,,,,,,,,,,,,,,,,,,,,,,,,,,,,,,,,,,,,,,,,,,,,,,,,,,,,,,,,,,,,,,,,
,,,,,,,,,R_1jOkqhkzWX4GFfj,2022-09-01_19h37.13.165,jpn_C02,2022.1.2,Win32,59.87306909,,,space,3.8056,0,40,40,26,1,ピク　パツ　ルピン　ピポ,,,CartoonStims/burglar_shoot_doctor_r_no.jpg,audio/pikupatsulupinpipo.mp3,,,,,,,,,,,,,,,,,,,,,,,,,,,,,,,,,,,,,,,,,,,,,,,,,,,,,,,,,,,,,,,,,,,,,
,,,,,,,,,R_1jOkqhkzWX4GFfj,2022-09-01_19h37.13.165,jpn_C02,2022.1.2,Win32,59.87306909,,,space,4.0985,0,41,41,20,1,ピク　トマ　ピポ　シド,,,CartoonStims/doctor_point_artist_r_no.jpg,audio/pikutomapiposido.mp3,,,,,,,,,,,,,,,,,,,,,,,,,,,,,,,,,,,,,,,,,,,,,,,,,,,,,,,,,,,,,,,,,,,,,
,,,,,,,,,R_1jOkqhkzWX4GFfj,2022-09-01_19h37.13.165,jpn_C02,2022.1.2,Win32,59.87306909,,,space,7.6806,0,42,42,2,1,ピク　セル　ルピン　ホレト,,,CartoonStims/burglar_kick_chef_r_no.jpg,audio/pikuserulupinhoreto.mp3,,,,,,,,,,,,,,,,,,,,,,,,,,,,,,,,,,,,,,,,,,,,,,,,,,,,,,,,,,,,,,,,,,,,,
,,,,,,,,,R_1jOkqhkzWX4GFfj,2022-09-01_19h37.13.165,jpn_C02,2022.1.2,Win32,59.87306909,,,space,9.8873,0,43,43,12,1,ピク　トマ　シド　ホレト,,,CartoonStims/artist_point_chef_r_no.jpg,audio/pikutomasidohoreto.mp3,,,,,,,,,,,,,,,,,,,,,,,,,,,,,,,,,,,,,,,,,,,,,,,,,,,,,,,,,,,,,,,,,,,,,
,,,,,,,,,R_1jOkqhkzWX4GFfj,2022-09-01_19h37.13.165,jpn_C02,2022.1.2,Win32,59.87306909,,,space,3.8323,0,44,44,24,1,ピク　パツ　シド　ムク,,,CartoonStims/artist_shoot_cowboy_r_no.jpg,audio/pikupatsusidomuku.mp3,,,,,,,,,,,,,,,,,,,,,,,,,,,,,,,,,,,,,,,,,,,,,,,,,,,,,,,,,,,,,,,,,,,,,
,,,,,,,,,R_1jOkqhkzWX4GFfj,2022-09-01_19h37.13.165,jpn_C02,2022.1.2,Win32,59.87306909,,,space,55.5461,0,45,45,35,1,ピク　パツ　ドキ　ムク,,,CartoonStims/boxer_shoot_cowboy_r_no.jpg,audio/pikupatsudokimuku.mp3,,,,,,,,,,,,,,,,,,,,,,,,,,,,,,,,,,,,,,,,,,,,,,,,,,,,,,,,,,,,,,,,,,,,,
,,,,,,,,,R_1jOkqhkzWX4GFfj,2022-09-01_19h37.13.165,jpn_C02,2022.1.2,Win32,59.87306909,,,space,6.8052,0,46,46,3,1,ピク　セル　ルピン　ムク,,,CartoonStims/burglar_kick_cowboy_r_no.jpg,audio/pikuserulupinmuku.mp3,,,,,,,,,,,,,,,,,,,,,,,,,,,,,,,,,,,,,,,,,,,,,,,,,,,,,,,,,,,,,,,,,,,,,
,,,,,,,,,R_1jOkqhkzWX4GFfj,2022-09-01_19h37.13.165,jpn_C02,2022.1.2,Win32,59.87306909,,,space,5.5814,0,47,47,15,1,トマ　ピク　ルピン　ピポ,,,CartoonStims/burglar_point_doctor_r_no.jpg,audio/tomapikulupinpipo.mp3,,,,,,,,,,,,,,,,,,,,,,,,,,,,,,,,,,,,,,,,,,,,,,,,,,,,,,,,,,,,,,,,,,,,,
,,,,,,,,,R_1jOkqhkzWX4GFfj,2022-09-01_19h37.13.165,jpn_C02,2022.1.2,Win32,59.87306909,,,,,,,,,,,,,,,space,1.1675,left,0,3.5566,,,,,,,,,,,,,,,,,,,,,,,,,,,,,,,,,,,,,,,,,,,,,,,,,,,,,,,,,0,0,0,0,1,,,
,,,,,,,,,R_1jOkqhkzWX4GFfj,2022-09-01_19h37.13.165,jpn_C02,2022.1.2,Win32,59.87306909,,,,,,,,,,,,,,,,,,,,,,,,,0,0,0,1,1,CartoonStims/chef_punch_cowboy_r.jpg,ピク　プミ　ホレト　ムク,CartoonStims/chef_kick_cowboy_r.jpg,right,CartoonStims/chef_kick_cowboy_r.jpg,audio/pikupumihoretomuku.mp3,"残念！ こちらが正しい画像です。

否定文は起きていないことを示しているのを思い出してください。",,,,,,,,,,,,,,,,,,,,,,,,,,,,,,,,,,,,,,,,,,,,,,,
,,,,,,,,,R_1jOkqhkzWX4GFfj,2022-09-01_19h37.13.165,jpn_C02,2022.1.2,Win32,59.87306909,,,,,,,,,,,,,,,,,left,1,7.6498,0,0,0,0,1,,,,,,,,,,,,,,,,,,,,,,,,,,,,,,,,,,,,,,,,,,,,,,,,,,,,,,,,,,,
,,,,,,,,,R_1jOkqhkzWX4GFfj,2022-09-01_19h37.13.165,jpn_C02,2022.1.2,Win32,59.87306909,,,,,,,,,,,,,,,,,,,,,,,,,0,1,1,2,1,CartoonStims/doctor_point_boxer_r.jpg,ピク　プミ　ピポ　ドキ,CartoonStims/doctor_punch_boxer_r.jpg,left,CartoonStims/doctor_point_boxer_r.jpg,audio/pikupumipipodoki.mp3,"残念！ こちらが正しい画像です。

否定文は起きていないことを示しているのを思い出してください。",,,,,,,,,,,,,,,,,,,,,,,,,,,,,,,,,,,,,,,,,,,,,,,
,,,,,,,,,R_1jOkqhkzWX4GFfj,2022-09-01_19h37.13.165,jpn_C02,2022.1.2,Win32,59.87306909,,,,,,,,,,,,,,,,,left,1,7.6025,0,0,0,0,1,,,,,,,,,,,,,,,,,,,,,,,,,,,,,,,,,,,,,,,,,,,,,,,,,,,,,,,,,,,
,,,,,,,,,R_1jOkqhkzWX4GFfj,2022-09-01_19h37.13.165,jpn_C02,2022.1.2,Win32,59.87306909,,,,,,,,,,,,,,,,,,,,,,,,,0,2,2,6,1,CartoonStims/artist_shoot_boxer_r.jpg,ピク　トマ　シド　ドキ,CartoonStims/artist_point_boxer_r.jpg,left,CartoonStims/artist_shoot_boxer_r.jpg,audio/pikutomasidodoki.mp3,"残念！ こちらが正しい画像です。

否定文は起きていないことを示しているのを思い出してください。",,,,,,,,,,,,,,,,,,,,,,,,,,,,,,,,,,,,,,,,,,,,,,,
,,,,,,,,,R_1jOkqhkzWX4GFfj,2022-09-01_19h37.13.165,jpn_C02,2022.1.2,Win32,59.87306909,,,,,,,,,,,,,,,,,right,1,2.5194,,,,,,,,,,,,,,,,,,0,0,0,0,1,,,,,,,,,,,,,,,,,,,,,,,,,,,,,,,,,,,,,,,,,,
,,,,,,,,,R_1jOkqhkzWX4GFfj,2022-09-01_19h37.13.165,jpn_C02,2022.1.2,Win32,59.87306909,,,,,,,,,,,,,,,,,,,,,,,,,0,3,3,3,1,CartoonStims/chef_kick_artist_r.jpg,セル　ピク　ホレト　シド,CartoonStims/chef_point_artist_r.jpg,right,CartoonStims/chef_point_artist_r.jpg,audio/serupikuhoretosido.mp3,"残念！ こちらが正しい画像です。

否定文は起きていないことを示しているのを思い出してください。",,,,,,,,,,,,,,,,,,,,,,,,,,,,,,,,,,,,,,,,,,,,,,,
,,,,,,,,,R_1jOkqhkzWX4GFfj,2022-09-01_19h37.13.165,jpn_C02,2022.1.2,Win32,59.87306909,,,,,,,,,,,,,,,,,left,1,5.1188,0,0,0,0,1,,,,,,,,,,,,,,,,,,,,,,,,,,,,,,,,,,,,,,,,,,,,,,,,,,,,,,,,,,,
,,,,,,,,,R_1jOkqhkzWX4GFfj,2022-09-01_19h37.13.165,jpn_C02,2022.1.2,Win32,59.87306909,,,,,,,,,,,,,,,,,,,,,,,,,0,4,4,0,1,CartoonStims/artist_shoot_burglar_r.jpg,プミ　ピク　シド　ルピン,CartoonStims/artist_punch_burglar_r.jpg,left,CartoonStims/artist_shoot_burglar_r.jpg,audio/pumipikusidolupin.mp3,"残念！ こちらが正しい画像です。

否定文は起きていないことを示しているのを思い出してください。",,,,,,,,,,,,,,,,,,,,,,,,,,,,,,,,,,,,,,,,,,,,,,,
,,,,,,,,,R_1jOkqhkzWX4GFfj,2022-09-01_19h37.13.165,jpn_C02,2022.1.2,Win32,59.87306909,,,,,,,,,,,,,,,,,right,1,1.3433,,,,,,,,,,,,,,,,,,0,0,0,0,1,,,,,,,,,,,,,,,,,,,,,,,,,,,,,,,,,,,,,,,,,,
,,,,,,,,,R_1jOkqhkzWX4GFfj,2022-09-01_19h37.13.165,jpn_C02,2022.1.2,Win32,59.87306909,,,,,,,,,,,,,,,,,,,,,,,,,0,5,5,5,1,CartoonStims/boxer_kick_cowboy_r.jpg,ピク　セル　ドキ　ムク,CartoonStims/boxer_punch_cowboy_r.jpg,right,CartoonStims/boxer_punch_cowboy_r.jpg,audio/pikuserudokimuku.mp3,"残念！ こちらが正しい画像です。

否定文は起きていないことを示しているのを思い出してください。",,,,,,,,,,,,,,,,,,,,,,,,,,,,,,,,,,,,,,,,,,,,,,,
,,,,,,,,,R_1jOkqhkzWX4GFfj,2022-09-01_19h37.13.165,jpn_C02,2022.1.2,Win32,59.87306909,,,,,,,,,,,,,,,,,right,1,0.9341,,,,,,,,,,,,,,,,,,0,0,0,0,1,,,,,,,,,,,,,,,,,,,,,,,,,,,,,,,,,,,,,,,,,,
,,,,,,,,,R_1jOkqhkzWX4GFfj,2022-09-01_19h37.13.165,jpn_C02,2022.1.2,Win32,59.87306909,,,,,,,,,,,,,,,,,,,,,,,,,0,6,6,11,1,CartoonStims/chef_shoot_burglar_r.jpg,ピク　パツ　ホレト　ルピン,CartoonStims/chef_kick_burglar_r.jpg,right,CartoonStims/chef_kick_burglar_r.jpg,audio/pikupatsuhoretolupin.mp3,"残念！ こちらが正しい画像です。

否定文は起きていないことを示しているのを思い出してください。",,,,,,,,,,,,,,,,,,,,,,,,,,,,,,,,,,,,,,,,,,,,,,,
,,,,,,,,,R_1jOkqhkzWX4GFfj,2022-09-01_19h37.13.165,jpn_C02,2022.1.2,Win32,59.87306909,,,,,,,,,,,,,,,,,left,1,1.5341,0,0,0,0,1,,,,,,,,,,,,,,,,,,,,,,,,,,,,,,,,,,,,,,,,,,,,,,,,,,,,,,,,,,,
,,,,,,,,,R_1jOkqhkzWX4GFfj,2022-09-01_19h37.13.165,jpn_C02,2022.1.2,Win32,59.87306909,,,,,,,,,,,,,,,,,,,,,,,,,0,7,7,4,1,CartoonStims/burglar_shoot_doctor_r.jpg,ピク　セル　ルピン　ピポ,CartoonStims/burglar_kick_doctor_r.jpg,left,CartoonStims/burglar_shoot_doctor_r.jpg,audio/pikuserulupinpipo.mp3,"残念！ こちらが正しい画像です。

否定文は起きていないことを示しているのを思い出してください。",,,,,,,,,,,,,,,,,,,,,,,,,,,,,,,,,,,,,,,,,,,,,,,
,,,,,,,,,R_1jOkqhkzWX4GFfj,2022-09-01_19h37.13.165,jpn_C02,2022.1.2,Win32,59.87306909,,,,,,,,,,,,,,,,,left,1,6.404,0,0,0,0,1,,,,,,,,,,,,,,,,,,,,,,,,,,,,,,,,,,,,,,,,,,,,,,,,,,,,,,,,,,,
,,,,,,,,,R_1jOkqhkzWX4GFfj,2022-09-01_19h37.13.165,jpn_C02,2022.1.2,Win32,59.87306909,,,,,,,,,,,,,,,,,,,,,,,,,0,8,8,8,1,CartoonStims/burglar_punch_artist_r.jpg,ピク　トマ　ルピン　シド,CartoonStims/burglar_point_artist_r.jpg,left,CartoonStims/burglar_punch_artist_r.jpg,audio/pikutomalupinsido.mp3,"残念！ こちらが正しい画像です。

否定文は起きていないことを示しているのを思い出してください。",,,,,,,,,,,,,,,,,,,,,,,,,,,,,,,,,,,,,,,,,,,,,,,
,,,,,,,,,R_1jOkqhkzWX4GFfj,2022-09-01_19h37.13.165,jpn_C02,2022.1.2,Win32,59.87306909,,,,,,,,,,,,,,,,,left,1,2.3512,0,0,0,0,1,,,,,,,,,,,,,,,,,,,,,,,,,,,,,,,,,,,,,,,,,,,,,,,,,,,,,,,,,,,
,,,,,,,,,R_1jOkqhkzWX4GFfj,2022-09-01_19h37.13.165,jpn_C02,2022.1.2,Win32,59.87306909,,,,,,,,,,,,,,,,,,,,,,,,,0,9,9,10,1,CartoonStims/doctor_punch_cowboy_r.jpg,パツ　ピク　ピポ　ムク,CartoonStims/doctor_shoot_cowboy_r.jpg,left,CartoonStims/doctor_punch_cowboy_r.jpg,audio/patsupikupipomuku.mp3,"残念！ こちらが正しい画像です。

否定文は起きていないことを示しているのを思い出してください。",,,,,,,,,,,,,,,,,,,,,,,,,,,,,,,,,,,,,,,,,,,,,,,
,,,,,,,,,R_1jOkqhkzWX4GFfj,2022-09-01_19h37.13.165,jpn_C02,2022.1.2,Win32,59.87306909,,,,,,,,,,,,,,,,,right,1,2.8995,,,,,,,,,,,,,,,,,,0,0,0,0,1,,,,,,,,,,,,,,,,,,,,,,,,,,,,,,,,,,,,,,,,,,
,,,,,,,,,R_1jOkqhkzWX4GFfj,2022-09-01_19h37.13.165,jpn_C02,2022.1.2,Win32,59.87306909,,,,,,,,,,,,,,,,,,,,,,,,,0,10,10,9,1,CartoonStims/boxer_shoot_doctor_r.jpg,ピク　パツ　ドキ　ピポ,CartoonStims/boxer_point_doctor_r.jpg,right,CartoonStims/boxer_point_doctor_r.jpg,audio/pikupatsudokipipo.mp3,"残念！ こちらが正しい画像です。

否定文は起きていないことを示しているのを思い出してください。",,,,,,,,,,,,,,,,,,,,,,,,,,,,,,,,,,,,,,,,,,,,,,,
,,,,,,,,,R_1jOkqhkzWX4GFfj,2022-09-01_19h37.13.165,jpn_C02,2022.1.2,Win32,59.87306909,,,,,,,,,,,,,,,,,right,1,5.4987,,,,,,,,,,,,,,,,,,0,0,0,0,1,,,,,,,,,,,,,,,,,,,,,,,,,,,,,,,,,,,,,,,,,,
,,,,,,,,,R_1jOkqhkzWX4GFfj,2022-09-01_19h37.13.165,jpn_C02,2022.1.2,Win32,59.87306909,,,,,,,,,,,,,,,,,,,,,,,,,0,11,11,7,1,CartoonStims/cowboy_point_chef_r.jpg,トマ　ピク　ムク　ホレト,CartoonStims/cowboy_kick_chef_r.jpg,right,CartoonStims/cowboy_kick_chef_r.jpg,audio/tomapikumukuhoreto.mp3,"残念！ こちらが正しい画像です。

否定文は起きていないことを示しているのを思い出してください。",,,,,,,,,,,,,,,,,,,,,,,,,,,,,,,,,,,,,,,,,,,,,,,
,,,,,,,,,R_1jOkqhkzWX4GFfj,2022-09-01_19h37.13.165,jpn_C02,2022.1.2,Win32,59.87306909,,,,,,,,,,,,,CartoonStims/burglar_shoot_cowboy_r_no.jpg,,,,,,,,,,,,,,,,,,,,,,,,,,,,,space,6.6942,ピク　パツ　ルピン　ムク,right,16.9415,,,,,,0,0,0,13,1,,,,,,,,,,,,,,,,,,,,,,,,,ピク　パツ　ルピン　ムク,パツ　ピク　ルピン　ムク,1
,,,,,,,,,R_1jOkqhkzWX4GFfj,2022-09-01_19h37.13.165,jpn_C02,2022.1.2,Win32,59.87306909,,,,,,,,,,,,,CartoonStims/doctor_point_boxer_r_no.jpg,,,,,,,,,,,,,,,,,,,,,,,,,,,,,,,ピク　トマ　ピポ　ドキ,right,13.4817,,,,,,0,1,1,10,1,,,,,,,,,,,,,,,,,,,,,,,,,ピク　トマ　ピポ　ドキ,トマ　ピク　ピポ　ドキ,1
,,,,,,,,,R_1jOkqhkzWX4GFfj,2022-09-01_19h37.13.165,jpn_C02,2022.1.2,Win32,59.87306909,,,,,,,,,,,,,CartoonStims/doctor_punch_burglar_r_no.jpg,,,,,,,,,,,,,,,,,,,,,,,,,,,,,,,プミ　ピク　ピポ　ルピン,right,14.551,,,,,,0,2,2,22,1,,,,,,,,,,,,,,,,,,,,,,,,,ピク　プミ　ピポ　ルピン,プミ　ピク　ピポ　ルピン,1
,,,,,,,,,R_1jOkqhkzWX4GFfj,2022-09-01_19h37.13.165,jpn_C02,2022.1.2,Win32,59.87306909,,,,,,,,,,,,,CartoonStims/boxer_punch_chef_r_no.jpg,,,,,,,,,,,,,,,,,,,,,,,,,,,,,,,ピク　プミ　ドキ　ホレト,right,14.046,,,,,,0,3,3,23,1,,,,,,,,,,,,,,,,,,,,,,,,,ピク　プミ　ドキ　ホレト,プミ　ピク　ドキ　ホレト,1
,,,,,,,,,R_1jOkqhkzWX4GFfj,2022-09-01_19h37.13.165,jpn_C02,2022.1.2,Win32,59.87306909,,,,,,,,,,,,,CartoonStims/artist_punch_cowboy_r_no.jpg,,,,,,,,,,,,,,,,,,,,,,,,,,,,,,,ピク　プミ　シド　ムク,right,9.2615,,,,,,0,4,4,18,1,,,,,,,,,,,,,,,,,,,,,,,,,ピク　プミ　シド　ムク,プミ　ピク　シド　ムク,1
,,,,,,,,,R_1jOkqhkzWX4GFfj,2022-09-01_19h37.13.165,jpn_C02,2022.1.2,Win32,59.87306909,,,,,,,,,,,,,CartoonStims/chef_punch_boxer_r_no.jpg,,,,,,,,,,,,,,,,,,,,,,,,,,,,,,,ピク　プミ　ホレト　ドキ,right,10.7623,,,,,,0,5,5,20,1,,,,,,,,,,,,,,,,,,,,,,,,,ピク　プミ　ホレト　ドキ,プミ　ピク　ホレト　ドキ,1
,,,,,,,,,R_1jOkqhkzWX4GFfj,2022-09-01_19h37.13.165,jpn_C02,2022.1.2,Win32,59.87306909,,,,,,,,,,,,,CartoonStims/artist_shoot_chef_r_no.jpg,,,,,,,,,,,,,,,,,,,,,,,,,,,,,,,ピク　パツ　シド　ホレト,right,21.1714,,,,,,0,6,6,12,1,,,,,,,,,,,,,,,,,,,,,,,,,ピク　パツ　シド　ホレト,パツ　ピク　シド　ホレト,1
,,,,,,,,,R_1jOkqhkzWX4GFfj,2022-09-01_19h37.13.165,jpn_C02,2022.1.2,Win32,59.87306909,,,,,,,,,,,,,CartoonStims/artist_point_boxer_r.jpg,,,,,,,,,,,,,,,,,,,,,,,,,,,,,,,トマ　シド　ドキ,right,11.8306,,,,,,0,7,7,27,1,,,,,,,,,,,,,,,,,,,,,,,,,トマ　シド　ドキ,トマ　シド　ドキ,0
,,,,,,,,,R_1jOkqhkzWX4GFfj,2022-09-01_19h37.13.165,jpn_C02,2022.1.2,Win32,59.87306909,,,,,,,,,,,,,CartoonStims/artist_point_burglar_r_no.jpg,,,,,,,,,,,,,,,,,,,,,,,,,,,,,,,ピク　トマ　シド　ルピン,right,16.5641,,,,,,0,8,8,6,1,,,,,,,,,,,,,,,,,,,,,,,,,ピク　トマ　シド　ルピン,トマ　ピク　シド　ルピン,1
,,,,,,,,,R_1jOkqhkzWX4GFfj,2022-09-01_19h37.13.165,jpn_C02,2022.1.2,Win32,59.87306909,,,,,,,,,,,,,CartoonStims/chef_shoot_cowboy_r.jpg,,,,,,,,,,,,,,,,,,,,,,,,,,,,,,,パツ　ホレト　ムク,right,6.3006,,,,,,0,9,9,31,1,,,,,,,,,,,,,,,,,,,,,,,,,パツ　ホレト　ムク,パツ　ホレト　ムク,0
,,,,,,,,,R_1jOkqhkzWX4GFfj,2022-09-01_19h37.13.165,jpn_C02,2022.1.2,Win32,59.87306909,,,,,,,,,,,,,CartoonStims/doctor_punch_boxer_r.jpg,,,,,,,,,,,,,,,,,,,,,,,,,,,,,,,プミ　ピポ　ドキ,right,8.6731,,,,,,0,10,10,34,1,,,,,,,,,,,,,,,,,,,,,,,,,プミ　ピポ　ドキ,プミ　ピポ　ドキ,0
,,,,,,,,,R_1jOkqhkzWX4GFfj,2022-09-01_19h37.13.165,jpn_C02,2022.1.2,Win32,59.87306909,,,,,,,,,,,,,CartoonStims/burglar_punch_doctor_r_no.jpg,,,,,,,,,,,,,,,,,,,,,,,,,,,,,,,ピク　プミ　ルピン　ピポ,right,12.5744,,,,,,0,11,11,19,1,,,,,,,,,,,,,,,,,,,,,,,,,ピク　プミ　ルピン　ピポ,プミ　ピク　ルピン　ピポ,1
,,,,,,,,,R_1jOkqhkzWX4GFfj,2022-09-01_19h37.13.165,jpn_C02,2022.1.2,Win32,59.87306909,,,,,,,,,,,,,CartoonStims/chef_kick_burglar_r_no.jpg,,,,,,,,,,,,,,,,,,,,,,,,,,,,,,,ピク　セル　ホレト　ルピン,right,9.0305,,,,,,0,12,12,2,1,,,,,,,,,,,,,,,,,,,,,,,,,ピク　セル　ホレト　ルピン,セル　ピク　ホレト　ルピン,1
,,,,,,,,,R_1jOkqhkzWX4GFfj,2022-09-01_19h37.13.165,jpn_C02,2022.1.2,Win32,59.87306909,,,,,,,,,,,,,CartoonStims/boxer_kick_cowboy_r.jpg,,,,,,,,,,,,,,,,,,,,,,,,,,,,,,,セル　ドキ　ムク,right,6.9077,,,,,,0,13,13,26,1,,,,,,,,,,,,,,,,,,,,,,,,,セル　ドキ　ムク,セル　ドキ　ムク,0
,,,,,,,,,R_1jOkqhkzWX4GFfj,2022-09-01_19h37.13.165,jpn_C02,2022.1.2,Win32,59.87306909,,,,,,,,,,,,,CartoonStims/cowboy_point_doctor_r_no.jpg,,,,,,,,,,,,,,,,,,,,,,,,,,,,,,,ピク　トマ　ムク　ピポ,right,14.0191,,,,,,0,14,14,9,1,,,,,,,,,,,,,,,,,,,,,,,,,ピク　トマ　ムク　ピポ,トマ　ピク　ムク　ピポ,1
,,,,,,,,,R_1jOkqhkzWX4GFfj,2022-09-01_19h37.13.165,jpn_C02,2022.1.2,Win32,59.87306909,,,,,,,,,,,,,CartoonStims/boxer_shoot_burglar_r_no.jpg,,,,,,,,,,,,,,,,,,,,,,,,,,,,,,,ピク　パツ　ドキ　ルピン,right,7.2665,,,,,,0,15,15,17,1,,,,,,,,,,,,,,,,,,,,,,,,,ピク　パツ　ドキ　ルピン,パツ　ピク　ドキ　ルピン,1
,,,,,,,,,R_1jOkqhkzWX4GFfj,2022-09-01_19h37.13.165,jpn_C02,2022.1.2,Win32,59.87306909,,,,,,,,,,,,,CartoonStims/doctor_kick_chef_r.jpg,,,,,,,,,,,,,,,,,,,,,,,,,,,,,,,セル　ピポ　ホレト,right,6.3262,,,,,,0,16,16,25,1,,,,,,,,,,,,,,,,,,,,,,,,,セル　ピポ　ホレト,セル　ピポ　ホレト,0
,,,,,,,,,R_1jOkqhkzWX4GFfj,2022-09-01_19h37.13.165,jpn_C02,2022.1.2,Win32,59.87306909,,,,,,,,,,,,,CartoonStims/chef_point_cowboy_r_no.jpg,,,,,,,,,,,,,,,,,,,,,,,,,,,,,,,ピク　トマ　ホレト　ムク,right,12.6918,,,,,,0,17,17,8,1,,,,,,,,,,,,,,,,,,,,,,,,,ピク　トマ　ホレト　ムク,トマ　ピク　ホレト　ムク,1
,,,,,,,,,R_1jOkqhkzWX4GFfj,2022-09-01_19h37.13.165,jpn_C02,2022.1.2,Win32,59.87306909,,,,,,,,,,,,,CartoonStims/artist_kick_boxer_r_no.jpg,,,,,,,,,,,,,,,,,,,,,,,,,,,,,,,ピク　セル　シド　ドキ,right,7.9213,,,,,,0,18,18,0,1,,,,,,,,,,,,,,,,,,,,,,,,,ピク　セル　シド　ドキ,セル　ピク　シド　ドキ,1
,,,,,,,,,R_1jOkqhkzWX4GFfj,2022-09-01_19h37.13.165,jpn_C02,2022.1.2,Win32,59.87306909,,,,,,,,,,,,,CartoonStims/burglar_point_artist_r.jpg,,,,,,,,,,,,,,,,,,,,,,,,,,,,,,,トマ　ルピン　シド,right,7.4918,,,,,,0,19,19,28,1,,,,,,,,,,,,,,,,,,,,,,,,,トマ　ルピン　シド,トマ　ルピン　シド,0
,,,,,,,,,R_1jOkqhkzWX4GFfj,2022-09-01_19h37.13.165,jpn_C02,2022.1.2,Win32,59.87306909,,,,,,,,,,,,,CartoonStims/doctor_kick_cowboy_r_no.jpg,,,,,,,,,,,,,,,,,,,,,,,,,,,,,,,ピク　セル　ピポ　ムク,right,12.2631,,,,,,0,20,20,4,1,,,,,,,,,,,,,,,,,,,,,,,,,ピク　セル　ピポ　ムク,セル　ピク　ピポ　ムク,1
,,,,,,,,,R_1jOkqhkzWX4GFfj,2022-09-01_19h37.13.165,jpn_C02,2022.1.2,Win32,59.87306909,,,,,,,,,,,,,CartoonStims/chef_point_burglar_r.jpg,,,,,,,,,,,,,,,,,,,,,,,,,,,,,,,トマ　ホレト　ルピン,right,7.1524,,,,,,0,21,21,29,1,,,,,,,,,,,,,,,,,,,,,,,,,トマ　ホレト　ルピン,トマ　ホレト　ルピン,0
,,,,,,,,,R_1jOkqhkzWX4GFfj,2022-09-01_19h37.13.165,jpn_C02,2022.1.2,Win32,59.87306909,,,,,,,,,,,,,CartoonStims/burglar_point_chef_r_no.jpg,,,,,,,,,,,,,,,,,,,,,,,,,,,,,,,ピク　トマ　ルピン　ホレト,right,18.8926,,,,,,0,22,22,7,1,,,,,,,,,,,,,,,,,,,,,,,,,ピク　トマ　ルピン　ホレト,トマ　ピク　ルピン　ホレト,1
,,,,,,,,,R_1jOkqhkzWX4GFfj,2022-09-01_19h37.13.165,jpn_C02,2022.1.2,Win32,59.87306909,,,,,,,,,,,,,CartoonStims/cowboy_kick_burglar_r.jpg,,,,,,,,,,,,,,,,,,,,,,,,,,,,,,,セル　ムク　ルピン,right,15.816,,,,,,0,23,23,24,1,,,,,,,,,,,,,,,,,,,,,,,,,セル　ムク　ルピン,セル　ムク　ルピン,0
,,,,,,,,,R_1jOkqhkzWX4GFfj,2022-09-01_19h37.13.165,jpn_C02,2022.1.2,Win32,59.87306909,,,,,,,,,,,,,CartoonStims/cowboy_punch_artist_r_no.jpg,,,,,,,,,,,,,,,,,,,,,,,,,,,,,,,ピク　プミ　ムク　シド,right,10.526,,,,,,0,24,24,21,1,,,,,,,,,,,,,,,,,,,,,,,,,ピク　プミ　ムク　シド,プミ　ピク　ムク　シド,1
,,,,,,,,,R_1jOkqhkzWX4GFfj,2022-09-01_19h37.13.165,jpn_C02,2022.1.2,Win32,59.87306909,,,,,,,,,,,,,CartoonStims/burglar_shoot_chef_r.jpg,,,,,,,,,,,,,,,,,,,,,,,,,,,,,,,パツ　ルピン　ホレト,right,14.7004,,,,,,0,25,25,30,1,,,,,,,,,,,,,,,,,,,,,,,,,パツ　ルピン　ホレト,パツ　ルピン　ホレト,0
,,,,,,,,,R_1jOkqhkzWX4GFfj,2022-09-01_19h37.13.165,jpn_C02,2022.1.2,Win32,59.87306909,,,,,,,,,,,,,CartoonStims/cowboy_kick_chef_r_no.jpg,,,,,,,,,,,,,,,,,,,,,,,,,,,,,,,ピク　セル　ムク　ホレト,right,10.5977,,,,,,0,26,26,3,1,,,,,,,,,,,,,,,,,,,,,,,,,ピク　セル　ムク　ホレト,セル　ピク　ムク　ホレト,1
,,,,,,,,,R_1jOkqhkzWX4GFfj,2022-09-01_19h37.13.165,jpn_C02,2022.1.2,Win32,59.87306909,,,,,,,,,,,,,CartoonStims/cowboy_shoot_doctor_r.jpg,,,,,,,,,,,,,,,,,,,,,,,,,,,,,,,パツ　ムク　ピポ,right,7.6135,,,,,,0,27,27,32,1,,,,,,,,,,,,,,,,,,,,,,,,,パツ　ムク　ピポ,パツ　ムク　ピポ,0
,,,,,,,,,R_1jOkqhkzWX4GFfj,2022-09-01_19h37.13.165,jpn_C02,2022.1.2,Win32,59.87306909,,,,,,,,,,,,,CartoonStims/boxer_point_artist_r_no.jpg,,,,,,,,,,,,,,,,,,,,,,,,,,,,,,,ピク　トマ　ドキ　シド,right,9.0168,,,,,,0,28,28,11,1,,,,,,,,,,,,,,,,,,,,,,,,,ピク　トマ　ドキ　シド,トマ　ピク　ドキ　シド,1
,,,,,,,,,R_1jOkqhkzWX4GFfj,2022-09-01_19h37.13.165,jpn_C02,2022.1.2,Win32,59.87306909,,,,,,,,,,,,,CartoonStims/boxer_punch_artist_r.jpg,,,,,,,,,,,,,,,,,,,,,,,,,,,,,,,プミ　ドキ　シド,right,5.4009,,,,,,0,29,29,35,1,,,,,,,,,,,,,,,,,,,,,,,,,プミ　ドキ　シド,プミ　ドキ　シド,0
,,,,,,,,,R_1jOkqhkzWX4GFfj,2022-09-01_19h37.13.165,jpn_C02,2022.1.2,Win32,59.87306909,,,,,,,,,,,,,CartoonStims/chef_shoot_doctor_r_no.jpg,,,,,,,,,,,,,,,,,,,,,,,,,,,,,,,ピク　パツ　ホレト　ピポ,right,8.0194,,,,,,0,30,30,14,1,,,,,,,,,,,,,,,,,,,,,,,,,ピク　パツ　ホレト　ピポ,パツ　ピク　ホレト　ピポ,1
,,,,,,,,,R_1jOkqhkzWX4GFfj,2022-09-01_19h37.13.165,jpn_C02,2022.1.2,Win32,59.87306909,,,,,,,,,,,,,CartoonStims/doctor_shoot_artist_r_no.jpg,,,,,,,,,,,,,,,,,,,,,,,,,,,,,,,ピク　パツ　ピポ　シド,right,11.8088,,,,,,0,31,31,16,1,,,,,,,,,,,,,,,,,,,,,,,,,ピク　パツ　ピポ　シド,パツ　ピク　ピポ　シド,1
,,,,,,,,,R_1jOkqhkzWX4GFfj,2022-09-01_19h37.13.165,jpn_C02,2022.1.2,Win32,59.87306909,,,,,,,,,,,,,CartoonStims/artist_punch_burglar_r.jpg,,,,,,,,,,,,,,,,,,,,,,,,,,,,,,,プミ　シド　ルピン,right,7.5275,,,,,,0,32,32,33,1,,,,,,,,,,,,,,,,,,,,,,,,,プミ　シド　ルピン,プミ　シド　ルピン,0
,,,,,,,,,R_1jOkqhkzWX4GFfj,2022-09-01_19h37.13.165,jpn_C02,2022.1.2,Win32,59.87306909,,,,,,,,,,,,,CartoonStims/cowboy_shoot_boxer_r_no.jpg,,,,,,,,,,,,,,,,,,,,,,,,,,,,,,,ピク　パツ　ムク　ドキ,right,8.0227,,,,,,0,33,33,15,1,,,,,,,,,,,,,,,,,,,,,,,,,ピク　パツ　ムク　ドキ,パツ　ピク　ムク　ドキ,1
,,,,,,,,,R_1jOkqhkzWX4GFfj,2022-09-01_19h37.13.165,jpn_C02,2022.1.2,Win32,59.87306909,,,,,,,,,,,,,CartoonStims/boxer_kick_doctor_r_no.jpg,,,,,,,,,,,,,,,,,,,,,,,,,,,,,,,ピク　セル　ドキ　ピポ,right,7.749,,,,,,0,34,34,5,1,,,,,,,,,,,,,,,,,,,,,,,,,ピク　セル　ドキ　ピポ,セル　ピク　ドキ　ピポ,1
,,,,,,,,,R_1jOkqhkzWX4GFfj,2022-09-01_19h37.13.165,jpn_C02,2022.1.2,Win32,59.87306909,,,,,,,,,,,,,CartoonStims/burglar_kick_artist_r_no.jpg,,,,,,,,,,,,,,,,,,,,,,,,,,,,,,,ピク　セル　ルピン　シド,right,9.1815,,,,,,0,35,35,1,1,,,,,,,,,,,,,,,,,,,,,,,,,ピク　セル　ルピン　シド,セル　ピク　ルピン　シド,1
,,,,,,,,,R_1jOkqhkzWX4GFfj,2022-09-01_19h37.13.165,jpn_C02,2022.1.2,Win32,59.87306909,,,,,,,,,,,,,,,,,,,,,,,,,,,,,,,,,,,,,,,,,,,,,,,,,,,,,,,,,,,space,4.0738,0,2,2,2,1,NegVCondition.xlsx,"ここではこの言語における否定の文を学習していただきます。引き続き注意して、 聞こえた音を復唱してください。

スペースキーを押してください。",1,NegVFCT.xlsx,ここからクイズが始まります。 スクリーンに表示されるテキストに合うイメージを選んでください。,NegTest.xlsx,1,最後にここまで学んだことをアウトプットしていただきます。 テキストボックスにあるイメージを描写するテキストを入力してください。 このタスクでは、 答え合わせは行いません。,0,これですべての実験が終わりました。 お疲れさまです。 この後はアンケートに答えていただきます。,,,,,,,,