key_resp_instr_a.keys,key_resp_instr_a.rt,key_resp_instr_b.keys,key_resp_instr_b.rt,dummy.thisRepN,dummy.thisTrialN,dummy.thisN,dummy.thisIndex,dummy.ran,participant,date,expName,psychopyVersion,OS,frameRate,key_resp_instr1.keys,key_resp_instr1.rt,key_resp.keys,key_resp.rt,exp_loop.thisRepN,exp_loop.thisTrialN,exp_loop.thisN,exp_loop.thisIndex,exp_loop.ran,Word,English,Flip,Path,Audio,key_resp_instr2.keys,key_resp_instr2.rt,key_resp_fct.keys,key_resp_fct.corr,key_resp_fct.rt,trials.thisRepN,trials.thisTrialN,trials.thisN,trials.thisIndex,trials.ran,fct_loop.thisRepN,fct_loop.thisTrialN,fct_loop.thisN,fct_loop.thisIndex,fct_loop.ran,left_img,word,right_img,correctans,correct_img,audio,incorrect_feedback,trials_2.thisRepN,trials_2.thisTrialN,trials_2.thisN,trials_2.thisIndex,trials_2.ran,key_resp_instr3.keys,key_resp_instr3.rt,textbox.text,key_resp_2.keys,key_resp_2.rt,fb_yn.thisRepN,fb_yn.thisTrialN,fb_yn.thisN,fb_yn.thisIndex,fb_yn.ran,gather_loop.thisRepN,gather_loop.thisTrialN,gather_loop.thisN,gather_loop.thisIndex,gather_loop.ran,Text,Wordbank,key_resp_instr4.keys,key_resp_instr4.rt,master_loop.thisRepN,master_loop.thisTrialN,master_loop.thisN,master_loop.thisIndex,master_loop.ran,exposure_file,instr_1,exp_reps,fct_file,instr_2,gather_file,gather_reps,instr_3,fReps,instr_4,trials_3.thisRepN,trials_3.thisTrialN,trials_3.thisN,trials_3.thisIndex,trials_3.ran,NegVSentence,VNegSentence,NegTF
space,5.919,space,12.375,0,0,0,0,1,R_11Xw7Ti6WhciWxA,2022-07-04_17h26.29.261,jpn_C02,2022.1.2,Win32,60.0240096,,,,,,,,,,,,,,,,,,,,,,,,,,,,,,,,,,,,,,,,,,,,,,,,,,,,,,,,,,,,,,,,,,,,,,,,,,,,,,,,,,,
,,,,,,,,,R_11Xw7Ti6WhciWxA,2022-07-04_17h26.29.261,jpn_C02,2022.1.2,Win32,60.0240096,space,9.812,space,5.012,0,0,0,5,1,ドキ,boxer,,CartoonStims/boxer_r.jpg,audio/doki.mp3,,,,,,,,,,,,,,,,,,,,,,,,,,,,,,,,,,,,,,,,,,,,,,,,,,,,,,,,,,,,,,,,,,,,,
,,,,,,,,,R_11Xw7Ti6WhciWxA,2022-07-04_17h26.29.261,jpn_C02,2022.1.2,Win32,60.0240096,,,space,6.977,0,1,1,2,1,ホレト,chef,,CartoonStims/chef_r.jpg,audio/horeto.mp3,,,,,,,,,,,,,,,,,,,,,,,,,,,,,,,,,,,,,,,,,,,,,,,,,,,,,,,,,,,,,,,,,,,,,
,,,,,,,,,R_11Xw7Ti6WhciWxA,2022-07-04_17h26.29.261,jpn_C02,2022.1.2,Win32,60.0240096,,,space,6.93,0,2,2,3,1,ムク,cowboy,,CartoonStims/cowboy_r.jpg,audio/muku.mp3,,,,,,,,,,,,,,,,,,,,,,,,,,,,,,,,,,,,,,,,,,,,,,,,,,,,,,,,,,,,,,,,,,,,,
,,,,,,,,,R_11Xw7Ti6WhciWxA,2022-07-04_17h26.29.261,jpn_C02,2022.1.2,Win32,60.0240096,,,space,5.364,0,3,3,0,1,シド,artist,,CartoonStims/artist_r.jpg,audio/sido.mp3,,,,,,,,,,,,,,,,,,,,,,,,,,,,,,,,,,,,,,,,,,,,,,,,,,,,,,,,,,,,,,,,,,,,,
,,,,,,,,,R_11Xw7Ti6WhciWxA,2022-07-04_17h26.29.261,jpn_C02,2022.1.2,Win32,60.0240096,,,space,3.52,0,4,4,1,1,ルピン,burglar,,CartoonStims/burglar_r.jpg,audio/lupin.mp3,,,,,,,,,,,,,,,,,,,,,,,,,,,,,,,,,,,,,,,,,,,,,,,,,,,,,,,,,,,,,,,,,,,,,
,,,,,,,,,R_11Xw7Ti6WhciWxA,2022-07-04_17h26.29.261,jpn_C02,2022.1.2,Win32,60.0240096,,,space,6.534,0,5,5,4,1,ピポ,doctor,,CartoonStims/doctor_r.jpg,audio/pipo.mp3,,,,,,,,,,,,,,,,,,,,,,,,,,,,,,,,,,,,,,,,,,,,,,,,,,,,,,,,,,,,,,,,,,,,,
,,,,,,,,,R_11Xw7Ti6WhciWxA,2022-07-04_17h26.29.261,jpn_C02,2022.1.2,Win32,60.0240096,,,space,2.697,1,0,6,4,1,ピポ,doctor,,CartoonStims/doctor_r.jpg,audio/pipo.mp3,,,,,,,,,,,,,,,,,,,,,,,,,,,,,,,,,,,,,,,,,,,,,,,,,,,,,,,,,,,,,,,,,,,,,
,,,,,,,,,R_11Xw7Ti6WhciWxA,2022-07-04_17h26.29.261,jpn_C02,2022.1.2,Win32,60.0240096,,,space,3.699,1,1,7,2,1,ホレト,chef,,CartoonStims/chef_r.jpg,audio/horeto.mp3,,,,,,,,,,,,,,,,,,,,,,,,,,,,,,,,,,,,,,,,,,,,,,,,,,,,,,,,,,,,,,,,,,,,,
,,,,,,,,,R_11Xw7Ti6WhciWxA,2022-07-04_17h26.29.261,jpn_C02,2022.1.2,Win32,60.0240096,,,space,5.213,1,2,8,3,1,ムク,cowboy,,CartoonStims/cowboy_r.jpg,audio/muku.mp3,,,,,,,,,,,,,,,,,,,,,,,,,,,,,,,,,,,,,,,,,,,,,,,,,,,,,,,,,,,,,,,,,,,,,
,,,,,,,,,R_11Xw7Ti6WhciWxA,2022-07-04_17h26.29.261,jpn_C02,2022.1.2,Win32,60.0240096,,,space,3.897,1,3,9,0,1,シド,artist,,CartoonStims/artist_r.jpg,audio/sido.mp3,,,,,,,,,,,,,,,,,,,,,,,,,,,,,,,,,,,,,,,,,,,,,,,,,,,,,,,,,,,,,,,,,,,,,
,,,,,,,,,R_11Xw7Ti6WhciWxA,2022-07-04_17h26.29.261,jpn_C02,2022.1.2,Win32,60.0240096,,,space,1.017,1,4,10,1,1,ルピン,burglar,,CartoonStims/burglar_r.jpg,audio/lupin.mp3,,,,,,,,,,,,,,,,,,,,,,,,,,,,,,,,,,,,,,,,,,,,,,,,,,,,,,,,,,,,,,,,,,,,,
,,,,,,,,,R_11Xw7Ti6WhciWxA,2022-07-04_17h26.29.261,jpn_C02,2022.1.2,Win32,60.0240096,,,space,2.484,1,5,11,5,1,ドキ,boxer,,CartoonStims/boxer_r.jpg,audio/doki.mp3,,,,,,,,,,,,,,,,,,,,,,,,,,,,,,,,,,,,,,,,,,,,,,,,,,,,,,,,,,,,,,,,,,,,,
,,,,,,,,,R_11Xw7Ti6WhciWxA,2022-07-04_17h26.29.261,jpn_C02,2022.1.2,Win32,60.0240096,,,space,1.353,2,0,12,3,1,ムク,cowboy,,CartoonStims/cowboy_r.jpg,audio/muku.mp3,,,,,,,,,,,,,,,,,,,,,,,,,,,,,,,,,,,,,,,,,,,,,,,,,,,,,,,,,,,,,,,,,,,,,
,,,,,,,,,R_11Xw7Ti6WhciWxA,2022-07-04_17h26.29.261,jpn_C02,2022.1.2,Win32,60.0240096,,,space,1.15,2,1,13,1,1,ルピン,burglar,,CartoonStims/burglar_r.jpg,audio/lupin.mp3,,,,,,,,,,,,,,,,,,,,,,,,,,,,,,,,,,,,,,,,,,,,,,,,,,,,,,,,,,,,,,,,,,,,,
,,,,,,,,,R_11Xw7Ti6WhciWxA,2022-07-04_17h26.29.261,jpn_C02,2022.1.2,Win32,60.0240096,,,space,8.461,2,2,14,4,1,ピポ,doctor,,CartoonStims/doctor_r.jpg,audio/pipo.mp3,,,,,,,,,,,,,,,,,,,,,,,,,,,,,,,,,,,,,,,,,,,,,,,,,,,,,,,,,,,,,,,,,,,,,
,,,,,,,,,R_11Xw7Ti6WhciWxA,2022-07-04_17h26.29.261,jpn_C02,2022.1.2,Win32,60.0240096,,,space,1.483,2,3,15,0,1,シド,artist,,CartoonStims/artist_r.jpg,audio/sido.mp3,,,,,,,,,,,,,,,,,,,,,,,,,,,,,,,,,,,,,,,,,,,,,,,,,,,,,,,,,,,,,,,,,,,,,
,,,,,,,,,R_11Xw7Ti6WhciWxA,2022-07-04_17h26.29.261,jpn_C02,2022.1.2,Win32,60.0240096,,,space,0.701,2,4,16,5,1,ドキ,boxer,,CartoonStims/boxer_r.jpg,audio/doki.mp3,,,,,,,,,,,,,,,,,,,,,,,,,,,,,,,,,,,,,,,,,,,,,,,,,,,,,,,,,,,,,,,,,,,,,
,,,,,,,,,R_11Xw7Ti6WhciWxA,2022-07-04_17h26.29.261,jpn_C02,2022.1.2,Win32,60.0240096,,,space,2.15,2,5,17,2,1,ホレト,chef,,CartoonStims/chef_r.jpg,audio/horeto.mp3,,,,,,,,,,,,,,,,,,,,,,,,,,,,,,,,,,,,,,,,,,,,,,,,,,,,,,,,,,,,,,,,,,,,,
,,,,,,,,,R_11Xw7Ti6WhciWxA,2022-07-04_17h26.29.261,jpn_C02,2022.1.2,Win32,60.0240096,,,,,,,,,,,,,,,space,0.903,left,1,1.9,0,0,0,0,1,,,,,,,,,,,,,,,,,,,,,,,,,,,,,,,,,,,,,,,,,,,,,,,,,,,,,,,,,,,
,,,,,,,,,R_11Xw7Ti6WhciWxA,2022-07-04_17h26.29.261,jpn_C02,2022.1.2,Win32,60.0240096,,,,,,,,,,,,,,,,,,,,,,,,,0,0,0,2,1,CartoonStims/chef_r.jpg,ホレト,CartoonStims/cowboy_r.jpg,left,CartoonStims/chef_r.jpg,audio/horeto.mp3,残念！ こちらが正しい画像です。,,,,,,,,,,,,,,,,,,,,,,,,,,,,,,,,,,,,,,,,,,,,,,,
,,,,,,,,,R_11Xw7Ti6WhciWxA,2022-07-04_17h26.29.261,jpn_C02,2022.1.2,Win32,60.0240096,,,,,,,,,,,,,,,,,left,1,0.652,0,0,0,0,1,,,,,,,,,,,,,,,,,,,,,,,,,,,,,,,,,,,,,,,,,,,,,,,,,,,,,,,,,,,
,,,,,,,,,R_11Xw7Ti6WhciWxA,2022-07-04_17h26.29.261,jpn_C02,2022.1.2,Win32,60.0240096,,,,,,,,,,,,,,,,,,,,,,,,,0,1,1,1,1,CartoonStims/burglar_r.jpg,ルピン,CartoonStims/chef_r.jpg,left,CartoonStims/burglar_r.jpg,audio/lupin.mp3,残念！ こちらが正しい画像です。,,,,,,,,,,,,,,,,,,,,,,,,,,,,,,,,,,,,,,,,,,,,,,,
,,,,,,,,,R_11Xw7Ti6WhciWxA,2022-07-04_17h26.29.261,jpn_C02,2022.1.2,Win32,60.0240096,,,,,,,,,,,,,,,,,right,1,0.967,,,,,,,,,,,,,,,,,,0,0,0,0,1,,,,,,,,,,,,,,,,,,,,,,,,,,,,,,,,,,,,,,,,,,
,,,,,,,,,R_11Xw7Ti6WhciWxA,2022-07-04_17h26.29.261,jpn_C02,2022.1.2,Win32,60.0240096,,,,,,,,,,,,,,,,,,,,,,,,,0,2,2,8,1,CartoonStims/doctor_r.jpg,ホレト,CartoonStims/chef_r.jpg,right,CartoonStims/chef_r.jpg,audio/horeto.mp3,残念！ こちらが正しい画像です。,,,,,,,,,,,,,,,,,,,,,,,,,,,,,,,,,,,,,,,,,,,,,,,
,,,,,,,,,R_11Xw7Ti6WhciWxA,2022-07-04_17h26.29.261,jpn_C02,2022.1.2,Win32,60.0240096,,,,,,,,,,,,,,,,,left,1,0.5,0,0,0,0,1,,,,,,,,,,,,,,,,,,,,,,,,,,,,,,,,,,,,,,,,,,,,,,,,,,,,,,,,,,,
,,,,,,,,,R_11Xw7Ti6WhciWxA,2022-07-04_17h26.29.261,jpn_C02,2022.1.2,Win32,60.0240096,,,,,,,,,,,,,,,,,,,,,,,,,0,3,3,5,1,CartoonStims/boxer_r.jpg,ドキ,CartoonStims/artist_r.jpg,left,CartoonStims/boxer_r.jpg,audio/doki.mp3,残念！ こちらが正しい画像です。,,,,,,,,,,,,,,,,,,,,,,,,,,,,,,,,,,,,,,,,,,,,,,,
,,,,,,,,,R_11Xw7Ti6WhciWxA,2022-07-04_17h26.29.261,jpn_C02,2022.1.2,Win32,60.0240096,,,,,,,,,,,,,,,,,right,1,0.635,,,,,,,,,,,,,,,,,,0,0,0,0,1,,,,,,,,,,,,,,,,,,,,,,,,,,,,,,,,,,,,,,,,,,
,,,,,,,,,R_11Xw7Ti6WhciWxA,2022-07-04_17h26.29.261,jpn_C02,2022.1.2,Win32,60.0240096,,,,,,,,,,,,,,,,,,,,,,,,,0,4,4,6,1,CartoonStims/chef_r.jpg,シド,CartoonStims/artist_r.jpg,right,CartoonStims/artist_r.jpg,audio/sido.mp3,残念！ こちらが正しい画像です。,,,,,,,,,,,,,,,,,,,,,,,,,,,,,,,,,,,,,,,,,,,,,,,
,,,,,,,,,R_11Xw7Ti6WhciWxA,2022-07-04_17h26.29.261,jpn_C02,2022.1.2,Win32,60.0240096,,,,,,,,,,,,,,,,,right,1,0.785,,,,,,,,,,,,,,,,,,0,0,0,0,1,,,,,,,,,,,,,,,,,,,,,,,,,,,,,,,,,,,,,,,,,,
,,,,,,,,,R_11Xw7Ti6WhciWxA,2022-07-04_17h26.29.261,jpn_C02,2022.1.2,Win32,60.0240096,,,,,,,,,,,,,,,,,,,,,,,,,0,5,5,10,1,CartoonStims/artist_r.jpg,ピポ,CartoonStims/doctor_r.jpg,right,CartoonStims/doctor_r.jpg,audio/pipo.mp3,残念！ こちらが正しい画像です。,,,,,,,,,,,,,,,,,,,,,,,,,,,,,,,,,,,,,,,,,,,,,,,
,,,,,,,,,R_11Xw7Ti6WhciWxA,2022-07-04_17h26.29.261,jpn_C02,2022.1.2,Win32,60.0240096,,,,,,,,,,,,,,,,,left,1,0.566,0,0,0,0,1,,,,,,,,,,,,,,,,,,,,,,,,,,,,,,,,,,,,,,,,,,,,,,,,,,,,,,,,,,,
,,,,,,,,,R_11Xw7Ti6WhciWxA,2022-07-04_17h26.29.261,jpn_C02,2022.1.2,Win32,60.0240096,,,,,,,,,,,,,,,,,,,,,,,,,0,6,6,4,1,CartoonStims/doctor_r.jpg,ピポ,CartoonStims/boxer_r.jpg,left,CartoonStims/doctor_r.jpg,audio/pipo.mp3,残念！ こちらが正しい画像です。,,,,,,,,,,,,,,,,,,,,,,,,,,,,,,,,,,,,,,,,,,,,,,,
,,,,,,,,,R_11Xw7Ti6WhciWxA,2022-07-04_17h26.29.261,jpn_C02,2022.1.2,Win32,60.0240096,,,,,,,,,,,,,,,,,right,1,1.051,,,,,,,,,,,,,,,,,,0,0,0,0,1,,,,,,,,,,,,,,,,,,,,,,,,,,,,,,,,,,,,,,,,,,
,,,,,,,,,R_11Xw7Ti6WhciWxA,2022-07-04_17h26.29.261,jpn_C02,2022.1.2,Win32,60.0240096,,,,,,,,,,,,,,,,,,,,,,,,,0,7,7,9,1,CartoonStims/boxer_r.jpg,ムク,CartoonStims/cowboy_r.jpg,right,CartoonStims/cowboy_r.jpg,audio/muku.mp3,残念！ こちらが正しい画像です。,,,,,,,,,,,,,,,,,,,,,,,,,,,,,,,,,,,,,,,,,,,,,,,
,,,,,,,,,R_11Xw7Ti6WhciWxA,2022-07-04_17h26.29.261,jpn_C02,2022.1.2,Win32,60.0240096,,,,,,,,,,,,,,,,,left,1,0.59,0,0,0,0,1,,,,,,,,,,,,,,,,,,,,,,,,,,,,,,,,,,,,,,,,,,,,,,,,,,,,,,,,,,,
,,,,,,,,,R_11Xw7Ti6WhciWxA,2022-07-04_17h26.29.261,jpn_C02,2022.1.2,Win32,60.0240096,,,,,,,,,,,,,,,,,,,,,,,,,0,8,8,3,1,CartoonStims/cowboy_r.jpg,ムク,CartoonStims/doctor_r.jpg,left,CartoonStims/cowboy_r.jpg,audio/muku.mp3,残念！ こちらが正しい画像です。,,,,,,,,,,,,,,,,,,,,,,,,,,,,,,,,,,,,,,,,,,,,,,,
,,,,,,,,,R_11Xw7Ti6WhciWxA,2022-07-04_17h26.29.261,jpn_C02,2022.1.2,Win32,60.0240096,,,,,,,,,,,,,,,,,right,1,0.651,,,,,,,,,,,,,,,,,,0,0,0,0,1,,,,,,,,,,,,,,,,,,,,,,,,,,,,,,,,,,,,,,,,,,
,,,,,,,,,R_11Xw7Ti6WhciWxA,2022-07-04_17h26.29.261,jpn_C02,2022.1.2,Win32,60.0240096,,,,,,,,,,,,,,,,,,,,,,,,,0,9,9,11,1,CartoonStims/burglar_r.jpg,ドキ,CartoonStims/boxer_r.jpg,right,CartoonStims/boxer_r.jpg,audio/doki.mp3,残念！ こちらが正しい画像です。,,,,,,,,,,,,,,,,,,,,,,,,,,,,,,,,,,,,,,,,,,,,,,,
,,,,,,,,,R_11Xw7Ti6WhciWxA,2022-07-04_17h26.29.261,jpn_C02,2022.1.2,Win32,60.0240096,,,,,,,,,,,,,,,,,right,1,0.367,,,,,,,,,,,,,,,,,,0,0,0,0,1,,,,,,,,,,,,,,,,,,,,,,,,,,,,,,,,,,,,,,,,,,
,,,,,,,,,R_11Xw7Ti6WhciWxA,2022-07-04_17h26.29.261,jpn_C02,2022.1.2,Win32,60.0240096,,,,,,,,,,,,,,,,,,,,,,,,,0,10,10,7,1,CartoonStims/cowboy_r.jpg,ルピン,CartoonStims/burglar_r.jpg,right,CartoonStims/burglar_r.jpg,audio/lupin.mp3,残念！ こちらが正しい画像です。,,,,,,,,,,,,,,,,,,,,,,,,,,,,,,,,,,,,,,,,,,,,,,,
,,,,,,,,,R_11Xw7Ti6WhciWxA,2022-07-04_17h26.29.261,jpn_C02,2022.1.2,Win32,60.0240096,,,,,,,,,,,,,,,,,left,1,0.782,0,0,0,0,1,,,,,,,,,,,,,,,,,,,,,,,,,,,,,,,,,,,,,,,,,,,,,,,,,,,,,,,,,,,
,,,,,,,,,R_11Xw7Ti6WhciWxA,2022-07-04_17h26.29.261,jpn_C02,2022.1.2,Win32,60.0240096,,,,,,,,,,,,,,,,,,,,,,,,,0,11,11,0,1,CartoonStims/artist_r.jpg,シド,CartoonStims/burglar_r.jpg,left,CartoonStims/artist_r.jpg,audio/sido.mp3,残念！ こちらが正しい画像です。,,,,,,,,,,,,,,,,,,,,,,,,,,,,,,,,,,,,,,,,,,,,,,,
,,,,,,,,,R_11Xw7Ti6WhciWxA,2022-07-04_17h26.29.261,jpn_C02,2022.1.2,Win32,60.0240096,,,,,,,,,,,,,,,,,,,,,,,,,,,,,,,,,,,,,,,,,,space,4.898,ドキ,right,12.535,0,0,0,0,1,,,,,,,,,,,,,,,,,,,,,,,,,,,,,,,,
,,,,,,,,,R_11Xw7Ti6WhciWxA,2022-07-04_17h26.29.261,jpn_C02,2022.1.2,Win32,60.0240096,,,,,,,,,,,,,CartoonStims/boxer_r.jpg,audio/doki.mp3,,,,,,,,,,,,,,,,,,,,,,,,,,,,,,,,,,,,,,0,0,0,5,1,ドキ,,,,,,,,,,,,,,,,,,,,,,,,,,
,,,,,,,,,R_11Xw7Ti6WhciWxA,2022-07-04_17h26.29.261,jpn_C02,2022.1.2,Win32,60.0240096,,,,,,,,,,,,,,,,,,,,,,,,,,,,,,,,,,,,,,,,,,,,ピポ,right,5.969,0,0,0,0,1,,,,,,,,,,,,,,,,,,,,,,,,,,,,,,,,
,,,,,,,,,R_11Xw7Ti6WhciWxA,2022-07-04_17h26.29.261,jpn_C02,2022.1.2,Win32,60.0240096,,,,,,,,,,,,,CartoonStims/doctor_r.jpg,audio/pipo.mp3,,,,,,,,,,,,,,,,,,,,,,,,,,,,,,,,,,,,,,0,1,1,4,1,ピポ,,,,,,,,,,,,,,,,,,,,,,,,,,
,,,,,,,,,R_11Xw7Ti6WhciWxA,2022-07-04_17h26.29.261,jpn_C02,2022.1.2,Win32,60.0240096,,,,,,,,,,,,,,,,,,,,,,,,,,,,,,,,,,,,,,,,,,,,ホレト,right,4.877,0,0,0,0,1,,,,,,,,,,,,,,,,,,,,,,,,,,,,,,,,
,,,,,,,,,R_11Xw7Ti6WhciWxA,2022-07-04_17h26.29.261,jpn_C02,2022.1.2,Win32,60.0240096,,,,,,,,,,,,,CartoonStims/chef_r.jpg,audio/horeto.mp3,,,,,,,,,,,,,,,,,,,,,,,,,,,,,,,,,,,,,,0,2,2,2,1,ホレト,,,,,,,,,,,,,,,,,,,,,,,,,,
,,,,,,,,,R_11Xw7Ti6WhciWxA,2022-07-04_17h26.29.261,jpn_C02,2022.1.2,Win32,60.0240096,,,,,,,,,,,,,,,,,,,,,,,,,,,,,,,,,,,,,,,,,,,,ルピン,right,4.954,0,0,0,0,1,,,,,,,,,,,,,,,,,,,,,,,,,,,,,,,,
,,,,,,,,,R_11Xw7Ti6WhciWxA,2022-07-04_17h26.29.261,jpn_C02,2022.1.2,Win32,60.0240096,,,,,,,,,,,,,CartoonStims/burglar_r.jpg,audio/lupin.mp3,,,,,,,,,,,,,,,,,,,,,,,,,,,,,,,,,,,,,,0,3,3,1,1,ルピン,,,,,,,,,,,,,,,,,,,,,,,,,,
,,,,,,,,,R_11Xw7Ti6WhciWxA,2022-07-04_17h26.29.261,jpn_C02,2022.1.2,Win32,60.0240096,,,,,,,,,,,,,,,,,,,,,,,,,,,,,,,,,,,,,,,,,,,,ムク,right,3.923,0,0,0,0,1,,,,,,,,,,,,,,,,,,,,,,,,,,,,,,,,
,,,,,,,,,R_11Xw7Ti6WhciWxA,2022-07-04_17h26.29.261,jpn_C02,2022.1.2,Win32,60.0240096,,,,,,,,,,,,,CartoonStims/cowboy_r.jpg,audio/muku.mp3,,,,,,,,,,,,,,,,,,,,,,,,,,,,,,,,,,,,,,0,4,4,3,1,ムク,,,,,,,,,,,,,,,,,,,,,,,,,,
,,,,,,,,,R_11Xw7Ti6WhciWxA,2022-07-04_17h26.29.261,jpn_C02,2022.1.2,Win32,60.0240096,,,,,,,,,,,,,,,,,,,,,,,,,,,,,,,,,,,,,,,,,,,,シド,right,3.961,0,0,0,0,1,,,,,,,,,,,,,,,,,,,,,,,,,,,,,,,,
,,,,,,,,,R_11Xw7Ti6WhciWxA,2022-07-04_17h26.29.261,jpn_C02,2022.1.2,Win32,60.0240096,,,,,,,,,,,,,CartoonStims/artist_r.jpg,audio/sido.mp3,,,,,,,,,,,,,,,,,,,,,,,,,,,,,,,,,,,,,,0,5,5,0,1,シド,,,,,,,,,,,,,,,,,,,,,,,,,,
,,,,,,,,,R_11Xw7Ti6WhciWxA,2022-07-04_17h26.29.261,jpn_C02,2022.1.2,Win32,60.0240096,,,,,,,,,,,,,,,,,,,,,,,,,,,,,,,,,,,,,,,,,,,,ムク,right,5.706,0,0,0,0,1,,,,,,,,,,,,,,,,,,,,,,,,,,,,,,,,
,,,,,,,,,R_11Xw7Ti6WhciWxA,2022-07-04_17h26.29.261,jpn_C02,2022.1.2,Win32,60.0240096,,,,,,,,,,,,,CartoonStims/cowboy_r.jpg,audio/muku.mp3,,,,,,,,,,,,,,,,,,,,,,,,,,,,,,,,,,,,,,1,0,6,3,1,ムク,,,,,,,,,,,,,,,,,,,,,,,,,,
,,,,,,,,,R_11Xw7Ti6WhciWxA,2022-07-04_17h26.29.261,jpn_C02,2022.1.2,Win32,60.0240096,,,,,,,,,,,,,,,,,,,,,,,,,,,,,,,,,,,,,,,,,,,,ホレト,right,3.866,0,0,0,0,1,,,,,,,,,,,,,,,,,,,,,,,,,,,,,,,,
,,,,,,,,,R_11Xw7Ti6WhciWxA,2022-07-04_17h26.29.261,jpn_C02,2022.1.2,Win32,60.0240096,,,,,,,,,,,,,CartoonStims/chef_r.jpg,audio/horeto.mp3,,,,,,,,,,,,,,,,,,,,,,,,,,,,,,,,,,,,,,1,1,7,2,1,ホレト,,,,,,,,,,,,,,,,,,,,,,,,,,
,,,,,,,,,R_11Xw7Ti6WhciWxA,2022-07-04_17h26.29.261,jpn_C02,2022.1.2,Win32,60.0240096,,,,,,,,,,,,,,,,,,,,,,,,,,,,,,,,,,,,,,,,,,,,ルピン,right,4.012,0,0,0,0,1,,,,,,,,,,,,,,,,,,,,,,,,,,,,,,,,
,,,,,,,,,R_11Xw7Ti6WhciWxA,2022-07-04_17h26.29.261,jpn_C02,2022.1.2,Win32,60.0240096,,,,,,,,,,,,,CartoonStims/burglar_r.jpg,audio/lupin.mp3,,,,,,,,,,,,,,,,,,,,,,,,,,,,,,,,,,,,,,1,2,8,1,1,ルピン,,,,,,,,,,,,,,,,,,,,,,,,,,
,,,,,,,,,R_11Xw7Ti6WhciWxA,2022-07-04_17h26.29.261,jpn_C02,2022.1.2,Win32,60.0240096,,,,,,,,,,,,,,,,,,,,,,,,,,,,,,,,,,,,,,,,,,,,シド,right,4.492,0,0,0,0,1,,,,,,,,,,,,,,,,,,,,,,,,,,,,,,,,
,,,,,,,,,R_11Xw7Ti6WhciWxA,2022-07-04_17h26.29.261,jpn_C02,2022.1.2,Win32,60.0240096,,,,,,,,,,,,,CartoonStims/artist_r.jpg,audio/sido.mp3,,,,,,,,,,,,,,,,,,,,,,,,,,,,,,,,,,,,,,1,3,9,0,1,シド,,,,,,,,,,,,,,,,,,,,,,,,,,
,,,,,,,,,R_11Xw7Ti6WhciWxA,2022-07-04_17h26.29.261,jpn_C02,2022.1.2,Win32,60.0240096,,,,,,,,,,,,,,,,,,,,,,,,,,,,,,,,,,,,,,,,,,,,ピポ,right,3.459,0,0,0,0,1,,,,,,,,,,,,,,,,,,,,,,,,,,,,,,,,
,,,,,,,,,R_11Xw7Ti6WhciWxA,2022-07-04_17h26.29.261,jpn_C02,2022.1.2,Win32,60.0240096,,,,,,,,,,,,,CartoonStims/doctor_r.jpg,audio/pipo.mp3,,,,,,,,,,,,,,,,,,,,,,,,,,,,,,,,,,,,,,1,4,10,4,1,ピポ,,,,,,,,,,,,,,,,,,,,,,,,,,
,,,,,,,,,R_11Xw7Ti6WhciWxA,2022-07-04_17h26.29.261,jpn_C02,2022.1.2,Win32,60.0240096,,,,,,,,,,,,,,,,,,,,,,,,,,,,,,,,,,,,,,,,,,,,ドキ,right,3.201,0,0,0,0,1,,,,,,,,,,,,,,,,,,,,,,,,,,,,,,,,
,,,,,,,,,R_11Xw7Ti6WhciWxA,2022-07-04_17h26.29.261,jpn_C02,2022.1.2,Win32,60.0240096,,,,,,,,,,,,,CartoonStims/boxer_r.jpg,audio/doki.mp3,,,,,,,,,,,,,,,,,,,,,,,,,,,,,,,,,,,,,,1,5,11,5,1,ドキ,,,,,,,,,,,,,,,,,,,,,,,,,,
,,,,,,,,,R_11Xw7Ti6WhciWxA,2022-07-04_17h26.29.261,jpn_C02,2022.1.2,Win32,60.0240096,,,,,,,,,,,,,,,,,,,,,,,,,,,,,,,,,,,,,,,,,,,,,,,,,,,,,,,,,,,space,3.798,0,0,0,0,1,NounExposure.xlsx,"最初のトライアルでは、 画像が表示され、 その画像の下に単語が出てきます。 またこの単語の音も聞くことができます。 この音を大きな声で復唱してください。 そしてこの画像がどのような単語を示しているのか, 考えてみてください。 その後、 続きのボタンを押すと次の単語の学習が始まります。

スペースキーを押して、学習を始めましょう。",3,NounFCT.xlsx,ここから語彙のクイズが始まります。スクリーンに表示される単語に合う画像をキーボードの右と左の矢印キーを使って選択してください。,NounTest.xlsx,2,次に、これまで学習してきたことをアウトプットしていただきます。 表示される画像を描写していると思う単語を、テキストボックスにタイプしてください。,1,"ここまでが最初のトライアルです。ここで休憩をとっても構いません。

休憩が済みましたら、スペースキーを押して続きを始めましょう。",,,,,,,,
,,,,,,,,,R_11Xw7Ti6WhciWxA,2022-07-04_17h26.29.261,jpn_C02,2022.1.2,Win32,60.0240096,space,8.728,space,3.78,0,0,0,16,1,トマ　ホレト　ピポ,,,CartoonStims/chef_point_doctor_r.jpg,audio/tomahoretopipo.mp3,,,,,,,,,,,,,,,,,,,,,,,,,,,,,,,,,,,,,,,,,,,,,,,,,,,,,,,,,,,,,,,,,,,,,
,,,,,,,,,R_11Xw7Ti6WhciWxA,2022-07-04_17h26.29.261,jpn_C02,2022.1.2,Win32,60.0240096,,,space,14.857,0,1,1,9,1,セル　ピポ　シド,,,CartoonStims/doctor_kick_artist_r.jpg,audio/serupiposido.mp3,,,,,,,,,,,,,,,,,,,,,,,,,,,,,,,,,,,,,,,,,,,,,,,,,,,,,,,,,,,,,,,,,,,,,
,,,,,,,,,R_11Xw7Ti6WhciWxA,2022-07-04_17h26.29.261,jpn_C02,2022.1.2,Win32,60.0240096,,,space,8.083,0,2,2,22,1,トマ　ドキ　ルピン,,,CartoonStims/boxer_point_burglar_r.jpg,audio/tomadokilupin.mp3,,,,,,,,,,,,,,,,,,,,,,,,,,,,,,,,,,,,,,,,,,,,,,,,,,,,,,,,,,,,,,,,,,,,,
,,,,,,,,,R_11Xw7Ti6WhciWxA,2022-07-04_17h26.29.261,jpn_C02,2022.1.2,Win32,60.0240096,,,space,5.398,0,3,3,41,1,プミ　ホレト　ルピン,,,CartoonStims/chef_punch_burglar_r.jpg,audio/pumihoretolupin.mp3,,,,,,,,,,,,,,,,,,,,,,,,,,,,,,,,,,,,,,,,,,,,,,,,,,,,,,,,,,,,,,,,,,,,,
,,,,,,,,,R_11Xw7Ti6WhciWxA,2022-07-04_17h26.29.261,jpn_C02,2022.1.2,Win32,60.0240096,,,space,7.861,0,4,4,8,1,セル　ピポ　ドキ,,,CartoonStims/doctor_kick_boxer_r.jpg,audio/serupipodoki.mp3,,,,,,,,,,,,,,,,,,,,,,,,,,,,,,,,,,,,,,,,,,,,,,,,,,,,,,,,,,,,,,,,,,,,,
,,,,,,,,,R_11Xw7Ti6WhciWxA,2022-07-04_17h26.29.261,jpn_C02,2022.1.2,Win32,60.0240096,,,space,3.402,0,5,5,31,1,パツ　ムク　ルピン,,,CartoonStims/cowboy_shoot_burglar_r.jpg,audio/patsumukulupin.mp3,,,,,,,,,,,,,,,,,,,,,,,,,,,,,,,,,,,,,,,,,,,,,,,,,,,,,,,,,,,,,,,,,,,,,
,,,,,,,,,R_11Xw7Ti6WhciWxA,2022-07-04_17h26.29.261,jpn_C02,2022.1.2,Win32,60.0240096,,,space,9.061,0,6,6,11,1,セル　ドキ　ルピン,,,CartoonStims/boxer_kick_burglar_r.jpg,audio/serudokilupin.mp3,,,,,,,,,,,,,,,,,,,,,,,,,,,,,,,,,,,,,,,,,,,,,,,,,,,,,,,,,,,,,,,,,,,,,
,,,,,,,,,R_11Xw7Ti6WhciWxA,2022-07-04_17h26.29.261,jpn_C02,2022.1.2,Win32,60.0240096,,,space,5.185,0,7,7,35,1,パツ　ドキ　ムク,,,CartoonStims/boxer_shoot_cowboy_r.jpg,audio/patsudokimuku.mp3,,,,,,,,,,,,,,,,,,,,,,,,,,,,,,,,,,,,,,,,,,,,,,,,,,,,,,,,,,,,,,,,,,,,,
,,,,,,,,,R_11Xw7Ti6WhciWxA,2022-07-04_17h26.29.261,jpn_C02,2022.1.2,Win32,60.0240096,,,space,3.432,0,8,8,32,1,パツ　ピポ　ルピン,,,CartoonStims/doctor_shoot_burglar_r.jpg,audio/patsupipolupin.mp3,,,,,,,,,,,,,,,,,,,,,,,,,,,,,,,,,,,,,,,,,,,,,,,,,,,,,,,,,,,,,,,,,,,,,
,,,,,,,,,R_11Xw7Ti6WhciWxA,2022-07-04_17h26.29.261,jpn_C02,2022.1.2,Win32,60.0240096,,,space,6.68,0,9,9,4,1,セル　ホレト　ムク,,,CartoonStims/chef_kick_cowboy_r.jpg,audio/seruhoretomuku.mp3,,,,,,,,,,,,,,,,,,,,,,,,,,,,,,,,,,,,,,,,,,,,,,,,,,,,,,,,,,,,,,,,,,,,,
,,,,,,,,,R_11Xw7Ti6WhciWxA,2022-07-04_17h26.29.261,jpn_C02,2022.1.2,Win32,60.0240096,,,space,4.015,0,10,10,30,1,パツ　ムク　シド,,,CartoonStims/cowboy_shoot_artist_r.jpg,audio/patsumukusido.mp3,,,,,,,,,,,,,,,,,,,,,,,,,,,,,,,,,,,,,,,,,,,,,,,,,,,,,,,,,,,,,,,,,,,,,
,,,,,,,,,R_11Xw7Ti6WhciWxA,2022-07-04_17h26.29.261,jpn_C02,2022.1.2,Win32,60.0240096,,,space,5.863,0,11,11,33,1,パツ　ピポ　ホレト,,,CartoonStims/doctor_shoot_chef_r.jpg,audio/patsupipohoreto.mp3,,,,,,,,,,,,,,,,,,,,,,,,,,,,,,,,,,,,,,,,,,,,,,,,,,,,,,,,,,,,,,,,,,,,,
,,,,,,,,,R_11Xw7Ti6WhciWxA,2022-07-04_17h26.29.261,jpn_C02,2022.1.2,Win32,60.0240096,,,space,3.964,0,12,12,15,1,トマ　ルピン　ピポ,,,CartoonStims/burglar_point_doctor_r.jpg,audio/tomalupinpipo.mp3,,,,,,,,,,,,,,,,,,,,,,,,,,,,,,,,,,,,,,,,,,,,,,,,,,,,,,,,,,,,,,,,,,,,,
,,,,,,,,,R_11Xw7Ti6WhciWxA,2022-07-04_17h26.29.261,jpn_C02,2022.1.2,Win32,60.0240096,,,space,2.151,0,13,13,27,1,パツ　ルピン　ドキ,,,CartoonStims/burglar_shoot_boxer_r.jpg,audio/patsulupindoki.mp3,,,,,,,,,,,,,,,,,,,,,,,,,,,,,,,,,,,,,,,,,,,,,,,,,,,,,,,,,,,,,,,,,,,,,
,,,,,,,,,R_11Xw7Ti6WhciWxA,2022-07-04_17h26.29.261,jpn_C02,2022.1.2,Win32,60.0240096,,,space,1.566,0,14,14,7,1,セル　ムク　ドキ,,,CartoonStims/cowboy_kick_boxer_r.jpg,audio/serumukudoki.mp3,,,,,,,,,,,,,,,,,,,,,,,,,,,,,,,,,,,,,,,,,,,,,,,,,,,,,,,,,,,,,,,,,,,,,
,,,,,,,,,R_11Xw7Ti6WhciWxA,2022-07-04_17h26.29.261,jpn_C02,2022.1.2,Win32,60.0240096,,,space,2.035,0,15,15,20,1,トマ　ピポ　シド,,,CartoonStims/doctor_point_artist_r.jpg,audio/tomapiposido.mp3,,,,,,,,,,,,,,,,,,,,,,,,,,,,,,,,,,,,,,,,,,,,,,,,,,,,,,,,,,,,,,,,,,,,,
,,,,,,,,,R_11Xw7Ti6WhciWxA,2022-07-04_17h26.29.261,jpn_C02,2022.1.2,Win32,60.0240096,,,space,1.948,0,16,16,47,1,プミ　ドキ　ピポ,,,CartoonStims/boxer_punch_doctor_r.jpg,audio/pumidokipipo.mp3,,,,,,,,,,,,,,,,,,,,,,,,,,,,,,,,,,,,,,,,,,,,,,,,,,,,,,,,,,,,,,,,,,,,,
,,,,,,,,,R_11Xw7Ti6WhciWxA,2022-07-04_17h26.29.261,jpn_C02,2022.1.2,Win32,60.0240096,,,space,1.05,0,17,17,42,1,プミ　ムク　ルピン,,,CartoonStims/cowboy_punch_burglar_r.jpg,audio/pumimukulupin.mp3,,,,,,,,,,,,,,,,,,,,,,,,,,,,,,,,,,,,,,,,,,,,,,,,,,,,,,,,,,,,,,,,,,,,,
,,,,,,,,,R_11Xw7Ti6WhciWxA,2022-07-04_17h26.29.261,jpn_C02,2022.1.2,Win32,60.0240096,,,space,0.901,0,18,18,38,1,プミ　ルピン　ドキ,,,CartoonStims/burglar_punch_boxer_r.jpg,audio/pumilupindoki.mp3,,,,,,,,,,,,,,,,,,,,,,,,,,,,,,,,,,,,,,,,,,,,,,,,,,,,,,,,,,,,,,,,,,,,,
,,,,,,,,,R_11Xw7Ti6WhciWxA,2022-07-04_17h26.29.261,jpn_C02,2022.1.2,Win32,60.0240096,,,space,1.299,0,19,19,13,1,トマ　シド　ムク,,,CartoonStims/artist_point_cowboy_r.jpg,audio/tomasidomuku.mp3,,,,,,,,,,,,,,,,,,,,,,,,,,,,,,,,,,,,,,,,,,,,,,,,,,,,,,,,,,,,,,,,,,,,,
,,,,,,,,,R_11Xw7Ti6WhciWxA,2022-07-04_17h26.29.261,jpn_C02,2022.1.2,Win32,60.0240096,,,space,1.117,0,20,20,17,1,トマ　ホレト　ドキ,,,CartoonStims/chef_point_boxer_r.jpg,audio/tomahoretodoki.mp3,,,,,,,,,,,,,,,,,,,,,,,,,,,,,,,,,,,,,,,,,,,,,,,,,,,,,,,,,,,,,,,,,,,,,
,,,,,,,,,R_11Xw7Ti6WhciWxA,2022-07-04_17h26.29.261,jpn_C02,2022.1.2,Win32,60.0240096,,,space,1.118,0,21,21,5,1,セル　ホレト　ピポ,,,CartoonStims/chef_kick_doctor_r.jpg,audio/seruhoretopipo.mp3,,,,,,,,,,,,,,,,,,,,,,,,,,,,,,,,,,,,,,,,,,,,,,,,,,,,,,,,,,,,,,,,,,,,,
,,,,,,,,,R_11Xw7Ti6WhciWxA,2022-07-04_17h26.29.261,jpn_C02,2022.1.2,Win32,60.0240096,,,space,1.52,0,22,22,34,1,パツ　ドキ　ホレト,,,CartoonStims/boxer_shoot_chef_r.jpg,audio/patsudokihoreto.mp3,,,,,,,,,,,,,,,,,,,,,,,,,,,,,,,,,,,,,,,,,,,,,,,,,,,,,,,,,,,,,,,,,,,,,
,,,,,,,,,R_11Xw7Ti6WhciWxA,2022-07-04_17h26.29.261,jpn_C02,2022.1.2,Win32,60.0240096,,,space,1.007,0,23,23,28,1,パツ　ホレト　ドキ,,,CartoonStims/chef_shoot_boxer_r.jpg,audio/patsuhoretodoki.mp3,,,,,,,,,,,,,,,,,,,,,,,,,,,,,,,,,,,,,,,,,,,,,,,,,,,,,,,,,,,,,,,,,,,,,
,,,,,,,,,R_11Xw7Ti6WhciWxA,2022-07-04_17h26.29.261,jpn_C02,2022.1.2,Win32,60.0240096,,,space,2.101,0,24,24,29,1,パツ　ホレト　シド,,,CartoonStims/chef_shoot_artist_r.jpg,audio/patsuhoretosido.mp3,,,,,,,,,,,,,,,,,,,,,,,,,,,,,,,,,,,,,,,,,,,,,,,,,,,,,,,,,,,,,,,,,,,,,
,,,,,,,,,R_11Xw7Ti6WhciWxA,2022-07-04_17h26.29.261,jpn_C02,2022.1.2,Win32,60.0240096,,,space,1.801,0,25,25,6,1,セル　ムク　ピポ,,,CartoonStims/cowboy_kick_doctor_r.jpg,audio/serumukupipo.mp3,,,,,,,,,,,,,,,,,,,,,,,,,,,,,,,,,,,,,,,,,,,,,,,,,,,,,,,,,,,,,,,,,,,,,
,,,,,,,,,R_11Xw7Ti6WhciWxA,2022-07-04_17h26.29.261,jpn_C02,2022.1.2,Win32,60.0240096,,,space,1.451,0,26,26,19,1,トマ　ムク　シド,,,CartoonStims/cowboy_point_artist_r.jpg,audio/tomamukusido.mp3,,,,,,,,,,,,,,,,,,,,,,,,,,,,,,,,,,,,,,,,,,,,,,,,,,,,,,,,,,,,,,,,,,,,,
,,,,,,,,,R_11Xw7Ti6WhciWxA,2022-07-04_17h26.29.261,jpn_C02,2022.1.2,Win32,60.0240096,,,space,1.069,0,27,27,45,1,プミ　ピポ　ムク,,,CartoonStims/doctor_punch_cowboy_r.jpg,audio/pumipipomuku.mp3,,,,,,,,,,,,,,,,,,,,,,,,,,,,,,,,,,,,,,,,,,,,,,,,,,,,,,,,,,,,,,,,,,,,,
,,,,,,,,,R_11Xw7Ti6WhciWxA,2022-07-04_17h26.29.261,jpn_C02,2022.1.2,Win32,60.0240096,,,space,1.217,0,28,28,0,1,セル　シド　ルピン,,,CartoonStims/artist_kick_burglar_r.jpg,audio/serusidolupin.mp3,,,,,,,,,,,,,,,,,,,,,,,,,,,,,,,,,,,,,,,,,,,,,,,,,,,,,,,,,,,,,,,,,,,,,
,,,,,,,,,R_11Xw7Ti6WhciWxA,2022-07-04_17h26.29.261,jpn_C02,2022.1.2,Win32,60.0240096,,,space,2.015,0,29,29,39,1,プミ　ルピン　シド,,,CartoonStims/burglar_punch_artist_r.jpg,audio/pumilupinsido.mp3,,,,,,,,,,,,,,,,,,,,,,,,,,,,,,,,,,,,,,,,,,,,,,,,,,,,,,,,,,,,,,,,,,,,,
,,,,,,,,,R_11Xw7Ti6WhciWxA,2022-07-04_17h26.29.261,jpn_C02,2022.1.2,Win32,60.0240096,,,space,4.401,0,30,30,1,1,セル 　シド 　ホレト,,,CartoonStims/artist_kick_chef_r.jpg,audio/serusidohoreto.mp3,,,,,,,,,,,,,,,,,,,,,,,,,,,,,,,,,,,,,,,,,,,,,,,,,,,,,,,,,,,,,,,,,,,,,
,,,,,,,,,R_11Xw7Ti6WhciWxA,2022-07-04_17h26.29.261,jpn_C02,2022.1.2,Win32,60.0240096,,,space,1.134,0,31,31,24,1,パツ　シド　ムク,,,CartoonStims/artist_shoot_cowboy_r.jpg,audio/patsusidomuku.mp3,,,,,,,,,,,,,,,,,,,,,,,,,,,,,,,,,,,,,,,,,,,,,,,,,,,,,,,,,,,,,,,,,,,,,
,,,,,,,,,R_11Xw7Ti6WhciWxA,2022-07-04_17h26.29.261,jpn_C02,2022.1.2,Win32,60.0240096,,,space,1,0,32,32,36,1,プミ　シド　ピポ,,,CartoonStims/artist_punch_doctor_r.jpg,audio/pumisidopipo.mp3,,,,,,,,,,,,,,,,,,,,,,,,,,,,,,,,,,,,,,,,,,,,,,,,,,,,,,,,,,,,,,,,,,,,,
,,,,,,,,,R_11Xw7Ti6WhciWxA,2022-07-04_17h26.29.261,jpn_C02,2022.1.2,Win32,60.0240096,,,space,1.016,0,33,33,43,1,プミ　ムク　ホレト,,,CartoonStims/cowboy_punch_chef_r.jpg,audio/pumimukuhoreto.mp3,,,,,,,,,,,,,,,,,,,,,,,,,,,,,,,,,,,,,,,,,,,,,,,,,,,,,,,,,,,,,,,,,,,,,
,,,,,,,,,R_11Xw7Ti6WhciWxA,2022-07-04_17h26.29.261,jpn_C02,2022.1.2,Win32,60.0240096,,,space,1.118,0,34,34,23,1,トマ　ドキ　ホレト,,,CartoonStims/boxer_point_chef_r.jpg,audio/tomadokihoreto.mp3,,,,,,,,,,,,,,,,,,,,,,,,,,,,,,,,,,,,,,,,,,,,,,,,,,,,,,,,,,,,,,,,,,,,,
,,,,,,,,,R_11Xw7Ti6WhciWxA,2022-07-04_17h26.29.261,jpn_C02,2022.1.2,Win32,60.0240096,,,space,1.734,0,35,35,25,1,パツ　シド　ピポ,,,CartoonStims/artist_shoot_doctor_r.jpg,audio/patsusidopipo.mp3,,,,,,,,,,,,,,,,,,,,,,,,,,,,,,,,,,,,,,,,,,,,,,,,,,,,,,,,,,,,,,,,,,,,,
,,,,,,,,,R_11Xw7Ti6WhciWxA,2022-07-04_17h26.29.261,jpn_C02,2022.1.2,Win32,60.0240096,,,space,2.472,0,36,36,44,1,プミ　ピポ　ホレト,,,CartoonStims/doctor_punch_chef_r.jpg,audio/pumipipohoreto.mp3,,,,,,,,,,,,,,,,,,,,,,,,,,,,,,,,,,,,,,,,,,,,,,,,,,,,,,,,,,,,,,,,,,,,,
,,,,,,,,,R_11Xw7Ti6WhciWxA,2022-07-04_17h26.29.261,jpn_C02,2022.1.2,Win32,60.0240096,,,space,1.134,0,37,37,46,1,プミ　ドキ　ムク,,,CartoonStims/boxer_punch_cowboy_r.jpg,audio/pumidokimuku.mp3,,,,,,,,,,,,,,,,,,,,,,,,,,,,,,,,,,,,,,,,,,,,,,,,,,,,,,,,,,,,,,,,,,,,,
,,,,,,,,,R_11Xw7Ti6WhciWxA,2022-07-04_17h26.29.261,jpn_C02,2022.1.2,Win32,60.0240096,,,space,1.103,0,38,38,12,1,トマ　シド　ホレト,,,CartoonStims/artist_point_chef_r.jpg,audio/tomasidohoreto.mp3,,,,,,,,,,,,,,,,,,,,,,,,,,,,,,,,,,,,,,,,,,,,,,,,,,,,,,,,,,,,,,,,,,,,,
,,,,,,,,,R_11Xw7Ti6WhciWxA,2022-07-04_17h26.29.261,jpn_C02,2022.1.2,Win32,60.0240096,,,space,1.189,0,39,39,14,1,トマ　ルピン　ムク,,,CartoonStims/burglar_point_cowboy_r.jpg,audio/tomalupinmuku.mp3,,,,,,,,,,,,,,,,,,,,,,,,,,,,,,,,,,,,,,,,,,,,,,,,,,,,,,,,,,,,,,,,,,,,,
,,,,,,,,,R_11Xw7Ti6WhciWxA,2022-07-04_17h26.29.261,jpn_C02,2022.1.2,Win32,60.0240096,,,space,1.682,0,40,40,10,1,セル　ドキ　シド,,,CartoonStims/boxer_kick_artist_r.jpg,audio/serudokisido.mp3,,,,,,,,,,,,,,,,,,,,,,,,,,,,,,,,,,,,,,,,,,,,,,,,,,,,,,,,,,,,,,,,,,,,,
,,,,,,,,,R_11Xw7Ti6WhciWxA,2022-07-04_17h26.29.261,jpn_C02,2022.1.2,Win32,60.0240096,,,space,1.267,0,41,41,37,1,プミ　シド　ドキ,,,CartoonStims/artist_punch_boxer_r.jpg,audio/pumisidodoki.mp3,,,,,,,,,,,,,,,,,,,,,,,,,,,,,,,,,,,,,,,,,,,,,,,,,,,,,,,,,,,,,,,,,,,,,
,,,,,,,,,R_11Xw7Ti6WhciWxA,2022-07-04_17h26.29.261,jpn_C02,2022.1.2,Win32,60.0240096,,,space,1.099,0,42,42,18,1,トマ　ムク　ドキ,,,CartoonStims/cowboy_point_boxer_r.jpg,audio/tomamukudoki.mp3,,,,,,,,,,,,,,,,,,,,,,,,,,,,,,,,,,,,,,,,,,,,,,,,,,,,,,,,,,,,,,,,,,,,,
,,,,,,,,,R_11Xw7Ti6WhciWxA,2022-07-04_17h26.29.261,jpn_C02,2022.1.2,Win32,60.0240096,,,space,1.186,0,43,43,2,1,セル 　ルピン 　ホレト,,,CartoonStims/burglar_kick_chef_r.jpg,audio/serulupinhoreto.mp3,,,,,,,,,,,,,,,,,,,,,,,,,,,,,,,,,,,,,,,,,,,,,,,,,,,,,,,,,,,,,,,,,,,,,
,,,,,,,,,R_11Xw7Ti6WhciWxA,2022-07-04_17h26.29.261,jpn_C02,2022.1.2,Win32,60.0240096,,,space,1.689,0,44,44,21,1,トマ　ピポ　ルピン,,,CartoonStims/doctor_point_burglar_r.jpg,audio/tomapipolupin.mp3,,,,,,,,,,,,,,,,,,,,,,,,,,,,,,,,,,,,,,,,,,,,,,,,,,,,,,,,,,,,,,,,,,,,,
,,,,,,,,,R_11Xw7Ti6WhciWxA,2022-07-04_17h26.29.261,jpn_C02,2022.1.2,Win32,60.0240096,,,space,1.881,0,45,45,26,1,パツ　ルピン　ピポ,,,CartoonStims/burglar_shoot_doctor_r.jpg,audio/patsulupinpipo.mp3,,,,,,,,,,,,,,,,,,,,,,,,,,,,,,,,,,,,,,,,,,,,,,,,,,,,,,,,,,,,,,,,,,,,,
,,,,,,,,,R_11Xw7Ti6WhciWxA,2022-07-04_17h26.29.261,jpn_C02,2022.1.2,Win32,60.0240096,,,space,1.55,0,46,46,3,1,セル　ルピン　ムク,,,CartoonStims/burglar_kick_cowboy_r.jpg,audio/serulupinmuku.mp3,,,,,,,,,,,,,,,,,,,,,,,,,,,,,,,,,,,,,,,,,,,,,,,,,,,,,,,,,,,,,,,,,,,,,
,,,,,,,,,R_11Xw7Ti6WhciWxA,2022-07-04_17h26.29.261,jpn_C02,2022.1.2,Win32,60.0240096,,,space,1.557,0,47,47,40,1,プミ　ホレト　シド,,,CartoonStims/chef_punch_artist_r.jpg,audio/pumihoretosido.mp3,,,,,,,,,,,,,,,,,,,,,,,,,,,,,,,,,,,,,,,,,,,,,,,,,,,,,,,,,,,,,,,,,,,,,
,,,,,,,,,R_11Xw7Ti6WhciWxA,2022-07-04_17h26.29.261,jpn_C02,2022.1.2,Win32,60.0240096,,,,,,,,,,,,,,,space,0.717,right,1,5.612,,,,,,,,,,,,,,,,,,0,0,0,0,1,,,,,,,,,,,,,,,,,,,,,,,,,,,,,,,,,,,,,,,,,,
,,,,,,,,,R_11Xw7Ti6WhciWxA,2022-07-04_17h26.29.261,jpn_C02,2022.1.2,Win32,60.0240096,,,,,,,,,,,,,,,,,,,,,,,,,0,0,0,11,1,CartoonStims/burglar_punch_cowboy_r.jpg,プミ　ホレト　ムク,CartoonStims/chef_punch_cowboy_r.jpg,right,CartoonStims/chef_punch_cowboy_r.jpg,audio/pumihoretomuku.mp3,残念！ こちらが正しい画像です。,,,,,,,,,,,,,,,,,,,,,,,,,,,,,,,,,,,,,,,,,,,,,,,
,,,,,,,,,R_11Xw7Ti6WhciWxA,2022-07-04_17h26.29.261,jpn_C02,2022.1.2,Win32,60.0240096,,,,,,,,,,,,,,,,,right,1,10.093,,,,,,,,,,,,,,,,,,0,0,0,0,1,,,,,,,,,,,,,,,,,,,,,,,,,,,,,,,,,,,,,,,,,,
,,,,,,,,,R_11Xw7Ti6WhciWxA,2022-07-04_17h26.29.261,jpn_C02,2022.1.2,Win32,60.0240096,,,,,,,,,,,,,,,,,,,,,,,,,0,1,1,9,1,CartoonStims/chef_kick_artist_r.jpg,セル　ムク　シド,CartoonStims/cowboy_kick_artist_r.jpg,right,CartoonStims/cowboy_kick_artist_r.jpg,audio/serumukusido.mp3,残念！ こちらが正しい画像です。,,,,,,,,,,,,,,,,,,,,,,,,,,,,,,,,,,,,,,,,,,,,,,,
,,,,,,,,,R_11Xw7Ti6WhciWxA,2022-07-04_17h26.29.261,jpn_C02,2022.1.2,Win32,60.0240096,,,,,,,,,,,,,,,,,right,1,2.638,,,,,,,,,,,,,,,,,,0,0,0,0,1,,,,,,,,,,,,,,,,,,,,,,,,,,,,,,,,,,,,,,,,,,
,,,,,,,,,R_11Xw7Ti6WhciWxA,2022-07-04_17h26.29.261,jpn_C02,2022.1.2,Win32,60.0240096,,,,,,,,,,,,,,,,,,,,,,,,,0,2,2,5,1,CartoonStims/cowboy_point_chef_r.jpg,パツ　ムク　ホレト,CartoonStims/cowboy_shoot_chef_r.jpg,right,CartoonStims/cowboy_shoot_chef_r.jpg,audio/patsumukuhoreto.mp3,残念！ こちらが正しい画像です。,,,,,,,,,,,,,,,,,,,,,,,,,,,,,,,,,,,,,,,,,,,,,,,
,,,,,,,,,R_11Xw7Ti6WhciWxA,2022-07-04_17h26.29.261,jpn_C02,2022.1.2,Win32,60.0240096,,,,,,,,,,,,,,,,,left,1,5.23,0,0,0,0,1,,,,,,,,,,,,,,,,,,,,,,,,,,,,,,,,,,,,,,,,,,,,,,,,,,,,,,,,,,,
,,,,,,,,,R_11Xw7Ti6WhciWxA,2022-07-04_17h26.29.261,jpn_C02,2022.1.2,Win32,60.0240096,,,,,,,,,,,,,,,,,,,,,,,,,0,3,3,2,1,CartoonStims/boxer_shoot_doctor_r.jpg,パツ　ドキ　ピポ,CartoonStims/boxer_shoot_artist_r.jpg,left,CartoonStims/boxer_shoot_doctor_r.jpg,audio/patsudokipipo.mp3,残念！ こちらが正しい画像です。,,,,,,,,,,,,,,,,,,,,,,,,,,,,,,,,,,,,,,,,,,,,,,,
,,,,,,,,,R_11Xw7Ti6WhciWxA,2022-07-04_17h26.29.261,jpn_C02,2022.1.2,Win32,60.0240096,,,,,,,,,,,,,,,,,left,1,3.665,0,0,0,0,1,,,,,,,,,,,,,,,,,,,,,,,,,,,,,,,,,,,,,,,,,,,,,,,,,,,,,,,,,,,
,,,,,,,,,R_11Xw7Ti6WhciWxA,2022-07-04_17h26.29.261,jpn_C02,2022.1.2,Win32,60.0240096,,,,,,,,,,,,,,,,,,,,,,,,,0,4,4,10,1,CartoonStims/artist_shoot_burglar_r.jpg,パツ　シド　ルピン,CartoonStims/chef_shoot_burglar_r.jpg,left,CartoonStims/artist_shoot_burglar_r.jpg,audio/patsusidolupin.mp3,残念！ こちらが正しい画像です。,,,,,,,,,,,,,,,,,,,,,,,,,,,,,,,,,,,,,,,,,,,,,,,
,,,,,,,,,R_11Xw7Ti6WhciWxA,2022-07-04_17h26.29.261,jpn_C02,2022.1.2,Win32,60.0240096,,,,,,,,,,,,,,,,,left,1,2.299,0,0,0,0,1,,,,,,,,,,,,,,,,,,,,,,,,,,,,,,,,,,,,,,,,,,,,,,,,,,,,,,,,,,,
,,,,,,,,,R_11Xw7Ti6WhciWxA,2022-07-04_17h26.29.261,jpn_C02,2022.1.2,Win32,60.0240096,,,,,,,,,,,,,,,,,,,,,,,,,0,5,5,8,1,CartoonStims/doctor_point_cowboy_r.jpg,トマ　ピポ　ムク,CartoonStims/boxer_point_cowboy_r.jpg,left,CartoonStims/doctor_point_cowboy_r.jpg,audio/tomapipomuku.mp3,残念！ こちらが正しい画像です。,,,,,,,,,,,,,,,,,,,,,,,,,,,,,,,,,,,,,,,,,,,,,,,
,,,,,,,,,R_11Xw7Ti6WhciWxA,2022-07-04_17h26.29.261,jpn_C02,2022.1.2,Win32,60.0240096,,,,,,,,,,,,,,,,,right,1,3.949,,,,,,,,,,,,,,,,,,0,0,0,0,1,,,,,,,,,,,,,,,,,,,,,,,,,,,,,,,,,,,,,,,,,,
,,,,,,,,,R_11Xw7Ti6WhciWxA,2022-07-04_17h26.29.261,jpn_C02,2022.1.2,Win32,60.0240096,,,,,,,,,,,,,,,,,,,,,,,,,0,6,6,3,1,CartoonStims/cowboy_punch_doctor_r.jpg,プミ　ムク　ドキ,CartoonStims/cowboy_punch_boxer_r.jpg,right,CartoonStims/cowboy_punch_boxer_r.jpg,audio/pumimukudoki.mp3,残念！ こちらが正しい画像です。,,,,,,,,,,,,,,,,,,,,,,,,,,,,,,,,,,,,,,,,,,,,,,,
,,,,,,,,,R_11Xw7Ti6WhciWxA,2022-07-04_17h26.29.261,jpn_C02,2022.1.2,Win32,60.0240096,,,,,,,,,,,,,,,,,left,1,4.133,0,0,0,0,1,,,,,,,,,,,,,,,,,,,,,,,,,,,,,,,,,,,,,,,,,,,,,,,,,,,,,,,,,,,
,,,,,,,,,R_11Xw7Ti6WhciWxA,2022-07-04_17h26.29.261,jpn_C02,2022.1.2,Win32,60.0240096,,,,,,,,,,,,,,,,,,,,,,,,,0,7,7,6,1,CartoonStims/doctor_punch_boxer_r.jpg,プミ　ピポ　ドキ,CartoonStims/doctor_shoot_boxer_r.jpg,left,CartoonStims/doctor_punch_boxer_r.jpg,audio/pumipipodoki.mp3,残念！ こちらが正しい画像です。,,,,,,,,,,,,,,,,,,,,,,,,,,,,,,,,,,,,,,,,,,,,,,,
,,,,,,,,,R_11Xw7Ti6WhciWxA,2022-07-04_17h26.29.261,jpn_C02,2022.1.2,Win32,60.0240096,,,,,,,,,,,,,,,,,left,1,2.238,0,0,0,0,1,,,,,,,,,,,,,,,,,,,,,,,,,,,,,,,,,,,,,,,,,,,,,,,,,,,,,,,,,,,
,,,,,,,,,R_11Xw7Ti6WhciWxA,2022-07-04_17h26.29.261,jpn_C02,2022.1.2,Win32,60.0240096,,,,,,,,,,,,,,,,,,,,,,,,,0,8,8,4,1,CartoonStims/burglar_point_boxer_r.jpg,トマ　ルピン　ドキ,CartoonStims/burglar_kick_boxer_r.jpg,left,CartoonStims/burglar_point_boxer_r.jpg,audio/tomalupindoki.mp3,残念！ こちらが正しい画像です。,,,,,,,,,,,,,,,,,,,,,,,,,,,,,,,,,,,,,,,,,,,,,,,
,,,,,,,,,R_11Xw7Ti6WhciWxA,2022-07-04_17h26.29.261,jpn_C02,2022.1.2,Win32,60.0240096,,,,,,,,,,,,,,,,,right,1,1.9,,,,,,,,,,,,,,,,,,0,0,0,0,1,,,,,,,,,,,,,,,,,,,,,,,,,,,,,,,,,,,,,,,,,,
,,,,,,,,,R_11Xw7Ti6WhciWxA,2022-07-04_17h26.29.261,jpn_C02,2022.1.2,Win32,60.0240096,,,,,,,,,,,,,,,,,,,,,,,,,0,9,9,7,1,CartoonStims/artist_punch_cowboy_r.jpg,セル　シド　ムク,CartoonStims/artist_kick_cowboy_r.jpg,right,CartoonStims/artist_kick_cowboy_r.jpg,audio/serusidomuku.mp3,残念！ こちらが正しい画像です。,,,,,,,,,,,,,,,,,,,,,,,,,,,,,,,,,,,,,,,,,,,,,,,
,,,,,,,,,R_11Xw7Ti6WhciWxA,2022-07-04_17h26.29.261,jpn_C02,2022.1.2,Win32,60.0240096,,,,,,,,,,,,,,,,,left,1,3.867,0,0,0,0,1,,,,,,,,,,,,,,,,,,,,,,,,,,,,,,,,,,,,,,,,,,,,,,,,,,,,,,,,,,,
,,,,,,,,,R_11Xw7Ti6WhciWxA,2022-07-04_17h26.29.261,jpn_C02,2022.1.2,Win32,60.0240096,,,,,,,,,,,,,,,,,,,,,,,,,0,10,10,0,1,CartoonStims/doctor_kick_burglar_r.jpg,セル　ピポ　ルピン,CartoonStims/doctor_kick_chef_r.jpg,left,CartoonStims/doctor_kick_burglar_r.jpg,audio/serupipolupin.mp3,残念！ こちらが正しい画像です。,,,,,,,,,,,,,,,,,,,,,,,,,,,,,,,,,,,,,,,,,,,,,,,
,,,,,,,,,R_11Xw7Ti6WhciWxA,2022-07-04_17h26.29.261,jpn_C02,2022.1.2,Win32,60.0240096,,,,,,,,,,,,,,,,,right,1,3.347,,,,,,,,,,,,,,,,,,0,0,0,0,1,,,,,,,,,,,,,,,,,,,,,,,,,,,,,,,,,,,,,,,,,,
,,,,,,,,,R_11Xw7Ti6WhciWxA,2022-07-04_17h26.29.261,jpn_C02,2022.1.2,Win32,60.0240096,,,,,,,,,,,,,,,,,,,,,,,,,0,11,11,1,1,CartoonStims/chef_point_burglar_r.jpg,トマ　ホレト　シド,CartoonStims/chef_point_artist_r.jpg,right,CartoonStims/chef_point_artist_r.jpg,audio/tomahoretosido.mp3,残念！ こちらが正しい画像です。,,,,,,,,,,,,,,,,,,,,,,,,,,,,,,,,,,,,,,,,,,,,,,,
,,,,,,,,,R_11Xw7Ti6WhciWxA,2022-07-04_17h26.29.261,jpn_C02,2022.1.2,Win32,60.0240096,,,,,,,,,,,,,,,,,,,,,,,,,,,,,,,,,,,,,,,,,,space,1.365,トマ　ルピン　シド,right,14.73,0,0,0,0,1,,,,,,,,,,,,,,,,,,,,,,,,,,,,,,,,
,,,,,,,,,R_11Xw7Ti6WhciWxA,2022-07-04_17h26.29.261,jpn_C02,2022.1.2,Win32,60.0240096,,,,,,,,,,,,,CartoonStims/burglar_point_artist_r.jpg,audio/tomalupinsido.mp3,,,,,,,,,,,,,,,,,,,,,,,,,,,,,,,,,,,,,,0,0,0,4,1,トマ　ルピン　シド,,,,,,,,,,,,,,,,,,,,,,,,,,
,,,,,,,,,R_11Xw7Ti6WhciWxA,2022-07-04_17h26.29.261,jpn_C02,2022.1.2,Win32,60.0240096,,,,,,,,,,,,,,,,,,,,,,,,,,,,,,,,,,,,,,,,,,,,セル　ドキ　ムク,right,10.136,0,0,0,0,1,,,,,,,,,,,,,,,,,,,,,,,,,,,,,,,,
,,,,,,,,,R_11Xw7Ti6WhciWxA,2022-07-04_17h26.29.261,jpn_C02,2022.1.2,Win32,60.0240096,,,,,,,,,,,,,CartoonStims/boxer_kick_cowboy_r.jpg,audio/serudokimuku.mp3,,,,,,,,,,,,,,,,,,,,,,,,,,,,,,,,,,,,,,0,1,1,2,1,セル　ドキ　ムク,,,,,,,,,,,,,,,,,,,,,,,,,,
,,,,,,,,,R_11Xw7Ti6WhciWxA,2022-07-04_17h26.29.261,jpn_C02,2022.1.2,Win32,60.0240096,,,,,,,,,,,,,,,,,,,,,,,,,,,,,,,,,,,,,,,,,,,,セル　ピポ　ホレト,right,10.878,0,0,0,0,1,,,,,,,,,,,,,,,,,,,,,,,,,,,,,,,,
,,,,,,,,,R_11Xw7Ti6WhciWxA,2022-07-04_17h26.29.261,jpn_C02,2022.1.2,Win32,60.0240096,,,,,,,,,,,,,CartoonStims/doctor_kick_chef_r.jpg,audio/serupipohoreto.mp3,,,,,,,,,,,,,,,,,,,,,,,,,,,,,,,,,,,,,,0,2,2,1,1,セル　ピポ　ホレト,,,,,,,,,,,,,,,,,,,,,,,,,,
,,,,,,,,,R_11Xw7Ti6WhciWxA,2022-07-04_17h26.29.261,jpn_C02,2022.1.2,Win32,60.0240096,,,,,,,,,,,,,,,,,,,,,,,,,,,,,,,,,,,,,,,,,,,,トマ　ホレト　ルピン,right,9.486,0,0,0,0,1,,,,,,,,,,,,,,,,,,,,,,,,,,,,,,,,
,,,,,,,,,R_11Xw7Ti6WhciWxA,2022-07-04_17h26.29.261,jpn_C02,2022.1.2,Win32,60.0240096,,,,,,,,,,,,,CartoonStims/chef_point_burglar_r.jpg,audio/tomahoretolupin.mp3,,,,,,,,,,,,,,,,,,,,,,,,,,,,,,,,,,,,,,0,3,3,5,1,トマ　ホレト　ルピン,,,,,,,,,,,,,,,,,,,,,,,,,,
,,,,,,,,,R_11Xw7Ti6WhciWxA,2022-07-04_17h26.29.261,jpn_C02,2022.1.2,Win32,60.0240096,,,,,,,,,,,,,,,,,,,,,,,,,,,,,,,,,,,,,,,,,,,,セル　ムク　ルピン,right,10.028,0,0,0,0,1,,,,,,,,,,,,,,,,,,,,,,,,,,,,,,,,
,,,,,,,,,R_11Xw7Ti6WhciWxA,2022-07-04_17h26.29.261,jpn_C02,2022.1.2,Win32,60.0240096,,,,,,,,,,,,,CartoonStims/cowboy_kick_burglar_r.jpg,audio/serumukulupin.mp3,,,,,,,,,,,,,,,,,,,,,,,,,,,,,,,,,,,,,,0,4,4,0,1,セル　ムク　ルピン,,,,,,,,,,,,,,,,,,,,,,,,,,
,,,,,,,,,R_11Xw7Ti6WhciWxA,2022-07-04_17h26.29.261,jpn_C02,2022.1.2,Win32,60.0240096,,,,,,,,,,,,,,,,,,,,,,,,,,,,,,,,,,,,,,,,,,,,パツ　ホレト　ムク,right,10.616,0,0,0,0,1,,,,,,,,,,,,,,,,,,,,,,,,,,,,,,,,
,,,,,,,,,R_11Xw7Ti6WhciWxA,2022-07-04_17h26.29.261,jpn_C02,2022.1.2,Win32,60.0240096,,,,,,,,,,,,,CartoonStims/chef_shoot_cowboy_r.jpg,audio/patsuhoretomuku.mp3,,,,,,,,,,,,,,,,,,,,,,,,,,,,,,,,,,,,,,0,5,5,7,1,パツ　ホレト　ムク,,,,,,,,,,,,,,,,,,,,,,,,,,
,,,,,,,,,R_11Xw7Ti6WhciWxA,2022-07-04_17h26.29.261,jpn_C02,2022.1.2,Win32,60.0240096,,,,,,,,,,,,,,,,,,,,,,,,,,,,,,,,,,,,,,,,,,,,トマ　シド　ドキ,right,8.735,0,0,0,0,1,,,,,,,,,,,,,,,,,,,,,,,,,,,,,,,,
,,,,,,,,,R_11Xw7Ti6WhciWxA,2022-07-04_17h26.29.261,jpn_C02,2022.1.2,Win32,60.0240096,,,,,,,,,,,,,CartoonStims/artist_point_boxer_r.jpg,audio/tomasidodoki.mp3,,,,,,,,,,,,,,,,,,,,,,,,,,,,,,,,,,,,,,0,6,6,3,1,トマ　シド　ドキ,,,,,,,,,,,,,,,,,,,,,,,,,,
,,,,,,,,,R_11Xw7Ti6WhciWxA,2022-07-04_17h26.29.261,jpn_C02,2022.1.2,Win32,60.0240096,,,,,,,,,,,,,,,,,,,,,,,,,,,,,,,,,,,,,,,,,,,,プミ　ドキ　シド,right,8.63,0,0,0,0,1,,,,,,,,,,,,,,,,,,,,,,,,,,,,,,,,
,,,,,,,,,R_11Xw7Ti6WhciWxA,2022-07-04_17h26.29.261,jpn_C02,2022.1.2,Win32,60.0240096,,,,,,,,,,,,,CartoonStims/boxer_punch_artist_r.jpg,audio/pumidokisido.mp3,,,,,,,,,,,,,,,,,,,,,,,,,,,,,,,,,,,,,,0,7,7,11,1,プミ　ドキ　シド,,,,,,,,,,,,,,,,,,,,,,,,,,
,,,,,,,,,R_11Xw7Ti6WhciWxA,2022-07-04_17h26.29.261,jpn_C02,2022.1.2,Win32,60.0240096,,,,,,,,,,,,,,,,,,,,,,,,,,,,,,,,,,,,,,,,,,,,パツ　ムク　ピポ,right,11.699,0,0,0,0,1,,,,,,,,,,,,,,,,,,,,,,,,,,,,,,,,
,,,,,,,,,R_11Xw7Ti6WhciWxA,2022-07-04_17h26.29.261,jpn_C02,2022.1.2,Win32,60.0240096,,,,,,,,,,,,,CartoonStims/cowboy_shoot_doctor_r.jpg,audio/patsumukupipo.mp3,,,,,,,,,,,,,,,,,,,,,,,,,,,,,,,,,,,,,,0,8,8,8,1,パツ　ムク　ピポ,,,,,,,,,,,,,,,,,,,,,,,,,,
,,,,,,,,,R_11Xw7Ti6WhciWxA,2022-07-04_17h26.29.261,jpn_C02,2022.1.2,Win32,60.0240096,,,,,,,,,,,,,,,,,,,,,,,,,,,,,,,,,,,,,,,,,,,,プミ　シド　ルピン,right,10.59,0,0,0,0,1,,,,,,,,,,,,,,,,,,,,,,,,,,,,,,,,
,,,,,,,,,R_11Xw7Ti6WhciWxA,2022-07-04_17h26.29.261,jpn_C02,2022.1.2,Win32,60.0240096,,,,,,,,,,,,,CartoonStims/artist_punch_burglar_r.jpg,audio/pumisidolupin.mp3,,,,,,,,,,,,,,,,,,,,,,,,,,,,,,,,,,,,,,0,9,9,9,1,プミ　シド　ルピン,,,,,,,,,,,,,,,,,,,,,,,,,,
,,,,,,,,,R_11Xw7Ti6WhciWxA,2022-07-04_17h26.29.261,jpn_C02,2022.1.2,Win32,60.0240096,,,,,,,,,,,,,,,,,,,,,,,,,,,,,,,,,,,,,,,,,,,,プミ　ピポ　ドキ,right,8.85,0,0,0,0,1,,,,,,,,,,,,,,,,,,,,,,,,,,,,,,,,
,,,,,,,,,R_11Xw7Ti6WhciWxA,2022-07-04_17h26.29.261,jpn_C02,2022.1.2,Win32,60.0240096,,,,,,,,,,,,,CartoonStims/doctor_punch_boxer_r.jpg,audio/pumipipodoki.mp3,,,,,,,,,,,,,,,,,,,,,,,,,,,,,,,,,,,,,,0,10,10,10,1,プミ　ピポ　ドキ,,,,,,,,,,,,,,,,,,,,,,,,,,
,,,,,,,,,R_11Xw7Ti6WhciWxA,2022-07-04_17h26.29.261,jpn_C02,2022.1.2,Win32,60.0240096,,,,,,,,,,,,,,,,,,,,,,,,,,,,,,,,,,,,,,,,,,,,パツ　ルピン　ホレト,right,10.617,0,0,0,0,1,,,,,,,,,,,,,,,,,,,,,,,,,,,,,,,,
,,,,,,,,,R_11Xw7Ti6WhciWxA,2022-07-04_17h26.29.261,jpn_C02,2022.1.2,Win32,60.0240096,,,,,,,,,,,,,CartoonStims/burglar_shoot_chef_r.jpg,audio/patsulupinhoreto.mp3,,,,,,,,,,,,,,,,,,,,,,,,,,,,,,,,,,,,,,0,11,11,6,1,パツ　ルピン　ホレト,,,,,,,,,,,,,,,,,,,,,,,,,,
,,,,,,,,,R_11Xw7Ti6WhciWxA,2022-07-04_17h26.29.261,jpn_C02,2022.1.2,Win32,60.0240096,,,,,,,,,,,,,,,,,,,,,,,,,,,,,,,,,,,,,,,,,,,,,,,,,,,,,,,,,,,space,2.95,0,1,1,1,1,AffExposure.xlsx,"第二のトライアルの学習では、この言語で書かれた文を見ていただきます。引き続き注意して、 聞こえた音を復唱してください。


スペースキーを押してください。",1,AffFCT.xlsx,ここからクイズが始まります。 スクリーンに表示されるテキストに合う画像を選んでください。,AffTest.xlsx,1,次にここまで学んだことをアウトプットしていただきます。 表示される画像を描写していると思う単語を、テキストボックスにタイプしてください。 答えを提出したあとに正しい正解が少しの間画面に写ります。,1,"これで第二のトライアルが終了しました。 ここで休憩をとっていただいても構いません。

休憩が終わりましたら、 スペースキーを押して続きの学習を行いましょう。",,,,,,,,
,,,,,,,,,R_11Xw7Ti6WhciWxA,2022-07-04_17h26.29.261,jpn_C02,2022.1.2,Win32,60.0240096,space,3.464,space,12.541,0,0,0,32,1,ピク　パツ　ピポ　ルピン,,,CartoonStims/doctor_shoot_burglar_r_no.jpg,audio/pikupatsupipolupin.mp3,,,,,,,,,,,,,,,,,,,,,,,,,,,,,,,,,,,,,,,,,,,,,,,,,,,,,,,,,,,,,,,,,,,,,
,,,,,,,,,R_11Xw7Ti6WhciWxA,2022-07-04_17h26.29.261,jpn_C02,2022.1.2,Win32,60.0240096,,,space,6.052,0,1,1,31,1,ピク　パツ　ムク　ルピン,,,CartoonStims/cowboy_shoot_burglar_r_no.jpg,audio/pikupatsumukulupin.mp3,,,,,,,,,,,,,,,,,,,,,,,,,,,,,,,,,,,,,,,,,,,,,,,,,,,,,,,,,,,,,,,,,,,,,
,,,,,,,,,R_11Xw7Ti6WhciWxA,2022-07-04_17h26.29.261,jpn_C02,2022.1.2,Win32,60.0240096,,,space,6.797,0,2,2,13,1,ピク　トマ　シド　ムク,,,CartoonStims/artist_point_cowboy_r_no.jpg,audio/pikutomasidomuku.mp3,,,,,,,,,,,,,,,,,,,,,,,,,,,,,,,,,,,,,,,,,,,,,,,,,,,,,,,,,,,,,,,,,,,,,
,,,,,,,,,R_11Xw7Ti6WhciWxA,2022-07-04_17h26.29.261,jpn_C02,2022.1.2,Win32,60.0240096,,,space,2.37,0,3,3,36,1,ピク　プミ　シド　ピポ,,,CartoonStims/artist_punch_doctor_r_no.jpg,audio/pikupumisidopipo.mp3,,,,,,,,,,,,,,,,,,,,,,,,,,,,,,,,,,,,,,,,,,,,,,,,,,,,,,,,,,,,,,,,,,,,,
,,,,,,,,,R_11Xw7Ti6WhciWxA,2022-07-04_17h26.29.261,jpn_C02,2022.1.2,Win32,60.0240096,,,space,1.99,0,4,4,28,1,ピク　パツ　ホレト　ドキ,,,CartoonStims/chef_shoot_boxer_r_no.jpg,audio/pikupatsuhoretodoki.mp3,,,,,,,,,,,,,,,,,,,,,,,,,,,,,,,,,,,,,,,,,,,,,,,,,,,,,,,,,,,,,,,,,,,,,
,,,,,,,,,R_11Xw7Ti6WhciWxA,2022-07-04_17h26.29.261,jpn_C02,2022.1.2,Win32,60.0240096,,,space,6.065,0,5,5,37,1,ピク　プミ　シド　ドキ,,,CartoonStims/artist_punch_boxer_r_no.jpg,audio/pikupumisidodoki.mp3,,,,,,,,,,,,,,,,,,,,,,,,,,,,,,,,,,,,,,,,,,,,,,,,,,,,,,,,,,,,,,,,,,,,,
,,,,,,,,,R_11Xw7Ti6WhciWxA,2022-07-04_17h26.29.261,jpn_C02,2022.1.2,Win32,60.0240096,,,space,2.448,0,6,6,27,1,パツ　ピク　ルピン　ドキ,,,CartoonStims/burglar_shoot_boxer_r_no.jpg,audio/patsupikulupindoki.mp3,,,,,,,,,,,,,,,,,,,,,,,,,,,,,,,,,,,,,,,,,,,,,,,,,,,,,,,,,,,,,,,,,,,,,
,,,,,,,,,R_11Xw7Ti6WhciWxA,2022-07-04_17h26.29.261,jpn_C02,2022.1.2,Win32,60.0240096,,,space,5.596,0,7,7,41,1,ピク　プミ　ホレト　ルピン,,,CartoonStims/chef_punch_burglar_r_no.jpg,audio/pikupumihoretolupin.mp3,,,,,,,,,,,,,,,,,,,,,,,,,,,,,,,,,,,,,,,,,,,,,,,,,,,,,,,,,,,,,,,,,,,,,
,,,,,,,,,R_11Xw7Ti6WhciWxA,2022-07-04_17h26.29.261,jpn_C02,2022.1.2,Win32,60.0240096,,,space,4.914,0,8,8,11,1,ピク　セル　ドキ　ルピン,,,CartoonStims/boxer_kick_burglar_r_no.jpg,audio/pikuserudokilupin.mp3,,,,,,,,,,,,,,,,,,,,,,,,,,,,,,,,,,,,,,,,,,,,,,,,,,,,,,,,,,,,,,,,,,,,,
,,,,,,,,,R_11Xw7Ti6WhciWxA,2022-07-04_17h26.29.261,jpn_C02,2022.1.2,Win32,60.0240096,,,space,2.801,0,9,9,40,1,ピク　プミ　ホレト　シド,,,CartoonStims/chef_punch_artist_r_no.jpg,audio/pikupumihoretosido.mp3,,,,,,,,,,,,,,,,,,,,,,,,,,,,,,,,,,,,,,,,,,,,,,,,,,,,,,,,,,,,,,,,,,,,,
,,,,,,,,,R_11Xw7Ti6WhciWxA,2022-07-04_17h26.29.261,jpn_C02,2022.1.2,Win32,60.0240096,,,space,1.3,0,10,10,38,1,ピク　プミ　ルピン　ドキ,,,CartoonStims/burglar_punch_boxer_r_no.jpg,audio/pikupumilupindoki.mp3,,,,,,,,,,,,,,,,,,,,,,,,,,,,,,,,,,,,,,,,,,,,,,,,,,,,,,,,,,,,,,,,,,,,,
,,,,,,,,,R_11Xw7Ti6WhciWxA,2022-07-04_17h26.29.261,jpn_C02,2022.1.2,Win32,60.0240096,,,space,1.734,0,11,11,17,1,ピク　トマ　ホレト　ドキ,,,CartoonStims/chef_point_boxer_r_no.jpg,audio/pikutomahoretodoki.mp3,,,,,,,,,,,,,,,,,,,,,,,,,,,,,,,,,,,,,,,,,,,,,,,,,,,,,,,,,,,,,,,,,,,,,
,,,,,,,,,R_11Xw7Ti6WhciWxA,2022-07-04_17h26.29.261,jpn_C02,2022.1.2,Win32,60.0240096,,,space,4.064,0,12,12,15,1,トマ　ピク　ルピン　ピポ,,,CartoonStims/burglar_point_doctor_r_no.jpg,audio/tomapikulupinpipo.mp3,,,,,,,,,,,,,,,,,,,,,,,,,,,,,,,,,,,,,,,,,,,,,,,,,,,,,,,,,,,,,,,,,,,,,
,,,,,,,,,R_11Xw7Ti6WhciWxA,2022-07-04_17h26.29.261,jpn_C02,2022.1.2,Win32,60.0240096,,,space,6.697,0,13,13,14,1,ピク　トマ　ルピン　ムク,,,CartoonStims/burglar_point_cowboy_r_no.jpg,audio/pikutomalupinmuku.mp3,,,,,,,,,,,,,,,,,,,,,,,,,,,,,,,,,,,,,,,,,,,,,,,,,,,,,,,,,,,,,,,,,,,,,
,,,,,,,,,R_11Xw7Ti6WhciWxA,2022-07-04_17h26.29.261,jpn_C02,2022.1.2,Win32,60.0240096,,,space,3.2,0,14,14,6,1,ピク　セル　ムク　ピポ,,,CartoonStims/cowboy_kick_doctor_r_no.jpg,audio/pikuserumukupipo.mp3,,,,,,,,,,,,,,,,,,,,,,,,,,,,,,,,,,,,,,,,,,,,,,,,,,,,,,,,,,,,,,,,,,,,,
,,,,,,,,,R_11Xw7Ti6WhciWxA,2022-07-04_17h26.29.261,jpn_C02,2022.1.2,Win32,60.0240096,,,space,4.548,0,15,15,30,1,ピク　パツ　ムク　シド,,,CartoonStims/cowboy_shoot_artist_r_no.jpg,audio/pikupatsumukusido.mp3,,,,,,,,,,,,,,,,,,,,,,,,,,,,,,,,,,,,,,,,,,,,,,,,,,,,,,,,,,,,,,,,,,,,,
,,,,,,,,,R_11Xw7Ti6WhciWxA,2022-07-04_17h26.29.261,jpn_C02,2022.1.2,Win32,60.0240096,,,space,6.016,0,16,16,12,1,ピク　トマ　シド　ホレト,,,CartoonStims/artist_point_chef_r_no.jpg,audio/pikutomasidohoreto.mp3,,,,,,,,,,,,,,,,,,,,,,,,,,,,,,,,,,,,,,,,,,,,,,,,,,,,,,,,,,,,,,,,,,,,,
,,,,,,,,,R_11Xw7Ti6WhciWxA,2022-07-04_17h26.29.261,jpn_C02,2022.1.2,Win32,60.0240096,,,space,3.734,0,17,17,0,1,セル　ピク　シド　ルピン,,,CartoonStims/artist_kick_burglar_r_no.jpg,audio/serupikusidolupin.mp3,,,,,,,,,,,,,,,,,,,,,,,,,,,,,,,,,,,,,,,,,,,,,,,,,,,,,,,,,,,,,,,,,,,,,
,,,,,,,,,R_11Xw7Ti6WhciWxA,2022-07-04_17h26.29.261,jpn_C02,2022.1.2,Win32,60.0240096,,,space,3.299,0,18,18,24,1,ピク　パツ　シド　ムク,,,CartoonStims/artist_shoot_cowboy_r_no.jpg,audio/pikupatsusidomuku.mp3,,,,,,,,,,,,,,,,,,,,,,,,,,,,,,,,,,,,,,,,,,,,,,,,,,,,,,,,,,,,,,,,,,,,,
,,,,,,,,,R_11Xw7Ti6WhciWxA,2022-07-04_17h26.29.261,jpn_C02,2022.1.2,Win32,60.0240096,,,space,3.964,0,19,19,47,1,ピク　プミ　ドキ　ピポ,,,CartoonStims/boxer_punch_doctor_r_no.jpg,audio/pikupumidokipipo.mp3,,,,,,,,,,,,,,,,,,,,,,,,,,,,,,,,,,,,,,,,,,,,,,,,,,,,,,,,,,,,,,,,,,,,,
,,,,,,,,,R_11Xw7Ti6WhciWxA,2022-07-04_17h26.29.261,jpn_C02,2022.1.2,Win32,60.0240096,,,space,3.982,0,20,20,22,1,ピク　トマ　ドキ　ルピン,,,CartoonStims/boxer_point_burglar_r_no.jpg,audio/pikutomadokilupin.mp3,,,,,,,,,,,,,,,,,,,,,,,,,,,,,,,,,,,,,,,,,,,,,,,,,,,,,,,,,,,,,,,,,,,,,
,,,,,,,,,R_11Xw7Ti6WhciWxA,2022-07-04_17h26.29.261,jpn_C02,2022.1.2,Win32,60.0240096,,,space,3.703,0,21,21,43,1,ピク　プミ　ムク　ホレト,,,CartoonStims/cowboy_punch_chef_r_no.jpg,audio/pikupumimukuhoreto.mp3,,,,,,,,,,,,,,,,,,,,,,,,,,,,,,,,,,,,,,,,,,,,,,,,,,,,,,,,,,,,,,,,,,,,,
,,,,,,,,,R_11Xw7Ti6WhciWxA,2022-07-04_17h26.29.261,jpn_C02,2022.1.2,Win32,60.0240096,,,space,1.802,0,22,22,8,1,セル　ピク　ピポ　ドキ,,,CartoonStims/doctor_kick_boxer_r_no.jpg,audio/serupikupipodoki.mp3,,,,,,,,,,,,,,,,,,,,,,,,,,,,,,,,,,,,,,,,,,,,,,,,,,,,,,,,,,,,,,,,,,,,,
,,,,,,,,,R_11Xw7Ti6WhciWxA,2022-07-04_17h26.29.261,jpn_C02,2022.1.2,Win32,60.0240096,,,space,18.387,0,23,23,7,1,ピク　セル　ムク　ドキ,,,CartoonStims/cowboy_kick_boxer_r_no.jpg,audio/pikuserumukudoki.mp3,,,,,,,,,,,,,,,,,,,,,,,,,,,,,,,,,,,,,,,,,,,,,,,,,,,,,,,,,,,,,,,,,,,,,
,,,,,,,,,R_11Xw7Ti6WhciWxA,2022-07-04_17h26.29.261,jpn_C02,2022.1.2,Win32,60.0240096,,,space,3.831,0,24,24,35,1,ピク　パツ　ドキ　ムク,,,CartoonStims/boxer_shoot_cowboy_r_no.jpg,audio/pikupatsudokimuku.mp3,,,,,,,,,,,,,,,,,,,,,,,,,,,,,,,,,,,,,,,,,,,,,,,,,,,,,,,,,,,,,,,,,,,,,
,,,,,,,,,R_11Xw7Ti6WhciWxA,2022-07-04_17h26.29.261,jpn_C02,2022.1.2,Win32,60.0240096,,,space,4.181,0,25,25,45,1,ピク　プミ　ピポ　ムク,,,CartoonStims/doctor_punch_cowboy_r_no.jpg,audio/pikupumipipomuku.mp3,,,,,,,,,,,,,,,,,,,,,,,,,,,,,,,,,,,,,,,,,,,,,,,,,,,,,,,,,,,,,,,,,,,,,
,,,,,,,,,R_11Xw7Ti6WhciWxA,2022-07-04_17h26.29.261,jpn_C02,2022.1.2,Win32,60.0240096,,,space,31.582,0,26,26,29,1,パツ　ピク　ホレト　シド,,,CartoonStims/chef_shoot_artist_r_no.jpg,audio/patsupikuhoretosido.mp3,,,,,,,,,,,,,,,,,,,,,,,,,,,,,,,,,,,,,,,,,,,,,,,,,,,,,,,,,,,,,,,,,,,,,
,,,,,,,,,R_11Xw7Ti6WhciWxA,2022-07-04_17h26.29.261,jpn_C02,2022.1.2,Win32,60.0240096,,,space,4.965,0,27,27,9,1,ピク　セル　ピポ　シド,,,CartoonStims/doctor_kick_artist_r_no.jpg,audio/pikuserupiposido.mp3,,,,,,,,,,,,,,,,,,,,,,,,,,,,,,,,,,,,,,,,,,,,,,,,,,,,,,,,,,,,,,,,,,,,,
,,,,,,,,,R_11Xw7Ti6WhciWxA,2022-07-04_17h26.29.261,jpn_C02,2022.1.2,Win32,60.0240096,,,space,12.641,0,28,28,39,1,ピク　プミ　ルピン　シド,,,CartoonStims/burglar_punch_artist_r_no.jpg,audio/pikupumilupinsido.mp3,,,,,,,,,,,,,,,,,,,,,,,,,,,,,,,,,,,,,,,,,,,,,,,,,,,,,,,,,,,,,,,,,,,,,
,,,,,,,,,R_11Xw7Ti6WhciWxA,2022-07-04_17h26.29.261,jpn_C02,2022.1.2,Win32,60.0240096,,,space,11.178,0,29,29,23,1,トマ　ピク　ドキ　ホレト,,,CartoonStims/boxer_point_chef_r_no.jpg,audio/tomapikudokihoreto.mp3,,,,,,,,,,,,,,,,,,,,,,,,,,,,,,,,,,,,,,,,,,,,,,,,,,,,,,,,,,,,,,,,,,,,,
,,,,,,,,,R_11Xw7Ti6WhciWxA,2022-07-04_17h26.29.261,jpn_C02,2022.1.2,Win32,60.0240096,,,space,8.797,0,30,30,25,1,パツ　ピク　シド　ピポ,,,CartoonStims/artist_shoot_doctor_r_no.jpg,audio/patsupikusidopipo.mp3,,,,,,,,,,,,,,,,,,,,,,,,,,,,,,,,,,,,,,,,,,,,,,,,,,,,,,,,,,,,,,,,,,,,,
,,,,,,,,,R_11Xw7Ti6WhciWxA,2022-07-04_17h26.29.261,jpn_C02,2022.1.2,Win32,60.0240096,,,space,12.958,0,31,31,42,1,プミ　ピク　ムク　ルピン,,,CartoonStims/cowboy_punch_burglar_r_no.jpg,audio/pumipikumukulupin.mp3,,,,,,,,,,,,,,,,,,,,,,,,,,,,,,,,,,,,,,,,,,,,,,,,,,,,,,,,,,,,,,,,,,,,,
,,,,,,,,,R_11Xw7Ti6WhciWxA,2022-07-04_17h26.29.261,jpn_C02,2022.1.2,Win32,60.0240096,,,space,3.581,0,32,32,3,1,ピク　セル　ルピン　ムク,,,CartoonStims/burglar_kick_cowboy_r_no.jpg,audio/pikuserulupinmuku.mp3,,,,,,,,,,,,,,,,,,,,,,,,,,,,,,,,,,,,,,,,,,,,,,,,,,,,,,,,,,,,,,,,,,,,,
,,,,,,,,,R_11Xw7Ti6WhciWxA,2022-07-04_17h26.29.261,jpn_C02,2022.1.2,Win32,60.0240096,,,space,6.797,0,33,33,20,1,ピク　トマ　ピポ　シド,,,CartoonStims/doctor_point_artist_r_no.jpg,audio/pikutomapiposido.mp3,,,,,,,,,,,,,,,,,,,,,,,,,,,,,,,,,,,,,,,,,,,,,,,,,,,,,,,,,,,,,,,,,,,,,
,,,,,,,,,R_11Xw7Ti6WhciWxA,2022-07-04_17h26.29.261,jpn_C02,2022.1.2,Win32,60.0240096,,,space,11.709,0,34,34,46,1,プミ　ピク　ドキ　ムク,,,CartoonStims/boxer_punch_cowboy_r_no.jpg,audio/pumipikudokimuku.mp3,,,,,,,,,,,,,,,,,,,,,,,,,,,,,,,,,,,,,,,,,,,,,,,,,,,,,,,,,,,,,,,,,,,,,
,,,,,,,,,R_11Xw7Ti6WhciWxA,2022-07-04_17h26.29.261,jpn_C02,2022.1.2,Win32,60.0240096,,,space,3.934,0,35,35,1,1,ピク　セル　シド　ホレト,,,CartoonStims/artist_kick_chef_r_no.jpg,audio/pikuserusidohoreto.mp3,,,,,,,,,,,,,,,,,,,,,,,,,,,,,,,,,,,,,,,,,,,,,,,,,,,,,,,,,,,,,,,,,,,,,
,,,,,,,,,R_11Xw7Ti6WhciWxA,2022-07-04_17h26.29.261,jpn_C02,2022.1.2,Win32,60.0240096,,,space,3.965,0,36,36,21,1,ピク　トマ　ピポ　ルピン,,,CartoonStims/doctor_point_burglar_r_no.jpg,audio/pikutomapipolupin.mp3,,,,,,,,,,,,,,,,,,,,,,,,,,,,,,,,,,,,,,,,,,,,,,,,,,,,,,,,,,,,,,,,,,,,,
,,,,,,,,,R_11Xw7Ti6WhciWxA,2022-07-04_17h26.29.261,jpn_C02,2022.1.2,Win32,60.0240096,,,space,3.082,0,37,37,5,1,ピク　セル　ホレト　ピポ,,,CartoonStims/chef_kick_doctor_r_no.jpg,audio/pikuseruhoretopipo.mp3,,,,,,,,,,,,,,,,,,,,,,,,,,,,,,,,,,,,,,,,,,,,,,,,,,,,,,,,,,,,,,,,,,,,,
,,,,,,,,,R_11Xw7Ti6WhciWxA,2022-07-04_17h26.29.261,jpn_C02,2022.1.2,Win32,60.0240096,,,space,9.029,0,38,38,34,1,ピク　パツ　ドキ　ホレト,,,CartoonStims/boxer_shoot_chef_r_no.jpg,audio/pikupatsudokihoreto.mp3,,,,,,,,,,,,,,,,,,,,,,,,,,,,,,,,,,,,,,,,,,,,,,,,,,,,,,,,,,,,,,,,,,,,,
,,,,,,,,,R_11Xw7Ti6WhciWxA,2022-07-04_17h26.29.261,jpn_C02,2022.1.2,Win32,60.0240096,,,space,4.77,0,39,39,44,1,プミ　ピク　ピポ　ホレト,,,CartoonStims/doctor_punch_chef_r_no.jpg,audio/pumipikupipohoreto.mp3,,,,,,,,,,,,,,,,,,,,,,,,,,,,,,,,,,,,,,,,,,,,,,,,,,,,,,,,,,,,,,,,,,,,,
,,,,,,,,,R_11Xw7Ti6WhciWxA,2022-07-04_17h26.29.261,jpn_C02,2022.1.2,Win32,60.0240096,,,space,4.515,0,40,40,26,1,ピク　パツ　ルピン　ピポ,,,CartoonStims/burglar_shoot_doctor_r_no.jpg,audio/pikupatsulupinpipo.mp3,,,,,,,,,,,,,,,,,,,,,,,,,,,,,,,,,,,,,,,,,,,,,,,,,,,,,,,,,,,,,,,,,,,,,
,,,,,,,,,R_11Xw7Ti6WhciWxA,2022-07-04_17h26.29.261,jpn_C02,2022.1.2,Win32,60.0240096,,,space,7.945,0,41,41,19,1,トマ　ピク　ムク　シド,,,CartoonStims/cowboy_point_artist_r_no.jpg,audio/tomapikumukusido.mp3,,,,,,,,,,,,,,,,,,,,,,,,,,,,,,,,,,,,,,,,,,,,,,,,,,,,,,,,,,,,,,,,,,,,,
,,,,,,,,,R_11Xw7Ti6WhciWxA,2022-07-04_17h26.29.261,jpn_C02,2022.1.2,Win32,60.0240096,,,space,2.884,0,42,42,2,1,ピク　セル　ルピン　ホレト,,,CartoonStims/burglar_kick_chef_r_no.jpg,audio/pikuserulupinhoreto.mp3,,,,,,,,,,,,,,,,,,,,,,,,,,,,,,,,,,,,,,,,,,,,,,,,,,,,,,,,,,,,,,,,,,,,,
,,,,,,,,,R_11Xw7Ti6WhciWxA,2022-07-04_17h26.29.261,jpn_C02,2022.1.2,Win32,60.0240096,,,space,2.338,0,43,43,33,1,ピク　パツ　ピポ　ホレト,,,CartoonStims/doctor_shoot_chef_r_no.jpg,audio/pikupatsupipohoreto.mp3,,,,,,,,,,,,,,,,,,,,,,,,,,,,,,,,,,,,,,,,,,,,,,,,,,,,,,,,,,,,,,,,,,,,,
,,,,,,,,,R_11Xw7Ti6WhciWxA,2022-07-04_17h26.29.261,jpn_C02,2022.1.2,Win32,60.0240096,,,space,3.315,0,44,44,18,1,ピク　トマ　ムク　ドキ,,,CartoonStims/cowboy_point_boxer_r_no.jpg,audio/pikutomamukudoki.mp3,,,,,,,,,,,,,,,,,,,,,,,,,,,,,,,,,,,,,,,,,,,,,,,,,,,,,,,,,,,,,,,,,,,,,
,,,,,,,,,R_11Xw7Ti6WhciWxA,2022-07-04_17h26.29.261,jpn_C02,2022.1.2,Win32,60.0240096,,,space,2.499,0,45,45,10,1,ピク　セル　ドキ　シド,,,CartoonStims/boxer_kick_artist_r_no.jpg,audio/pikuserudokisido.mp3,,,,,,,,,,,,,,,,,,,,,,,,,,,,,,,,,,,,,,,,,,,,,,,,,,,,,,,,,,,,,,,,,,,,,
,,,,,,,,,R_11Xw7Ti6WhciWxA,2022-07-04_17h26.29.261,jpn_C02,2022.1.2,Win32,60.0240096,,,space,6.296,0,46,46,16,1,ピク　トマ　ホレト　ピポ,,,CartoonStims/chef_point_doctor_r_no.jpg,audio/pikutomahoretopipo.mp3,,,,,,,,,,,,,,,,,,,,,,,,,,,,,,,,,,,,,,,,,,,,,,,,,,,,,,,,,,,,,,,,,,,,,
,,,,,,,,,R_11Xw7Ti6WhciWxA,2022-07-04_17h26.29.261,jpn_C02,2022.1.2,Win32,60.0240096,,,space,5.711,0,47,47,4,1,セル　ピク　ホレト　ムク,,,CartoonStims/chef_kick_cowboy_r_no.jpg,audio/serupikuhoretomuku.mp3,,,,,,,,,,,,,,,,,,,,,,,,,,,,,,,,,,,,,,,,,,,,,,,,,,,,,,,,,,,,,,,,,,,,,
,,,,,,,,,R_11Xw7Ti6WhciWxA,2022-07-04_17h26.29.261,jpn_C02,2022.1.2,Win32,60.0240096,,,,,,,,,,,,,,,space,8.448,left,1,15.689,0,0,0,0,1,,,,,,,,,,,,,,,,,,,,,,,,,,,,,,,,,,,,,,,,,,,,,,,,,,,,,,,,,,,
,,,,,,,,,R_11Xw7Ti6WhciWxA,2022-07-04_17h26.29.261,jpn_C02,2022.1.2,Win32,60.0240096,,,,,,,,,,,,,,,,,,,,,,,,,0,0,0,6,1,CartoonStims/artist_shoot_boxer_r.jpg,ピク　トマ　シド　ドキ,CartoonStims/artist_point_boxer_r.jpg,left,CartoonStims/artist_shoot_boxer_r.jpg,audio/pikutomasidodoki.mp3,"残念！ こちらが正しい画像です。

否定文は起きていないことを示しているのを思い出してください。",,,,,,,,,,,,,,,,,,,,,,,,,,,,,,,,,,,,,,,,,,,,,,,
,,,,,,,,,R_11Xw7Ti6WhciWxA,2022-07-04_17h26.29.261,jpn_C02,2022.1.2,Win32,60.0240096,,,,,,,,,,,,,,,,,left,1,22.088,0,0,0,0,1,,,,,,,,,,,,,,,,,,,,,,,,,,,,,,,,,,,,,,,,,,,,,,,,,,,,,,,,,,,
,,,,,,,,,R_11Xw7Ti6WhciWxA,2022-07-04_17h26.29.261,jpn_C02,2022.1.2,Win32,60.0240096,,,,,,,,,,,,,,,,,,,,,,,,,0,1,1,4,1,CartoonStims/burglar_shoot_doctor_r.jpg,ピク　セル　ルピン　ピポ,CartoonStims/burglar_kick_doctor_r.jpg,left,CartoonStims/burglar_shoot_doctor_r.jpg,audio/pikuserulupinpipo.mp3,"残念！ こちらが正しい画像です。

否定文は起きていないことを示しているのを思い出してください。",,,,,,,,,,,,,,,,,,,,,,,,,,,,,,,,,,,,,,,,,,,,,,,
,,,,,,,,,R_11Xw7Ti6WhciWxA,2022-07-04_17h26.29.261,jpn_C02,2022.1.2,Win32,60.0240096,,,,,,,,,,,,,,,,,left,1,8.943,0,0,0,0,1,,,,,,,,,,,,,,,,,,,,,,,,,,,,,,,,,,,,,,,,,,,,,,,,,,,,,,,,,,,
,,,,,,,,,R_11Xw7Ti6WhciWxA,2022-07-04_17h26.29.261,jpn_C02,2022.1.2,Win32,60.0240096,,,,,,,,,,,,,,,,,,,,,,,,,0,2,2,8,1,CartoonStims/burglar_punch_artist_r.jpg,ピク　トマ　ルピン　シド,CartoonStims/burglar_point_artist_r.jpg,left,CartoonStims/burglar_punch_artist_r.jpg,audio/pikutomalupinsido.mp3,"残念！ こちらが正しい画像です。

否定文は起きていないことを示しているのを思い出してください。",,,,,,,,,,,,,,,,,,,,,,,,,,,,,,,,,,,,,,,,,,,,,,,
,,,,,,,,,R_11Xw7Ti6WhciWxA,2022-07-04_17h26.29.261,jpn_C02,2022.1.2,Win32,60.0240096,,,,,,,,,,,,,,,,,right,1,5.267,,,,,,,,,,,,,,,,,,0,0,0,0,1,,,,,,,,,,,,,,,,,,,,,,,,,,,,,,,,,,,,,,,,,,
,,,,,,,,,R_11Xw7Ti6WhciWxA,2022-07-04_17h26.29.261,jpn_C02,2022.1.2,Win32,60.0240096,,,,,,,,,,,,,,,,,,,,,,,,,0,3,3,11,1,CartoonStims/chef_shoot_burglar_r.jpg,ピク　パツ　ホレト　ルピン,CartoonStims/chef_kick_burglar_r.jpg,right,CartoonStims/chef_kick_burglar_r.jpg,audio/pikupatsuhoretolupin.mp3,"残念！ こちらが正しい画像です。

否定文は起きていないことを示しているのを思い出してください。",,,,,,,,,,,,,,,,,,,,,,,,,,,,,,,,,,,,,,,,,,,,,,,
,,,,,,,,,R_11Xw7Ti6WhciWxA,2022-07-04_17h26.29.261,jpn_C02,2022.1.2,Win32,60.0240096,,,,,,,,,,,,,,,,,left,1,8.446,0,0,0,0,1,,,,,,,,,,,,,,,,,,,,,,,,,,,,,,,,,,,,,,,,,,,,,,,,,,,,,,,,,,,
,,,,,,,,,R_11Xw7Ti6WhciWxA,2022-07-04_17h26.29.261,jpn_C02,2022.1.2,Win32,60.0240096,,,,,,,,,,,,,,,,,,,,,,,,,0,4,4,0,1,CartoonStims/artist_shoot_burglar_r.jpg,プミ　ピク　シド　ルピン,CartoonStims/artist_punch_burglar_r.jpg,left,CartoonStims/artist_shoot_burglar_r.jpg,audio/pumipikusidolupin.mp3,"残念！ こちらが正しい画像です。

否定文は起きていないことを示しているのを思い出してください。",,,,,,,,,,,,,,,,,,,,,,,,,,,,,,,,,,,,,,,,,,,,,,,
,,,,,,,,,R_11Xw7Ti6WhciWxA,2022-07-04_17h26.29.261,jpn_C02,2022.1.2,Win32,60.0240096,,,,,,,,,,,,,,,,,right,1,5.48,,,,,,,,,,,,,,,,,,0,0,0,0,1,,,,,,,,,,,,,,,,,,,,,,,,,,,,,,,,,,,,,,,,,,
,,,,,,,,,R_11Xw7Ti6WhciWxA,2022-07-04_17h26.29.261,jpn_C02,2022.1.2,Win32,60.0240096,,,,,,,,,,,,,,,,,,,,,,,,,0,5,5,3,1,CartoonStims/chef_kick_artist_r.jpg,セル　ピク　ホレト　シド,CartoonStims/chef_point_artist_r.jpg,right,CartoonStims/chef_point_artist_r.jpg,audio/serupikuhoretosido.mp3,"残念！ こちらが正しい画像です。

否定文は起きていないことを示しているのを思い出してください。",,,,,,,,,,,,,,,,,,,,,,,,,,,,,,,,,,,,,,,,,,,,,,,
,,,,,,,,,R_11Xw7Ti6WhciWxA,2022-07-04_17h26.29.261,jpn_C02,2022.1.2,Win32,60.0240096,,,,,,,,,,,,,,,,,right,1,4.846,,,,,,,,,,,,,,,,,,0,0,0,0,1,,,,,,,,,,,,,,,,,,,,,,,,,,,,,,,,,,,,,,,,,,
,,,,,,,,,R_11Xw7Ti6WhciWxA,2022-07-04_17h26.29.261,jpn_C02,2022.1.2,Win32,60.0240096,,,,,,,,,,,,,,,,,,,,,,,,,0,6,6,5,1,CartoonStims/boxer_kick_cowboy_r.jpg,ピク　セル　ドキ　ムク,CartoonStims/boxer_punch_cowboy_r.jpg,right,CartoonStims/boxer_punch_cowboy_r.jpg,audio/pikuserudokimuku.mp3,"残念！ こちらが正しい画像です。

否定文は起きていないことを示しているのを思い出してください。",,,,,,,,,,,,,,,,,,,,,,,,,,,,,,,,,,,,,,,,,,,,,,,
,,,,,,,,,R_11Xw7Ti6WhciWxA,2022-07-04_17h26.29.261,jpn_C02,2022.1.2,Win32,60.0240096,,,,,,,,,,,,,,,,,right,0,2.717,,,,,,,,,,,,,,,,,,,,,,,,,,,,,,,,,,,,,,,,,,,,,,,,,,,,,,,,,0,0,0,0,1,,,
,,,,,,,,,R_11Xw7Ti6WhciWxA,2022-07-04_17h26.29.261,jpn_C02,2022.1.2,Win32,60.0240096,,,,,,,,,,,,,,,,,,,,,,,,,0,7,7,10,1,CartoonStims/doctor_punch_cowboy_r.jpg,パツ　ピク　ピポ　ムク,CartoonStims/doctor_shoot_cowboy_r.jpg,left,CartoonStims/doctor_punch_cowboy_r.jpg,audio/patsupikupipomuku.mp3,"残念！ こちらが正しい画像です。

否定文は起きていないことを示しているのを思い出してください。",,,,,,,,,,,,,,,,,,,,,,,,,,,,,,,,,,,,,,,,,,,,,,,
,,,,,,,,,R_11Xw7Ti6WhciWxA,2022-07-04_17h26.29.261,jpn_C02,2022.1.2,Win32,60.0240096,,,,,,,,,,,,,,,,,right,1,3.764,,,,,,,,,,,,,,,,,,0,0,0,0,1,,,,,,,,,,,,,,,,,,,,,,,,,,,,,,,,,,,,,,,,,,
,,,,,,,,,R_11Xw7Ti6WhciWxA,2022-07-04_17h26.29.261,jpn_C02,2022.1.2,Win32,60.0240096,,,,,,,,,,,,,,,,,,,,,,,,,0,8,8,7,1,CartoonStims/cowboy_point_chef_r.jpg,トマ　ピク　ムク　ホレト,CartoonStims/cowboy_kick_chef_r.jpg,right,CartoonStims/cowboy_kick_chef_r.jpg,audio/tomapikumukuhoreto.mp3,"残念！ こちらが正しい画像です。

否定文は起きていないことを示しているのを思い出してください。",,,,,,,,,,,,,,,,,,,,,,,,,,,,,,,,,,,,,,,,,,,,,,,
,,,,,,,,,R_11Xw7Ti6WhciWxA,2022-07-04_17h26.29.261,jpn_C02,2022.1.2,Win32,60.0240096,,,,,,,,,,,,,,,,,left,1,2.717,0,0,0,0,1,,,,,,,,,,,,,,,,,,,,,,,,,,,,,,,,,,,,,,,,,,,,,,,,,,,,,,,,,,,
,,,,,,,,,R_11Xw7Ti6WhciWxA,2022-07-04_17h26.29.261,jpn_C02,2022.1.2,Win32,60.0240096,,,,,,,,,,,,,,,,,,,,,,,,,0,9,9,2,1,CartoonStims/doctor_point_boxer_r.jpg,ピク　プミ　ピポ　ドキ,CartoonStims/doctor_punch_boxer_r.jpg,left,CartoonStims/doctor_point_boxer_r.jpg,audio/pikupumipipodoki.mp3,"残念！ こちらが正しい画像です。

否定文は起きていないことを示しているのを思い出してください。",,,,,,,,,,,,,,,,,,,,,,,,,,,,,,,,,,,,,,,,,,,,,,,
,,,,,,,,,R_11Xw7Ti6WhciWxA,2022-07-04_17h26.29.261,jpn_C02,2022.1.2,Win32,60.0240096,,,,,,,,,,,,,,,,,right,1,2.066,,,,,,,,,,,,,,,,,,0,0,0,0,1,,,,,,,,,,,,,,,,,,,,,,,,,,,,,,,,,,,,,,,,,,
,,,,,,,,,R_11Xw7Ti6WhciWxA,2022-07-04_17h26.29.261,jpn_C02,2022.1.2,Win32,60.0240096,,,,,,,,,,,,,,,,,,,,,,,,,0,10,10,1,1,CartoonStims/chef_punch_cowboy_r.jpg,ピク　プミ　ホレト　ムク,CartoonStims/chef_kick_cowboy_r.jpg,right,CartoonStims/chef_kick_cowboy_r.jpg,audio/pikupumihoretomuku.mp3,"残念！ こちらが正しい画像です。

否定文は起きていないことを示しているのを思い出してください。",,,,,,,,,,,,,,,,,,,,,,,,,,,,,,,,,,,,,,,,,,,,,,,
,,,,,,,,,R_11Xw7Ti6WhciWxA,2022-07-04_17h26.29.261,jpn_C02,2022.1.2,Win32,60.0240096,,,,,,,,,,,,,,,,,right,1,1.603,,,,,,,,,,,,,,,,,,0,0,0,0,1,,,,,,,,,,,,,,,,,,,,,,,,,,,,,,,,,,,,,,,,,,
,,,,,,,,,R_11Xw7Ti6WhciWxA,2022-07-04_17h26.29.261,jpn_C02,2022.1.2,Win32,60.0240096,,,,,,,,,,,,,,,,,,,,,,,,,0,11,11,9,1,CartoonStims/boxer_shoot_doctor_r.jpg,ピク　パツ　ドキ　ピポ,CartoonStims/boxer_point_doctor_r.jpg,right,CartoonStims/boxer_point_doctor_r.jpg,audio/pikupatsudokipipo.mp3,"残念！ こちらが正しい画像です。

否定文は起きていないことを示しているのを思い出してください。",,,,,,,,,,,,,,,,,,,,,,,,,,,,,,,,,,,,,,,,,,,,,,,
,,,,,,,,,R_11Xw7Ti6WhciWxA,2022-07-04_17h26.29.261,jpn_C02,2022.1.2,Win32,60.0240096,,,,,,,,,,,,,CartoonStims/doctor_kick_chef_r.jpg,,,,,,,,,,,,,,,,,,,,,,,,,,,,,space,3.815,ピク　セル　ピポ　ホレト,right,19.798,,,,,,0,0,0,25,1,,,,,,,,,,,,,,,,,,,,,,,,,セル　ピポ　ホレト,セル　ピポ　ホレト,0
,,,,,,,,,R_11Xw7Ti6WhciWxA,2022-07-04_17h26.29.261,jpn_C02,2022.1.2,Win32,60.0240096,,,,,,,,,,,,,CartoonStims/artist_punch_burglar_r.jpg,,,,,,,,,,,,,,,,,,,,,,,,,,,,,,,プミ　シド　ルピン,right,20.983,,,,,,0,1,1,33,1,,,,,,,,,,,,,,,,,,,,,,,,,プミ　シド　ルピン,プミ　シド　ルピン,0
,,,,,,,,,R_11Xw7Ti6WhciWxA,2022-07-04_17h26.29.261,jpn_C02,2022.1.2,Win32,60.0240096,,,,,,,,,,,,,CartoonStims/artist_punch_cowboy_r_no.jpg,,,,,,,,,,,,,,,,,,,,,,,,,,,,,,,ピク　プミ　シド　ムク,right,25.066,,,,,,0,2,2,18,1,,,,,,,,,,,,,,,,,,,,,,,,,ピク　プミ　シド　ムク,プミ　ピク　シド　ムク,1
,,,,,,,,,R_11Xw7Ti6WhciWxA,2022-07-04_17h26.29.261,jpn_C02,2022.1.2,Win32,60.0240096,,,,,,,,,,,,,CartoonStims/cowboy_point_doctor_r_no.jpg,,,,,,,,,,,,,,,,,,,,,,,,,,,,,,,ピク　トマ　ムク　ピポ,right,13.38,,,,,,0,3,3,9,1,,,,,,,,,,,,,,,,,,,,,,,,,ピク　トマ　ムク　ピポ,トマ　ピク　ムク　ピポ,1
,,,,,,,,,R_11Xw7Ti6WhciWxA,2022-07-04_17h26.29.261,jpn_C02,2022.1.2,Win32,60.0240096,,,,,,,,,,,,,CartoonStims/chef_point_burglar_r.jpg,,,,,,,,,,,,,,,,,,,,,,,,,,,,,,,トマ　ホレト　ルピン,right,16.165,,,,,,0,4,4,29,1,,,,,,,,,,,,,,,,,,,,,,,,,トマ　ホレト　ルピン,トマ　ホレト　ルピン,0
,,,,,,,,,R_11Xw7Ti6WhciWxA,2022-07-04_17h26.29.261,jpn_C02,2022.1.2,Win32,60.0240096,,,,,,,,,,,,,CartoonStims/chef_point_cowboy_r_no.jpg,,,,,,,,,,,,,,,,,,,,,,,,,,,,,,,ピク　トマ　ホレト　ムク,right,21.681,,,,,,0,5,5,8,1,,,,,,,,,,,,,,,,,,,,,,,,,ピク　トマ　ホレト　ムク,トマ　ピク　ホレト　ムク,1
,,,,,,,,,R_11Xw7Ti6WhciWxA,2022-07-04_17h26.29.261,jpn_C02,2022.1.2,Win32,60.0240096,,,,,,,,,,,,,CartoonStims/boxer_point_artist_r_no.jpg,,,,,,,,,,,,,,,,,,,,,,,,,,,,,,,ピク　トマ　ドキ　シド,right,14.891,,,,,,0,6,6,11,1,,,,,,,,,,,,,,,,,,,,,,,,,ピク　トマ　ドキ　シド,トマ　ピク　ドキ　シド,1
,,,,,,,,,R_11Xw7Ti6WhciWxA,2022-07-04_17h26.29.261,jpn_C02,2022.1.2,Win32,60.0240096,,,,,,,,,,,,,CartoonStims/cowboy_shoot_boxer_r_no.jpg,,,,,,,,,,,,,,,,,,,,,,,,,,,,,,,ピク　パツ　ムク　ドキ,right,13.13,,,,,,0,7,7,15,1,,,,,,,,,,,,,,,,,,,,,,,,,ピク　パツ　ムク　ドキ,パツ　ピク　ムク　ドキ,1
,,,,,,,,,R_11Xw7Ti6WhciWxA,2022-07-04_17h26.29.261,jpn_C02,2022.1.2,Win32,60.0240096,,,,,,,,,,,,,CartoonStims/cowboy_shoot_doctor_r.jpg,,,,,,,,,,,,,,,,,,,,,,,,,,,,,,,パツ　ムク　ピポ,right,9.582,,,,,,0,8,8,32,1,,,,,,,,,,,,,,,,,,,,,,,,,パツ　ムク　ピポ,パツ　ムク　ピポ,0
,,,,,,,,,R_11Xw7Ti6WhciWxA,2022-07-04_17h26.29.261,jpn_C02,2022.1.2,Win32,60.0240096,,,,,,,,,,,,,CartoonStims/artist_point_boxer_r.jpg,,,,,,,,,,,,,,,,,,,,,,,,,,,,,,,トマ　シド　ドキ,right,8.388,,,,,,0,9,9,27,1,,,,,,,,,,,,,,,,,,,,,,,,,トマ　シド　ドキ,トマ　シド　ドキ,0
,,,,,,,,,R_11Xw7Ti6WhciWxA,2022-07-04_17h26.29.261,jpn_C02,2022.1.2,Win32,60.0240096,,,,,,,,,,,,,CartoonStims/cowboy_kick_chef_r_no.jpg,,,,,,,,,,,,,,,,,,,,,,,,,,,,,,,ピク　セル　ムク　ホレト,right,10.605,,,,,,0,10,10,3,1,,,,,,,,,,,,,,,,,,,,,,,,,ピク　セル　ムク　ホレト,セル　ピク　ムク　ホレト,1
,,,,,,,,,R_11Xw7Ti6WhciWxA,2022-07-04_17h26.29.261,jpn_C02,2022.1.2,Win32,60.0240096,,,,,,,,,,,,,CartoonStims/boxer_shoot_burglar_r_no.jpg,,,,,,,,,,,,,,,,,,,,,,,,,,,,,,,ピク　パツ　ドキ　ルピン,right,11.71,,,,,,0,11,11,17,1,,,,,,,,,,,,,,,,,,,,,,,,,ピク　パツ　ドキ　ルピン,パツ　ピク　ドキ　ルピン,1
,,,,,,,,,R_11Xw7Ti6WhciWxA,2022-07-04_17h26.29.261,jpn_C02,2022.1.2,Win32,60.0240096,,,,,,,,,,,,,CartoonStims/doctor_punch_boxer_r.jpg,,,,,,,,,,,,,,,,,,,,,,,,,,,,,,,プミ　ピポ　ドキ,right,13.192,,,,,,0,12,12,34,1,,,,,,,,,,,,,,,,,,,,,,,,,プミ　ピポ　ドキ,プミ　ピポ　ドキ,0
,,,,,,,,,R_11Xw7Ti6WhciWxA,2022-07-04_17h26.29.261,jpn_C02,2022.1.2,Win32,60.0240096,,,,,,,,,,,,,CartoonStims/burglar_punch_doctor_r_no.jpg,,,,,,,,,,,,,,,,,,,,,,,,,,,,,,,ピク　プミ　ルピン　ピポ,right,16.001,,,,,,0,13,13,19,1,,,,,,,,,,,,,,,,,,,,,,,,,ピク　プミ　ルピン　ピポ,プミ　ピク　ルピン　ピポ,1
,,,,,,,,,R_11Xw7Ti6WhciWxA,2022-07-04_17h26.29.261,jpn_C02,2022.1.2,Win32,60.0240096,,,,,,,,,,,,,CartoonStims/doctor_kick_cowboy_r_no.jpg,,,,,,,,,,,,,,,,,,,,,,,,,,,,,,,ピク　セル　ピポ　ムク,right,12.443,,,,,,0,14,14,4,1,,,,,,,,,,,,,,,,,,,,,,,,,ピク　セル　ピポ　ムク,セル　ピク　ピポ　ムク,1
,,,,,,,,,R_11Xw7Ti6WhciWxA,2022-07-04_17h26.29.261,jpn_C02,2022.1.2,Win32,60.0240096,,,,,,,,,,,,,CartoonStims/boxer_kick_doctor_r_no.jpg,,,,,,,,,,,,,,,,,,,,,,,,,,,,,,,ピク　セル　ドキ　ピポ,right,10.79,,,,,,0,15,15,5,1,,,,,,,,,,,,,,,,,,,,,,,,,ピク　セル　ドキ　ピポ,セル　ピク　ドキ　ピポ,1
,,,,,,,,,R_11Xw7Ti6WhciWxA,2022-07-04_17h26.29.261,jpn_C02,2022.1.2,Win32,60.0240096,,,,,,,,,,,,,CartoonStims/artist_kick_boxer_r_no.jpg,,,,,,,,,,,,,,,,,,,,,,,,,,,,,,,ピク　セル　シド　ドキ,right,12.659,,,,,,0,16,16,0,1,,,,,,,,,,,,,,,,,,,,,,,,,ピク　セル　シド　ドキ,セル　ピク　シド　ドキ,1
,,,,,,,,,R_11Xw7Ti6WhciWxA,2022-07-04_17h26.29.261,jpn_C02,2022.1.2,Win32,60.0240096,,,,,,,,,,,,,CartoonStims/burglar_shoot_chef_r.jpg,,,,,,,,,,,,,,,,,,,,,,,,,,,,,,,パツ　ルピン　ホレト,right,10.287,,,,,,0,17,17,30,1,,,,,,,,,,,,,,,,,,,,,,,,,パツ　ルピン　ホレト,パツ　ルピン　ホレト,0
,,,,,,,,,R_11Xw7Ti6WhciWxA,2022-07-04_17h26.29.261,jpn_C02,2022.1.2,Win32,60.0240096,,,,,,,,,,,,,CartoonStims/chef_shoot_cowboy_r.jpg,,,,,,,,,,,,,,,,,,,,,,,,,,,,,,,パツ　ホレト　ムク,right,9.356,,,,,,0,18,18,31,1,,,,,,,,,,,,,,,,,,,,,,,,,パツ　ホレト　ムク,パツ　ホレト　ムク,0
,,,,,,,,,R_11Xw7Ti6WhciWxA,2022-07-04_17h26.29.261,jpn_C02,2022.1.2,Win32,60.0240096,,,,,,,,,,,,,CartoonStims/artist_shoot_chef_r_no.jpg,,,,,,,,,,,,,,,,,,,,,,,,,,,,,,,ピク　パツ　シド　ホレト,right,14.389,,,,,,0,19,19,12,1,,,,,,,,,,,,,,,,,,,,,,,,,ピク　パツ　シド　ホレト,パツ　ピク　シド　ホレト,1
,,,,,,,,,R_11Xw7Ti6WhciWxA,2022-07-04_17h26.29.261,jpn_C02,2022.1.2,Win32,60.0240096,,,,,,,,,,,,,CartoonStims/burglar_shoot_cowboy_r_no.jpg,,,,,,,,,,,,,,,,,,,,,,,,,,,,,,,ピク　パツ　ルピン　ムク,right,13.479,,,,,,0,20,20,13,1,,,,,,,,,,,,,,,,,,,,,,,,,ピク　パツ　ルピン　ムク,パツ　ピク　ルピン　ムク,1
,,,,,,,,,R_11Xw7Ti6WhciWxA,2022-07-04_17h26.29.261,jpn_C02,2022.1.2,Win32,60.0240096,,,,,,,,,,,,,CartoonStims/chef_punch_boxer_r_no.jpg,,,,,,,,,,,,,,,,,,,,,,,,,,,,,,,ピク　プミ　ホレト　ドキ,right,11.832,,,,,,0,21,21,20,1,,,,,,,,,,,,,,,,,,,,,,,,,ピク　プミ　ホレト　ドキ,プミ　ピク　ホレト　ドキ,1
,,,,,,,,,R_11Xw7Ti6WhciWxA,2022-07-04_17h26.29.261,jpn_C02,2022.1.2,Win32,60.0240096,,,,,,,,,,,,,CartoonStims/burglar_point_chef_r_no.jpg,,,,,,,,,,,,,,,,,,,,,,,,,,,,,,,ピク　トマ,right,4.479,,,,,,0,22,22,7,1,,,,,,,,,,,,,,,,,,,,,,,,,ピク　トマ　ルピン　ホレト,トマ　ピク　ルピン　ホレト,1
,,,,,,,,,R_11Xw7Ti6WhciWxA,2022-07-04_17h26.29.261,jpn_C02,2022.1.2,Win32,60.0240096,,,,,,,,,,,,,CartoonStims/chef_shoot_doctor_r_no.jpg,,,,,,,,,,,,,,,,,,,,,,,,,,,,,,,ピク　パツ　ホレト　ピポ,right,31.807,,,,,,0,23,23,14,1,,,,,,,,,,,,,,,,,,,,,,,,,ピク　パツ　ホレト　ピポ,パツ　ピク　ホレト　ピポ,1
,,,,,,,,,R_11Xw7Ti6WhciWxA,2022-07-04_17h26.29.261,jpn_C02,2022.1.2,Win32,60.0240096,,,,,,,,,,,,,CartoonStims/boxer_punch_chef_r_no.jpg,,,,,,,,,,,,,,,,,,,,,,,,,,,,,,,ピク　プミ　ドキ　ホレト,right,13.441,,,,,,0,24,24,23,1,,,,,,,,,,,,,,,,,,,,,,,,,ピク　プミ　ドキ　ホレト,プミ　ピク　ドキ　ホレト,1
,,,,,,,,,R_11Xw7Ti6WhciWxA,2022-07-04_17h26.29.261,jpn_C02,2022.1.2,Win32,60.0240096,,,,,,,,,,,,,CartoonStims/boxer_kick_cowboy_r.jpg,,,,,,,,,,,,,,,,,,,,,,,,,,,,,,,セル　ドキ　ムク,right,10.078,,,,,,0,25,25,26,1,,,,,,,,,,,,,,,,,,,,,,,,,セル　ドキ　ムク,セル　ドキ　ムク,0
,,,,,,,,,R_11Xw7Ti6WhciWxA,2022-07-04_17h26.29.261,jpn_C02,2022.1.2,Win32,60.0240096,,,,,,,,,,,,,CartoonStims/burglar_kick_artist_r_no.jpg,,,,,,,,,,,,,,,,,,,,,,,,,,,,,,,ピク　セル　ルピン　シド,right,10.878,,,,,,0,26,26,1,1,,,,,,,,,,,,,,,,,,,,,,,,,ピク　セル　ルピン　シド,セル　ピク　ルピン　シド,1
,,,,,,,,,R_11Xw7Ti6WhciWxA,2022-07-04_17h26.29.261,jpn_C02,2022.1.2,Win32,60.0240096,,,,,,,,,,,,,CartoonStims/cowboy_punch_artist_r_no.jpg,,,,,,,,,,,,,,,,,,,,,,,,,,,,,,,ピク　プミ　ムク　シド,right,13.155,,,,,,0,27,27,21,1,,,,,,,,,,,,,,,,,,,,,,,,,ピク　プミ　ムク　シド,プミ　ピク　ムク　シド,1
,,,,,,,,,R_11Xw7Ti6WhciWxA,2022-07-04_17h26.29.261,jpn_C02,2022.1.2,Win32,60.0240096,,,,,,,,,,,,,CartoonStims/cowboy_kick_burglar_r.jpg,,,,,,,,,,,,,,,,,,,,,,,,,,,,,,,セル　ムク　ルピン,right,9.376,,,,,,0,28,28,24,1,,,,,,,,,,,,,,,,,,,,,,,,,セル　ムク　ルピン,セル　ムク　ルピン,0
,,,,,,,,,R_11Xw7Ti6WhciWxA,2022-07-04_17h26.29.261,jpn_C02,2022.1.2,Win32,60.0240096,,,,,,,,,,,,,CartoonStims/burglar_point_artist_r.jpg,,,,,,,,,,,,,,,,,,,,,,,,,,,,,,,トマ　ルピン　シド,right,7.349,,,,,,0,29,29,28,1,,,,,,,,,,,,,,,,,,,,,,,,,トマ　ルピン　シド,トマ　ルピン　シド,0
,,,,,,,,,R_11Xw7Ti6WhciWxA,2022-07-04_17h26.29.261,jpn_C02,2022.1.2,Win32,60.0240096,,,,,,,,,,,,,CartoonStims/boxer_punch_artist_r.jpg,,,,,,,,,,,,,,,,,,,,,,,,,,,,,,,プミ　ドキ　シド,right,8.382,,,,,,0,30,30,35,1,,,,,,,,,,,,,,,,,,,,,,,,,プミ　ドキ　シド,プミ　ドキ　シド,0
,,,,,,,,,R_11Xw7Ti6WhciWxA,2022-07-04_17h26.29.261,jpn_C02,2022.1.2,Win32,60.0240096,,,,,,,,,,,,,CartoonStims/doctor_shoot_artist_r_no.jpg,,,,,,,,,,,,,,,,,,,,,,,,,,,,,,,ピク　パツ　ピポ　シド,right,12.255,,,,,,0,31,31,16,1,,,,,,,,,,,,,,,,,,,,,,,,,ピク　パツ　ピポ　シド,パツ　ピク　ピポ　シド,1
,,,,,,,,,R_11Xw7Ti6WhciWxA,2022-07-04_17h26.29.261,jpn_C02,2022.1.2,Win32,60.0240096,,,,,,,,,,,,,CartoonStims/chef_kick_burglar_r_no.jpg,,,,,,,,,,,,,,,,,,,,,,,,,,,,,,,ピク　セル　ホレト　ルピン,right,13.589,,,,,,0,32,32,2,1,,,,,,,,,,,,,,,,,,,,,,,,,ピク　セル　ホレト　ルピン,セル　ピク　ホレト　ルピン,1
,,,,,,,,,R_11Xw7Ti6WhciWxA,2022-07-04_17h26.29.261,jpn_C02,2022.1.2,Win32,60.0240096,,,,,,,,,,,,,CartoonStims/doctor_point_boxer_r_no.jpg,,,,,,,,,,,,,,,,,,,,,,,,,,,,,,,ピク　トマ　ピポ　ドキ,right,15.348,,,,,,0,33,33,10,1,,,,,,,,,,,,,,,,,,,,,,,,,ピク　トマ　ピポ　ドキ,トマ　ピク　ピポ　ドキ,1
,,,,,,,,,R_11Xw7Ti6WhciWxA,2022-07-04_17h26.29.261,jpn_C02,2022.1.2,Win32,60.0240096,,,,,,,,,,,,,CartoonStims/doctor_punch_burglar_r_no.jpg,,,,,,,,,,,,,,,,,,,,,,,,,,,,,,,ピク　プミ　ピポ　ルピン,right,16.478,,,,,,0,34,34,22,1,,,,,,,,,,,,,,,,,,,,,,,,,ピク　プミ　ピポ　ルピン,プミ　ピク　ピポ　ルピン,1
,,,,,,,,,R_11Xw7Ti6WhciWxA,2022-07-04_17h26.29.261,jpn_C02,2022.1.2,Win32,60.0240096,,,,,,,,,,,,,CartoonStims/artist_point_burglar_r_no.jpg,,,,,,,,,,,,,,,,,,,,,,,,,,,,,,,ピク　トマ　シド　ルピン,right,16.389,,,,,,0,35,35,6,1,,,,,,,,,,,,,,,,,,,,,,,,,ピク　トマ　シド　ルピン,トマ　ピク　シド　ルピン,1
,,,,,,,,,R_11Xw7Ti6WhciWxA,2022-07-04_17h26.29.261,jpn_C02,2022.1.2,Win32,60.0240096,,,,,,,,,,,,,,,,,,,,,,,,,,,,,,,,,,,,,,,,,,,,,,,,,,,,,,,,,,,space,1.767,0,2,2,2,1,NegVCondition.xlsx,"ここではこの言語における否定の文を学習していただきます。引き続き注意して、 聞こえた音を復唱してください。

スペースキーを押してください。",1,NegVFCT.xlsx,ここからクイズが始まります。 スクリーンに表示されるテキストに合うイメージを選んでください。,NegTest.xlsx,1,最後にここまで学んだことをアウトプットしていただきます。 テキストボックスにあるイメージを描写するテキストを入力してください。 このタスクでは、 答え合わせは行いません。,0,これですべての実験が終わりました。 お疲れさまです。 この後はアンケートに答えていただきます。,,,,,,,,