key_resp_instr_a.keys,key_resp_instr_a.rt,key_resp_instr_b.keys,key_resp_instr_b.rt,dummy.thisRepN,dummy.thisTrialN,dummy.thisN,dummy.thisIndex,dummy.ran,participant,date,expName,psychopyVersion,OS,frameRate,key_resp_instr1.keys,key_resp_instr1.rt,key_resp.keys,key_resp.rt,exp_loop.thisRepN,exp_loop.thisTrialN,exp_loop.thisN,exp_loop.thisIndex,exp_loop.ran,Word,English,Flip,Path,Audio,key_resp_instr2.keys,key_resp_instr2.rt,key_resp_fct.keys,key_resp_fct.corr,key_resp_fct.rt,trials.thisRepN,trials.thisTrialN,trials.thisN,trials.thisIndex,trials.ran,fct_loop.thisRepN,fct_loop.thisTrialN,fct_loop.thisN,fct_loop.thisIndex,fct_loop.ran,left_img,word,right_img,correctans,correct_img,audio,incorrect_feedback,trials_2.thisRepN,trials_2.thisTrialN,trials_2.thisN,trials_2.thisIndex,trials_2.ran,key_resp_instr3.keys,key_resp_instr3.rt,textbox.text,key_resp_2.keys,key_resp_2.rt,fb_yn.thisRepN,fb_yn.thisTrialN,fb_yn.thisN,fb_yn.thisIndex,fb_yn.ran,gather_loop.thisRepN,gather_loop.thisTrialN,gather_loop.thisN,gather_loop.thisIndex,gather_loop.ran,Text,Wordbank,key_resp_instr4.keys,key_resp_instr4.rt,master_loop.thisRepN,master_loop.thisTrialN,master_loop.thisN,master_loop.thisIndex,master_loop.ran,exposure_file,instr_1,exp_reps,fct_file,instr_2,gather_file,gather_reps,instr_3,fReps,instr_4,trials_4.thisRepN,trials_4.thisTrialN,trials_4.thisN,trials_4.thisIndex,trials_4.ran,NegVSentence,VNegSentence,NegTF
space,1988.717,space,8.394,0,0,0,0,1,R_erOjci0FTDxwfbH,2022-06-25_09h16.18.080,jpn_C01,2022.1.2,MacIntel,58.82352941,,,,,,,,,,,,,,,,,,,,,,,,,,,,,,,,,,,,,,,,,,,,,,,,,,,,,,,,,,,,,,,,,,,,,,,,,,,,,,,,,,,
,,,,,,,,,R_erOjci0FTDxwfbH,2022-06-25_09h16.18.080,jpn_C01,2022.1.2,MacIntel,58.82352941,space,5.687,space,4.916,0,0,0,1,1,ルピン,burglar,,CartoonStims/burglar_r.jpg,audio/lupin.mp3,,,,,,,,,,,,,,,,,,,,,,,,,,,,,,,,,,,,,,,,,,,,,,,,,,,,,,,,,,,,,,,,,,,,,
,,,,,,,,,R_erOjci0FTDxwfbH,2022-06-25_09h16.18.080,jpn_C01,2022.1.2,MacIntel,58.82352941,,,space,4.628,0,1,1,2,1,ホレト,chef,,CartoonStims/chef_r.jpg,audio/horeto.mp3,,,,,,,,,,,,,,,,,,,,,,,,,,,,,,,,,,,,,,,,,,,,,,,,,,,,,,,,,,,,,,,,,,,,,
,,,,,,,,,R_erOjci0FTDxwfbH,2022-06-25_09h16.18.080,jpn_C01,2022.1.2,MacIntel,58.82352941,,,space,2.196,0,2,2,0,1,シド,artist,,CartoonStims/artist_r.jpg,audio/sido.mp3,,,,,,,,,,,,,,,,,,,,,,,,,,,,,,,,,,,,,,,,,,,,,,,,,,,,,,,,,,,,,,,,,,,,,
,,,,,,,,,R_erOjci0FTDxwfbH,2022-06-25_09h16.18.080,jpn_C01,2022.1.2,MacIntel,58.82352941,,,space,3.45,0,3,3,3,1,ムク,cowboy,,CartoonStims/cowboy_r.jpg,audio/muku.mp3,,,,,,,,,,,,,,,,,,,,,,,,,,,,,,,,,,,,,,,,,,,,,,,,,,,,,,,,,,,,,,,,,,,,,
,,,,,,,,,R_erOjci0FTDxwfbH,2022-06-25_09h16.18.080,jpn_C01,2022.1.2,MacIntel,58.82352941,,,space,2.081,0,4,4,5,1,ドキ,boxer,,CartoonStims/boxer_r.jpg,audio/doki.mp3,,,,,,,,,,,,,,,,,,,,,,,,,,,,,,,,,,,,,,,,,,,,,,,,,,,,,,,,,,,,,,,,,,,,,
,,,,,,,,,R_erOjci0FTDxwfbH,2022-06-25_09h16.18.080,jpn_C01,2022.1.2,MacIntel,58.82352941,,,space,5.503,0,5,5,4,1,ピポ,doctor,,CartoonStims/doctor_r.jpg,audio/pipo.mp3,,,,,,,,,,,,,,,,,,,,,,,,,,,,,,,,,,,,,,,,,,,,,,,,,,,,,,,,,,,,,,,,,,,,,
,,,,,,,,,R_erOjci0FTDxwfbH,2022-06-25_09h16.18.080,jpn_C01,2022.1.2,MacIntel,58.82352941,,,space,1.904,1,0,6,2,1,ホレト,chef,,CartoonStims/chef_r.jpg,audio/horeto.mp3,,,,,,,,,,,,,,,,,,,,,,,,,,,,,,,,,,,,,,,,,,,,,,,,,,,,,,,,,,,,,,,,,,,,,
,,,,,,,,,R_erOjci0FTDxwfbH,2022-06-25_09h16.18.080,jpn_C01,2022.1.2,MacIntel,58.82352941,,,space,0.611,1,1,7,4,1,ピポ,doctor,,CartoonStims/doctor_r.jpg,audio/pipo.mp3,,,,,,,,,,,,,,,,,,,,,,,,,,,,,,,,,,,,,,,,,,,,,,,,,,,,,,,,,,,,,,,,,,,,,
,,,,,,,,,R_erOjci0FTDxwfbH,2022-06-25_09h16.18.080,jpn_C01,2022.1.2,MacIntel,58.82352941,,,space,0.328,1,2,8,3,1,ムク,cowboy,,CartoonStims/cowboy_r.jpg,audio/muku.mp3,,,,,,,,,,,,,,,,,,,,,,,,,,,,,,,,,,,,,,,,,,,,,,,,,,,,,,,,,,,,,,,,,,,,,
,,,,,,,,,R_erOjci0FTDxwfbH,2022-06-25_09h16.18.080,jpn_C01,2022.1.2,MacIntel,58.82352941,,,space,0.277,1,3,9,5,1,ドキ,boxer,,CartoonStims/boxer_r.jpg,audio/doki.mp3,,,,,,,,,,,,,,,,,,,,,,,,,,,,,,,,,,,,,,,,,,,,,,,,,,,,,,,,,,,,,,,,,,,,,
,,,,,,,,,R_erOjci0FTDxwfbH,2022-06-25_09h16.18.080,jpn_C01,2022.1.2,MacIntel,58.82352941,,,space,0.918,1,4,10,0,1,シド,artist,,CartoonStims/artist_r.jpg,audio/sido.mp3,,,,,,,,,,,,,,,,,,,,,,,,,,,,,,,,,,,,,,,,,,,,,,,,,,,,,,,,,,,,,,,,,,,,,
,,,,,,,,,R_erOjci0FTDxwfbH,2022-06-25_09h16.18.080,jpn_C01,2022.1.2,MacIntel,58.82352941,,,space,0.427,1,5,11,1,1,ルピン,burglar,,CartoonStims/burglar_r.jpg,audio/lupin.mp3,,,,,,,,,,,,,,,,,,,,,,,,,,,,,,,,,,,,,,,,,,,,,,,,,,,,,,,,,,,,,,,,,,,,,
,,,,,,,,,R_erOjci0FTDxwfbH,2022-06-25_09h16.18.080,jpn_C01,2022.1.2,MacIntel,58.82352941,,,space,0.419,2,0,12,3,1,ムク,cowboy,,CartoonStims/cowboy_r.jpg,audio/muku.mp3,,,,,,,,,,,,,,,,,,,,,,,,,,,,,,,,,,,,,,,,,,,,,,,,,,,,,,,,,,,,,,,,,,,,,
,,,,,,,,,R_erOjci0FTDxwfbH,2022-06-25_09h16.18.080,jpn_C01,2022.1.2,MacIntel,58.82352941,,,space,0.764,2,1,13,4,1,ピポ,doctor,,CartoonStims/doctor_r.jpg,audio/pipo.mp3,,,,,,,,,,,,,,,,,,,,,,,,,,,,,,,,,,,,,,,,,,,,,,,,,,,,,,,,,,,,,,,,,,,,,
,,,,,,,,,R_erOjci0FTDxwfbH,2022-06-25_09h16.18.080,jpn_C01,2022.1.2,MacIntel,58.82352941,,,space,0.94,2,2,14,5,1,ドキ,boxer,,CartoonStims/boxer_r.jpg,audio/doki.mp3,,,,,,,,,,,,,,,,,,,,,,,,,,,,,,,,,,,,,,,,,,,,,,,,,,,,,,,,,,,,,,,,,,,,,
,,,,,,,,,R_erOjci0FTDxwfbH,2022-06-25_09h16.18.080,jpn_C01,2022.1.2,MacIntel,58.82352941,,,space,0.817,2,3,15,2,1,ホレト,chef,,CartoonStims/chef_r.jpg,audio/horeto.mp3,,,,,,,,,,,,,,,,,,,,,,,,,,,,,,,,,,,,,,,,,,,,,,,,,,,,,,,,,,,,,,,,,,,,,
,,,,,,,,,R_erOjci0FTDxwfbH,2022-06-25_09h16.18.080,jpn_C01,2022.1.2,MacIntel,58.82352941,,,space,1.447,2,4,16,0,1,シド,artist,,CartoonStims/artist_r.jpg,audio/sido.mp3,,,,,,,,,,,,,,,,,,,,,,,,,,,,,,,,,,,,,,,,,,,,,,,,,,,,,,,,,,,,,,,,,,,,,
,,,,,,,,,R_erOjci0FTDxwfbH,2022-06-25_09h16.18.080,jpn_C01,2022.1.2,MacIntel,58.82352941,,,space,0.814,2,5,17,1,1,ルピン,burglar,,CartoonStims/burglar_r.jpg,audio/lupin.mp3,,,,,,,,,,,,,,,,,,,,,,,,,,,,,,,,,,,,,,,,,,,,,,,,,,,,,,,,,,,,,,,,,,,,,
,,,,,,,,,R_erOjci0FTDxwfbH,2022-06-25_09h16.18.080,jpn_C01,2022.1.2,MacIntel,58.82352941,,,,,,,,,,,,,,,space,0.931,left,1,3.568,0,0,0,0,1,,,,,,,,,,,,,,,,,,,,,,,,,,,,,,,,,,,,,,,,,,,,,,,,,,,,,,,,,,,
,,,,,,,,,R_erOjci0FTDxwfbH,2022-06-25_09h16.18.080,jpn_C01,2022.1.2,MacIntel,58.82352941,,,,,,,,,,,,,,,,,,,,,,,,,0,0,0,0,1,CartoonStims/artist_r.jpg,シド,CartoonStims/burglar_r.jpg,left,CartoonStims/artist_r.jpg,audio/sido.mp3,残念！ こちらが正しい画像です。,,,,,,,,,,,,,,,,,,,,,,,,,,,,,,,,,,,,,,,,,,,,,,,
,,,,,,,,,R_erOjci0FTDxwfbH,2022-06-25_09h16.18.080,jpn_C01,2022.1.2,MacIntel,58.82352941,,,,,,,,,,,,,,,,,left,1,2.582,0,0,0,0,1,,,,,,,,,,,,,,,,,,,,,,,,,,,,,,,,,,,,,,,,,,,,,,,,,,,,,,,,,,,
,,,,,,,,,R_erOjci0FTDxwfbH,2022-06-25_09h16.18.080,jpn_C01,2022.1.2,MacIntel,58.82352941,,,,,,,,,,,,,,,,,,,,,,,,,0,1,1,3,1,CartoonStims/cowboy_r.jpg,ムク,CartoonStims/doctor_r.jpg,left,CartoonStims/cowboy_r.jpg,audio/muku.mp3,残念！ こちらが正しい画像です。,,,,,,,,,,,,,,,,,,,,,,,,,,,,,,,,,,,,,,,,,,,,,,,
,,,,,,,,,R_erOjci0FTDxwfbH,2022-06-25_09h16.18.080,jpn_C01,2022.1.2,MacIntel,58.82352941,,,,,,,,,,,,,,,,,right,1,1.136,,,,,,,,,,,,,,,,,,0,0,0,0,1,,,,,,,,,,,,,,,,,,,,,,,,,,,,,,,,,,,,,,,,,,
,,,,,,,,,R_erOjci0FTDxwfbH,2022-06-25_09h16.18.080,jpn_C01,2022.1.2,MacIntel,58.82352941,,,,,,,,,,,,,,,,,,,,,,,,,0,2,2,9,1,CartoonStims/boxer_r.jpg,ムク,CartoonStims/cowboy_r.jpg,right,CartoonStims/cowboy_r.jpg,audio/muku.mp3,残念！ こちらが正しい画像です。,,,,,,,,,,,,,,,,,,,,,,,,,,,,,,,,,,,,,,,,,,,,,,,
,,,,,,,,,R_erOjci0FTDxwfbH,2022-06-25_09h16.18.080,jpn_C01,2022.1.2,MacIntel,58.82352941,,,,,,,,,,,,,,,,,left,1,0.216,0,0,0,0,1,,,,,,,,,,,,,,,,,,,,,,,,,,,,,,,,,,,,,,,,,,,,,,,,,,,,,,,,,,,
,,,,,,,,,R_erOjci0FTDxwfbH,2022-06-25_09h16.18.080,jpn_C01,2022.1.2,MacIntel,58.82352941,,,,,,,,,,,,,,,,,,,,,,,,,0,3,3,1,1,CartoonStims/burglar_r.jpg,ルピン,CartoonStims/chef_r.jpg,left,CartoonStims/burglar_r.jpg,audio/lupin.mp3,残念！ こちらが正しい画像です。,,,,,,,,,,,,,,,,,,,,,,,,,,,,,,,,,,,,,,,,,,,,,,,
,,,,,,,,,R_erOjci0FTDxwfbH,2022-06-25_09h16.18.080,jpn_C01,2022.1.2,MacIntel,58.82352941,,,,,,,,,,,,,,,,,left,1,1.183,0,0,0,0,1,,,,,,,,,,,,,,,,,,,,,,,,,,,,,,,,,,,,,,,,,,,,,,,,,,,,,,,,,,,
,,,,,,,,,R_erOjci0FTDxwfbH,2022-06-25_09h16.18.080,jpn_C01,2022.1.2,MacIntel,58.82352941,,,,,,,,,,,,,,,,,,,,,,,,,0,4,4,4,1,CartoonStims/doctor_r.jpg,ピポ,CartoonStims/boxer_r.jpg,left,CartoonStims/doctor_r.jpg,audio/pipo.mp3,残念！ こちらが正しい画像です。,,,,,,,,,,,,,,,,,,,,,,,,,,,,,,,,,,,,,,,,,,,,,,,
,,,,,,,,,R_erOjci0FTDxwfbH,2022-06-25_09h16.18.080,jpn_C01,2022.1.2,MacIntel,58.82352941,,,,,,,,,,,,,,,,,left,1,1.183,0,0,0,0,1,,,,,,,,,,,,,,,,,,,,,,,,,,,,,,,,,,,,,,,,,,,,,,,,,,,,,,,,,,,
,,,,,,,,,R_erOjci0FTDxwfbH,2022-06-25_09h16.18.080,jpn_C01,2022.1.2,MacIntel,58.82352941,,,,,,,,,,,,,,,,,,,,,,,,,0,5,5,5,1,CartoonStims/boxer_r.jpg,ドキ,CartoonStims/artist_r.jpg,left,CartoonStims/boxer_r.jpg,audio/doki.mp3,残念！ こちらが正しい画像です。,,,,,,,,,,,,,,,,,,,,,,,,,,,,,,,,,,,,,,,,,,,,,,,
,,,,,,,,,R_erOjci0FTDxwfbH,2022-06-25_09h16.18.080,jpn_C01,2022.1.2,MacIntel,58.82352941,,,,,,,,,,,,,,,,,right,1,0.401,,,,,,,,,,,,,,,,,,0,0,0,0,1,,,,,,,,,,,,,,,,,,,,,,,,,,,,,,,,,,,,,,,,,,
,,,,,,,,,R_erOjci0FTDxwfbH,2022-06-25_09h16.18.080,jpn_C01,2022.1.2,MacIntel,58.82352941,,,,,,,,,,,,,,,,,,,,,,,,,0,6,6,11,1,CartoonStims/burglar_r.jpg,ドキ,CartoonStims/boxer_r.jpg,right,CartoonStims/boxer_r.jpg,audio/doki.mp3,残念！ こちらが正しい画像です。,,,,,,,,,,,,,,,,,,,,,,,,,,,,,,,,,,,,,,,,,,,,,,,
,,,,,,,,,R_erOjci0FTDxwfbH,2022-06-25_09h16.18.080,jpn_C01,2022.1.2,MacIntel,58.82352941,,,,,,,,,,,,,,,,,right,1,1.685,,,,,,,,,,,,,,,,,,0,0,0,0,1,,,,,,,,,,,,,,,,,,,,,,,,,,,,,,,,,,,,,,,,,,
,,,,,,,,,R_erOjci0FTDxwfbH,2022-06-25_09h16.18.080,jpn_C01,2022.1.2,MacIntel,58.82352941,,,,,,,,,,,,,,,,,,,,,,,,,0,7,7,8,1,CartoonStims/doctor_r.jpg,ホレト,CartoonStims/chef_r.jpg,right,CartoonStims/chef_r.jpg,audio/horeto.mp3,残念！ こちらが正しい画像です。,,,,,,,,,,,,,,,,,,,,,,,,,,,,,,,,,,,,,,,,,,,,,,,
,,,,,,,,,R_erOjci0FTDxwfbH,2022-06-25_09h16.18.080,jpn_C01,2022.1.2,MacIntel,58.82352941,,,,,,,,,,,,,,,,,right,1,1.58,,,,,,,,,,,,,,,,,,0,0,0,0,1,,,,,,,,,,,,,,,,,,,,,,,,,,,,,,,,,,,,,,,,,,
,,,,,,,,,R_erOjci0FTDxwfbH,2022-06-25_09h16.18.080,jpn_C01,2022.1.2,MacIntel,58.82352941,,,,,,,,,,,,,,,,,,,,,,,,,0,8,8,6,1,CartoonStims/chef_r.jpg,シド,CartoonStims/artist_r.jpg,right,CartoonStims/artist_r.jpg,audio/sido.mp3,残念！ こちらが正しい画像です。,,,,,,,,,,,,,,,,,,,,,,,,,,,,,,,,,,,,,,,,,,,,,,,
,,,,,,,,,R_erOjci0FTDxwfbH,2022-06-25_09h16.18.080,jpn_C01,2022.1.2,MacIntel,58.82352941,,,,,,,,,,,,,,,,,right,1,1.254,,,,,,,,,,,,,,,,,,0,0,0,0,1,,,,,,,,,,,,,,,,,,,,,,,,,,,,,,,,,,,,,,,,,,
,,,,,,,,,R_erOjci0FTDxwfbH,2022-06-25_09h16.18.080,jpn_C01,2022.1.2,MacIntel,58.82352941,,,,,,,,,,,,,,,,,,,,,,,,,0,9,9,7,1,CartoonStims/cowboy_r.jpg,ルピン,CartoonStims/burglar_r.jpg,right,CartoonStims/burglar_r.jpg,audio/lupin.mp3,残念！ こちらが正しい画像です。,,,,,,,,,,,,,,,,,,,,,,,,,,,,,,,,,,,,,,,,,,,,,,,
,,,,,,,,,R_erOjci0FTDxwfbH,2022-06-25_09h16.18.080,jpn_C01,2022.1.2,MacIntel,58.82352941,,,,,,,,,,,,,,,,,left,1,3.667,0,0,0,0,1,,,,,,,,,,,,,,,,,,,,,,,,,,,,,,,,,,,,,,,,,,,,,,,,,,,,,,,,,,,
,,,,,,,,,R_erOjci0FTDxwfbH,2022-06-25_09h16.18.080,jpn_C01,2022.1.2,MacIntel,58.82352941,,,,,,,,,,,,,,,,,,,,,,,,,0,10,10,2,1,CartoonStims/chef_r.jpg,ホレト,CartoonStims/cowboy_r.jpg,left,CartoonStims/chef_r.jpg,audio/horeto.mp3,残念！ こちらが正しい画像です。,,,,,,,,,,,,,,,,,,,,,,,,,,,,,,,,,,,,,,,,,,,,,,,
,,,,,,,,,R_erOjci0FTDxwfbH,2022-06-25_09h16.18.080,jpn_C01,2022.1.2,MacIntel,58.82352941,,,,,,,,,,,,,,,,,right,1,0.484,,,,,,,,,,,,,,,,,,0,0,0,0,1,,,,,,,,,,,,,,,,,,,,,,,,,,,,,,,,,,,,,,,,,,
,,,,,,,,,R_erOjci0FTDxwfbH,2022-06-25_09h16.18.080,jpn_C01,2022.1.2,MacIntel,58.82352941,,,,,,,,,,,,,,,,,,,,,,,,,0,11,11,10,1,CartoonStims/artist_r.jpg,ピポ,CartoonStims/doctor_r.jpg,right,CartoonStims/doctor_r.jpg,audio/pipo.mp3,残念！ こちらが正しい画像です。,,,,,,,,,,,,,,,,,,,,,,,,,,,,,,,,,,,,,,,,,,,,,,,
,,,,,,,,,R_erOjci0FTDxwfbH,2022-06-25_09h16.18.080,jpn_C01,2022.1.2,MacIntel,58.82352941,,,,,,,,,,,,,,,,,,,,,,,,,,,,,,,,,,,,,,,,,,space,1.532,,right,4.999,0,0,0,0,1,,,,,,,,,,,,,,,,,,,,,,,,,,,,,,,,
,,,,,,,,,R_erOjci0FTDxwfbH,2022-06-25_09h16.18.080,jpn_C01,2022.1.2,MacIntel,58.82352941,,,,,,,,,,,,,CartoonStims/cowboy_r.jpg,audio/muku.mp3,,,,,,,,,,,,,,,,,,,,,,,,,,,,,,,,,,,,,,0,0,0,3,1,ムク,,,,,,,,,,,,,,,,,,,,,,,,,,
,,,,,,,,,R_erOjci0FTDxwfbH,2022-06-25_09h16.18.080,jpn_C01,2022.1.2,MacIntel,58.82352941,,,,,,,,,,,,,,,,,,,,,,,,,,,,,,,,,,,,,,,,,,,,ピポ,right,3.998,0,0,0,0,1,,,,,,,,,,,,,,,,,,,,,,,,,,,,,,,,
,,,,,,,,,R_erOjci0FTDxwfbH,2022-06-25_09h16.18.080,jpn_C01,2022.1.2,MacIntel,58.82352941,,,,,,,,,,,,,CartoonStims/doctor_r.jpg,audio/pipo.mp3,,,,,,,,,,,,,,,,,,,,,,,,,,,,,,,,,,,,,,0,1,1,4,1,ピポ,,,,,,,,,,,,,,,,,,,,,,,,,,
,,,,,,,,,R_erOjci0FTDxwfbH,2022-06-25_09h16.18.080,jpn_C01,2022.1.2,MacIntel,58.82352941,,,,,,,,,,,,,,,,,,,,,,,,,,,,,,,,,,,,,,,,,,,,ホクレ,right,8.458,0,0,0,0,1,,,,,,,,,,,,,,,,,,,,,,,,,,,,,,,,
,,,,,,,,,R_erOjci0FTDxwfbH,2022-06-25_09h16.18.080,jpn_C01,2022.1.2,MacIntel,58.82352941,,,,,,,,,,,,,CartoonStims/artist_r.jpg,audio/sido.mp3,,,,,,,,,,,,,,,,,,,,,,,,,,,,,,,,,,,,,,0,2,2,0,1,シド,,,,,,,,,,,,,,,,,,,,,,,,,,
,,,,,,,,,R_erOjci0FTDxwfbH,2022-06-25_09h16.18.080,jpn_C01,2022.1.2,MacIntel,58.82352941,,,,,,,,,,,,,,,,,,,,,,,,,,,,,,,,,,,,,,,,,,,,ルピン,right,6.8,0,0,0,0,1,,,,,,,,,,,,,,,,,,,,,,,,,,,,,,,,
,,,,,,,,,R_erOjci0FTDxwfbH,2022-06-25_09h16.18.080,jpn_C01,2022.1.2,MacIntel,58.82352941,,,,,,,,,,,,,CartoonStims/burglar_r.jpg,audio/lupin.mp3,,,,,,,,,,,,,,,,,,,,,,,,,,,,,,,,,,,,,,0,3,3,1,1,ルピン,,,,,,,,,,,,,,,,,,,,,,,,,,
,,,,,,,,,R_erOjci0FTDxwfbH,2022-06-25_09h16.18.080,jpn_C01,2022.1.2,MacIntel,58.82352941,,,,,,,,,,,,,,,,,,,,,,,,,,,,,,,,,,,,,,,,,,,,ホクレ,right,10.297,0,0,0,0,1,,,,,,,,,,,,,,,,,,,,,,,,,,,,,,,,
,,,,,,,,,R_erOjci0FTDxwfbH,2022-06-25_09h16.18.080,jpn_C01,2022.1.2,MacIntel,58.82352941,,,,,,,,,,,,,CartoonStims/chef_r.jpg,audio/horeto.mp3,,,,,,,,,,,,,,,,,,,,,,,,,,,,,,,,,,,,,,0,4,4,2,1,ホレト,,,,,,,,,,,,,,,,,,,,,,,,,,
,,,,,,,,,R_erOjci0FTDxwfbH,2022-06-25_09h16.18.080,jpn_C01,2022.1.2,MacIntel,58.82352941,,,,,,,,,,,,,,,,,,,,,,,,,,,,,,,,,,,,,,,,,,,,,right,0.192,0,0,0,0,1,,,,,,,,,,,,,,,,,,,,,,,,,,,,,,,,
,,,,,,,,,R_erOjci0FTDxwfbH,2022-06-25_09h16.18.080,jpn_C01,2022.1.2,MacIntel,58.82352941,,,,,,,,,,,,,CartoonStims/boxer_r.jpg,audio/doki.mp3,,,,,,,,,,,,,,,,,,,,,,,,,,,,,,,,,,,,,,0,5,5,5,1,ドキ,,,,,,,,,,,,,,,,,,,,,,,,,,
,,,,,,,,,R_erOjci0FTDxwfbH,2022-06-25_09h16.18.080,jpn_C01,2022.1.2,MacIntel,58.82352941,,,,,,,,,,,,,,,,,,,,,,,,,,,,,,,,,,,,,,,,,,,,ドキ,right,5.662,0,0,0,0,1,,,,,,,,,,,,,,,,,,,,,,,,,,,,,,,,
,,,,,,,,,R_erOjci0FTDxwfbH,2022-06-25_09h16.18.080,jpn_C01,2022.1.2,MacIntel,58.82352941,,,,,,,,,,,,,CartoonStims/boxer_r.jpg,audio/doki.mp3,,,,,,,,,,,,,,,,,,,,,,,,,,,,,,,,,,,,,,1,0,6,5,1,ドキ,,,,,,,,,,,,,,,,,,,,,,,,,,
,,,,,,,,,R_erOjci0FTDxwfbH,2022-06-25_09h16.18.080,jpn_C01,2022.1.2,MacIntel,58.82352941,,,,,,,,,,,,,,,,,,,,,,,,,,,,,,,,,,,,,,,,,,,,ホレト,right,5.923,0,0,0,0,1,,,,,,,,,,,,,,,,,,,,,,,,,,,,,,,,
,,,,,,,,,R_erOjci0FTDxwfbH,2022-06-25_09h16.18.080,jpn_C01,2022.1.2,MacIntel,58.82352941,,,,,,,,,,,,,CartoonStims/chef_r.jpg,audio/horeto.mp3,,,,,,,,,,,,,,,,,,,,,,,,,,,,,,,,,,,,,,1,1,7,2,1,ホレト,,,,,,,,,,,,,,,,,,,,,,,,,,
,,,,,,,,,R_erOjci0FTDxwfbH,2022-06-25_09h16.18.080,jpn_C01,2022.1.2,MacIntel,58.82352941,,,,,,,,,,,,,,,,,,,,,,,,,,,,,,,,,,,,,,,,,,,,シド,right,7.609,0,0,0,0,1,,,,,,,,,,,,,,,,,,,,,,,,,,,,,,,,
,,,,,,,,,R_erOjci0FTDxwfbH,2022-06-25_09h16.18.080,jpn_C01,2022.1.2,MacIntel,58.82352941,,,,,,,,,,,,,CartoonStims/cowboy_r.jpg,audio/muku.mp3,,,,,,,,,,,,,,,,,,,,,,,,,,,,,,,,,,,,,,1,2,8,3,1,ムク,,,,,,,,,,,,,,,,,,,,,,,,,,
,,,,,,,,,R_erOjci0FTDxwfbH,2022-06-25_09h16.18.080,jpn_C01,2022.1.2,MacIntel,58.82352941,,,,,,,,,,,,,,,,,,,,,,,,,,,,,,,,,,,,,,,,,,,,,right,0.066,0,0,0,0,1,,,,,,,,,,,,,,,,,,,,,,,,,,,,,,,,
,,,,,,,,,R_erOjci0FTDxwfbH,2022-06-25_09h16.18.080,jpn_C01,2022.1.2,MacIntel,58.82352941,,,,,,,,,,,,,CartoonStims/artist_r.jpg,audio/sido.mp3,,,,,,,,,,,,,,,,,,,,,,,,,,,,,,,,,,,,,,1,3,9,0,1,シド,,,,,,,,,,,,,,,,,,,,,,,,,,
,,,,,,,,,R_erOjci0FTDxwfbH,2022-06-25_09h16.18.080,jpn_C01,2022.1.2,MacIntel,58.82352941,,,,,,,,,,,,,,,,,,,,,,,,,,,,,,,,,,,,,,,,,,,,ルピン,right,5.659,0,0,0,0,1,,,,,,,,,,,,,,,,,,,,,,,,,,,,,,,,
,,,,,,,,,R_erOjci0FTDxwfbH,2022-06-25_09h16.18.080,jpn_C01,2022.1.2,MacIntel,58.82352941,,,,,,,,,,,,,CartoonStims/burglar_r.jpg,audio/lupin.mp3,,,,,,,,,,,,,,,,,,,,,,,,,,,,,,,,,,,,,,1,4,10,1,1,ルピン,,,,,,,,,,,,,,,,,,,,,,,,,,
,,,,,,,,,R_erOjci0FTDxwfbH,2022-06-25_09h16.18.080,jpn_C01,2022.1.2,MacIntel,58.82352941,,,,,,,,,,,,,,,,,,,,,,,,,,,,,,,,,,,,,,,,,,,,ピポ,right,3.267,0,0,0,0,1,,,,,,,,,,,,,,,,,,,,,,,,,,,,,,,,
,,,,,,,,,R_erOjci0FTDxwfbH,2022-06-25_09h16.18.080,jpn_C01,2022.1.2,MacIntel,58.82352941,,,,,,,,,,,,,CartoonStims/doctor_r.jpg,audio/pipo.mp3,,,,,,,,,,,,,,,,,,,,,,,,,,,,,,,,,,,,,,1,5,11,4,1,ピポ,,,,,,,,,,,,,,,,,,,,,,,,,,
,,,,,,,,,R_erOjci0FTDxwfbH,2022-06-25_09h16.18.080,jpn_C01,2022.1.2,MacIntel,58.82352941,,,,,,,,,,,,,,,,,,,,,,,,,,,,,,,,,,,,,,,,,,,,,,,,,,,,,,,,,,,space,1.797,0,0,0,0,1,NounExposure.xlsx,"最初のトライアルでは、 画像が表示され、 その画像の下に単語が出てきます。 またこの単語の音も聞くことができます。 この音を大きな声で復唱してください。 そしてこの画像がどのような単語を示しているのか, 考えてみてください。 その後、 続きのボタンを押すと次の単語の学習が始まります。

スペースキーを押して、学習を始めましょう。",3,NounFCT.xlsx,ここから語彙のクイズが始まります。スクリーンに表示される単語に合う画像をキーボードの右と左の矢印キーを使って選択してください。,NounTest.xlsx,2,次に、これまで学習してきたことをアウトプットしていただきます。 表示される画像を描写していると思う単語を、テキストボックスにタイプしてください。,1,"ここまでが最初のトライアルです。ここで休憩をとっても構いません。

休憩が済みましたら、スペースキーを押して続きを始めましょう。",,,,,,,,
,,,,,,,,,R_erOjci0FTDxwfbH,2022-06-25_09h16.18.080,jpn_C01,2022.1.2,MacIntel,58.82352941,space,3.116,space,4.685,0,0,0,33,1,パツ　ピポ　ホレト,,,CartoonStims/doctor_shoot_chef_r.jpg,audio/patsupipohoreto.mp3,,,,,,,,,,,,,,,,,,,,,,,,,,,,,,,,,,,,,,,,,,,,,,,,,,,,,,,,,,,,,,,,,,,,,
,,,,,,,,,R_erOjci0FTDxwfbH,2022-06-25_09h16.18.080,jpn_C01,2022.1.2,MacIntel,58.82352941,,,space,3.566,0,1,1,12,1,トマ　シド　ホレト,,,CartoonStims/artist_point_chef_r.jpg,audio/tomasidohoreto.mp3,,,,,,,,,,,,,,,,,,,,,,,,,,,,,,,,,,,,,,,,,,,,,,,,,,,,,,,,,,,,,,,,,,,,,
,,,,,,,,,R_erOjci0FTDxwfbH,2022-06-25_09h16.18.080,jpn_C01,2022.1.2,MacIntel,58.82352941,,,space,14.932,0,2,2,35,1,パツ　ドキ　ムク,,,CartoonStims/boxer_shoot_cowboy_r.jpg,audio/patsudokimuku.mp3,,,,,,,,,,,,,,,,,,,,,,,,,,,,,,,,,,,,,,,,,,,,,,,,,,,,,,,,,,,,,,,,,,,,,
,,,,,,,,,R_erOjci0FTDxwfbH,2022-06-25_09h16.18.080,jpn_C01,2022.1.2,MacIntel,58.82352941,,,space,4.93,0,3,3,11,1,セル　ドキ　ルピン,,,CartoonStims/boxer_kick_burglar_r.jpg,audio/serudokilupin.mp3,,,,,,,,,,,,,,,,,,,,,,,,,,,,,,,,,,,,,,,,,,,,,,,,,,,,,,,,,,,,,,,,,,,,,
,,,,,,,,,R_erOjci0FTDxwfbH,2022-06-25_09h16.18.080,jpn_C01,2022.1.2,MacIntel,58.82352941,,,space,16.147,0,4,4,1,1,セル 　シド 　ホレト,,,CartoonStims/artist_kick_chef_r.jpg,audio/serusidohoreto.mp3,,,,,,,,,,,,,,,,,,,,,,,,,,,,,,,,,,,,,,,,,,,,,,,,,,,,,,,,,,,,,,,,,,,,,
,,,,,,,,,R_erOjci0FTDxwfbH,2022-06-25_09h16.18.080,jpn_C01,2022.1.2,MacIntel,58.82352941,,,space,13.854,0,5,5,24,1,パツ　シド　ムク,,,CartoonStims/artist_shoot_cowboy_r.jpg,audio/patsusidomuku.mp3,,,,,,,,,,,,,,,,,,,,,,,,,,,,,,,,,,,,,,,,,,,,,,,,,,,,,,,,,,,,,,,,,,,,,
,,,,,,,,,R_erOjci0FTDxwfbH,2022-06-25_09h16.18.080,jpn_C01,2022.1.2,MacIntel,58.82352941,,,space,9.354,0,6,6,20,1,トマ　ピポ　シド,,,CartoonStims/doctor_point_artist_r.jpg,audio/tomapiposido.mp3,,,,,,,,,,,,,,,,,,,,,,,,,,,,,,,,,,,,,,,,,,,,,,,,,,,,,,,,,,,,,,,,,,,,,
,,,,,,,,,R_erOjci0FTDxwfbH,2022-06-25_09h16.18.080,jpn_C01,2022.1.2,MacIntel,58.82352941,,,space,6.48,0,7,7,7,1,セル　ムク　ドキ,,,CartoonStims/cowboy_kick_boxer_r.jpg,audio/serumukudoki.mp3,,,,,,,,,,,,,,,,,,,,,,,,,,,,,,,,,,,,,,,,,,,,,,,,,,,,,,,,,,,,,,,,,,,,,
,,,,,,,,,R_erOjci0FTDxwfbH,2022-06-25_09h16.18.080,jpn_C01,2022.1.2,MacIntel,58.82352941,,,space,9.953,0,8,8,47,1,プミ　ドキ　ピポ,,,CartoonStims/boxer_punch_doctor_r.jpg,audio/pumidokipipo.mp3,,,,,,,,,,,,,,,,,,,,,,,,,,,,,,,,,,,,,,,,,,,,,,,,,,,,,,,,,,,,,,,,,,,,,
,,,,,,,,,R_erOjci0FTDxwfbH,2022-06-25_09h16.18.080,jpn_C01,2022.1.2,MacIntel,58.82352941,,,space,2.163,0,9,9,3,1,セル　ルピン　ムク,,,CartoonStims/burglar_kick_cowboy_r.jpg,audio/serulupinmuku.mp3,,,,,,,,,,,,,,,,,,,,,,,,,,,,,,,,,,,,,,,,,,,,,,,,,,,,,,,,,,,,,,,,,,,,,
,,,,,,,,,R_erOjci0FTDxwfbH,2022-06-25_09h16.18.080,jpn_C01,2022.1.2,MacIntel,58.82352941,,,space,2.535,0,10,10,38,1,プミ　ルピン　ドキ,,,CartoonStims/burglar_punch_boxer_r.jpg,audio/pumilupindoki.mp3,,,,,,,,,,,,,,,,,,,,,,,,,,,,,,,,,,,,,,,,,,,,,,,,,,,,,,,,,,,,,,,,,,,,,
,,,,,,,,,R_erOjci0FTDxwfbH,2022-06-25_09h16.18.080,jpn_C01,2022.1.2,MacIntel,58.82352941,,,space,0.835,0,11,11,43,1,プミ　ムク　ホレト,,,CartoonStims/cowboy_punch_chef_r.jpg,audio/pumimukuhoreto.mp3,,,,,,,,,,,,,,,,,,,,,,,,,,,,,,,,,,,,,,,,,,,,,,,,,,,,,,,,,,,,,,,,,,,,,
,,,,,,,,,R_erOjci0FTDxwfbH,2022-06-25_09h16.18.080,jpn_C01,2022.1.2,MacIntel,58.82352941,,,space,2.13,0,12,12,2,1,セル 　ルピン 　ホレト,,,CartoonStims/burglar_kick_chef_r.jpg,audio/serulupinhoreto.mp3,,,,,,,,,,,,,,,,,,,,,,,,,,,,,,,,,,,,,,,,,,,,,,,,,,,,,,,,,,,,,,,,,,,,,
,,,,,,,,,R_erOjci0FTDxwfbH,2022-06-25_09h16.18.080,jpn_C01,2022.1.2,MacIntel,58.82352941,,,space,5.178,0,13,13,44,1,プミ　ピポ　ホレト,,,CartoonStims/doctor_punch_chef_r.jpg,audio/pumipipohoreto.mp3,,,,,,,,,,,,,,,,,,,,,,,,,,,,,,,,,,,,,,,,,,,,,,,,,,,,,,,,,,,,,,,,,,,,,
,,,,,,,,,R_erOjci0FTDxwfbH,2022-06-25_09h16.18.080,jpn_C01,2022.1.2,MacIntel,58.82352941,,,space,4.013,0,14,14,16,1,トマ　ホレト　ピポ,,,CartoonStims/chef_point_doctor_r.jpg,audio/tomahoretopipo.mp3,,,,,,,,,,,,,,,,,,,,,,,,,,,,,,,,,,,,,,,,,,,,,,,,,,,,,,,,,,,,,,,,,,,,,
,,,,,,,,,R_erOjci0FTDxwfbH,2022-06-25_09h16.18.080,jpn_C01,2022.1.2,MacIntel,58.82352941,,,space,5.73,0,15,15,19,1,トマ　ムク　シド,,,CartoonStims/cowboy_point_artist_r.jpg,audio/tomamukusido.mp3,,,,,,,,,,,,,,,,,,,,,,,,,,,,,,,,,,,,,,,,,,,,,,,,,,,,,,,,,,,,,,,,,,,,,
,,,,,,,,,R_erOjci0FTDxwfbH,2022-06-25_09h16.18.080,jpn_C01,2022.1.2,MacIntel,58.82352941,,,space,7.667,0,16,16,27,1,パツ　ルピン　ドキ,,,CartoonStims/burglar_shoot_boxer_r.jpg,audio/patsulupindoki.mp3,,,,,,,,,,,,,,,,,,,,,,,,,,,,,,,,,,,,,,,,,,,,,,,,,,,,,,,,,,,,,,,,,,,,,
,,,,,,,,,R_erOjci0FTDxwfbH,2022-06-25_09h16.18.080,jpn_C01,2022.1.2,MacIntel,58.82352941,,,space,8.518,0,17,17,45,1,プミ　ピポ　ムク,,,CartoonStims/doctor_punch_cowboy_r.jpg,audio/pumipipomuku.mp3,,,,,,,,,,,,,,,,,,,,,,,,,,,,,,,,,,,,,,,,,,,,,,,,,,,,,,,,,,,,,,,,,,,,,
,,,,,,,,,R_erOjci0FTDxwfbH,2022-06-25_09h16.18.080,jpn_C01,2022.1.2,MacIntel,58.82352941,,,space,4.9,0,18,18,18,1,トマ　ムク　ドキ,,,CartoonStims/cowboy_point_boxer_r.jpg,audio/tomamukudoki.mp3,,,,,,,,,,,,,,,,,,,,,,,,,,,,,,,,,,,,,,,,,,,,,,,,,,,,,,,,,,,,,,,,,,,,,
,,,,,,,,,R_erOjci0FTDxwfbH,2022-06-25_09h16.18.080,jpn_C01,2022.1.2,MacIntel,58.82352941,,,space,3.638,0,19,19,0,1,セル　シド　ルピン,,,CartoonStims/artist_kick_burglar_r.jpg,audio/serusidolupin.mp3,,,,,,,,,,,,,,,,,,,,,,,,,,,,,,,,,,,,,,,,,,,,,,,,,,,,,,,,,,,,,,,,,,,,,
,,,,,,,,,R_erOjci0FTDxwfbH,2022-06-25_09h16.18.080,jpn_C01,2022.1.2,MacIntel,58.82352941,,,space,6.279,0,20,20,15,1,トマ　ルピン　ピポ,,,CartoonStims/burglar_point_doctor_r.jpg,audio/tomalupinpipo.mp3,,,,,,,,,,,,,,,,,,,,,,,,,,,,,,,,,,,,,,,,,,,,,,,,,,,,,,,,,,,,,,,,,,,,,
,,,,,,,,,R_erOjci0FTDxwfbH,2022-06-25_09h16.18.080,jpn_C01,2022.1.2,MacIntel,58.82352941,,,space,10.364,0,21,21,8,1,セル　ピポ　ドキ,,,CartoonStims/doctor_kick_boxer_r.jpg,audio/serupipodoki.mp3,,,,,,,,,,,,,,,,,,,,,,,,,,,,,,,,,,,,,,,,,,,,,,,,,,,,,,,,,,,,,,,,,,,,,
,,,,,,,,,R_erOjci0FTDxwfbH,2022-06-25_09h16.18.080,jpn_C01,2022.1.2,MacIntel,58.82352941,,,space,5.917,0,22,22,41,1,プミ　ホレト　ルピン,,,CartoonStims/chef_punch_burglar_r.jpg,audio/pumihoretolupin.mp3,,,,,,,,,,,,,,,,,,,,,,,,,,,,,,,,,,,,,,,,,,,,,,,,,,,,,,,,,,,,,,,,,,,,,
,,,,,,,,,R_erOjci0FTDxwfbH,2022-06-25_09h16.18.080,jpn_C01,2022.1.2,MacIntel,58.82352941,,,space,2.999,0,23,23,34,1,パツ　ドキ　ホレト,,,CartoonStims/boxer_shoot_chef_r.jpg,audio/patsudokihoreto.mp3,,,,,,,,,,,,,,,,,,,,,,,,,,,,,,,,,,,,,,,,,,,,,,,,,,,,,,,,,,,,,,,,,,,,,
,,,,,,,,,R_erOjci0FTDxwfbH,2022-06-25_09h16.18.080,jpn_C01,2022.1.2,MacIntel,58.82352941,,,space,1.711,0,24,24,40,1,プミ　ホレト　シド,,,CartoonStims/chef_punch_artist_r.jpg,audio/pumihoretosido.mp3,,,,,,,,,,,,,,,,,,,,,,,,,,,,,,,,,,,,,,,,,,,,,,,,,,,,,,,,,,,,,,,,,,,,,
,,,,,,,,,R_erOjci0FTDxwfbH,2022-06-25_09h16.18.080,jpn_C01,2022.1.2,MacIntel,58.82352941,,,space,1.667,0,25,25,14,1,トマ　ルピン　ムク,,,CartoonStims/burglar_point_cowboy_r.jpg,audio/tomalupinmuku.mp3,,,,,,,,,,,,,,,,,,,,,,,,,,,,,,,,,,,,,,,,,,,,,,,,,,,,,,,,,,,,,,,,,,,,,
,,,,,,,,,R_erOjci0FTDxwfbH,2022-06-25_09h16.18.080,jpn_C01,2022.1.2,MacIntel,58.82352941,,,space,5.535,0,26,26,10,1,セル　ドキ　シド,,,CartoonStims/boxer_kick_artist_r.jpg,audio/serudokisido.mp3,,,,,,,,,,,,,,,,,,,,,,,,,,,,,,,,,,,,,,,,,,,,,,,,,,,,,,,,,,,,,,,,,,,,,
,,,,,,,,,R_erOjci0FTDxwfbH,2022-06-25_09h16.18.080,jpn_C01,2022.1.2,MacIntel,58.82352941,,,space,1.999,0,27,27,13,1,トマ　シド　ムク,,,CartoonStims/artist_point_cowboy_r.jpg,audio/tomasidomuku.mp3,,,,,,,,,,,,,,,,,,,,,,,,,,,,,,,,,,,,,,,,,,,,,,,,,,,,,,,,,,,,,,,,,,,,,
,,,,,,,,,R_erOjci0FTDxwfbH,2022-06-25_09h16.18.080,jpn_C01,2022.1.2,MacIntel,58.82352941,,,space,2.165,0,28,28,23,1,トマ　ドキ　ホレト,,,CartoonStims/boxer_point_chef_r.jpg,audio/tomadokihoreto.mp3,,,,,,,,,,,,,,,,,,,,,,,,,,,,,,,,,,,,,,,,,,,,,,,,,,,,,,,,,,,,,,,,,,,,,
,,,,,,,,,R_erOjci0FTDxwfbH,2022-06-25_09h16.18.080,jpn_C01,2022.1.2,MacIntel,58.82352941,,,space,1.634,0,29,29,32,1,パツ　ピポ　ルピン,,,CartoonStims/doctor_shoot_burglar_r.jpg,audio/patsupipolupin.mp3,,,,,,,,,,,,,,,,,,,,,,,,,,,,,,,,,,,,,,,,,,,,,,,,,,,,,,,,,,,,,,,,,,,,,
,,,,,,,,,R_erOjci0FTDxwfbH,2022-06-25_09h16.18.080,jpn_C01,2022.1.2,MacIntel,58.82352941,,,space,2.679,0,30,30,4,1,セル　ホレト　ムク,,,CartoonStims/chef_kick_cowboy_r.jpg,audio/seruhoretomuku.mp3,,,,,,,,,,,,,,,,,,,,,,,,,,,,,,,,,,,,,,,,,,,,,,,,,,,,,,,,,,,,,,,,,,,,,
,,,,,,,,,R_erOjci0FTDxwfbH,2022-06-25_09h16.18.080,jpn_C01,2022.1.2,MacIntel,58.82352941,,,space,0.8,0,31,31,28,1,パツ　ホレト　ドキ,,,CartoonStims/chef_shoot_boxer_r.jpg,audio/patsuhoretodoki.mp3,,,,,,,,,,,,,,,,,,,,,,,,,,,,,,,,,,,,,,,,,,,,,,,,,,,,,,,,,,,,,,,,,,,,,
,,,,,,,,,R_erOjci0FTDxwfbH,2022-06-25_09h16.18.080,jpn_C01,2022.1.2,MacIntel,58.82352941,,,space,1.6,0,32,32,42,1,プミ　ムク　ルピン,,,CartoonStims/cowboy_punch_burglar_r.jpg,audio/pumimukulupin.mp3,,,,,,,,,,,,,,,,,,,,,,,,,,,,,,,,,,,,,,,,,,,,,,,,,,,,,,,,,,,,,,,,,,,,,
,,,,,,,,,R_erOjci0FTDxwfbH,2022-06-25_09h16.18.080,jpn_C01,2022.1.2,MacIntel,58.82352941,,,space,0.633,0,33,33,37,1,プミ　シド　ドキ,,,CartoonStims/artist_punch_boxer_r.jpg,audio/pumisidodoki.mp3,,,,,,,,,,,,,,,,,,,,,,,,,,,,,,,,,,,,,,,,,,,,,,,,,,,,,,,,,,,,,,,,,,,,,
,,,,,,,,,R_erOjci0FTDxwfbH,2022-06-25_09h16.18.080,jpn_C01,2022.1.2,MacIntel,58.82352941,,,space,1.484,0,34,34,9,1,セル　ピポ　シド,,,CartoonStims/doctor_kick_artist_r.jpg,audio/serupiposido.mp3,,,,,,,,,,,,,,,,,,,,,,,,,,,,,,,,,,,,,,,,,,,,,,,,,,,,,,,,,,,,,,,,,,,,,
,,,,,,,,,R_erOjci0FTDxwfbH,2022-06-25_09h16.18.080,jpn_C01,2022.1.2,MacIntel,58.82352941,,,space,4.487,0,35,35,21,1,トマ　ピポ　ルピン,,,CartoonStims/doctor_point_burglar_r.jpg,audio/tomapipolupin.mp3,,,,,,,,,,,,,,,,,,,,,,,,,,,,,,,,,,,,,,,,,,,,,,,,,,,,,,,,,,,,,,,,,,,,,
,,,,,,,,,R_erOjci0FTDxwfbH,2022-06-25_09h16.18.080,jpn_C01,2022.1.2,MacIntel,58.82352941,,,space,3.112,0,36,36,39,1,プミ　ルピン　シド,,,CartoonStims/burglar_punch_artist_r.jpg,audio/pumilupinsido.mp3,,,,,,,,,,,,,,,,,,,,,,,,,,,,,,,,,,,,,,,,,,,,,,,,,,,,,,,,,,,,,,,,,,,,,
,,,,,,,,,R_erOjci0FTDxwfbH,2022-06-25_09h16.18.080,jpn_C01,2022.1.2,MacIntel,58.82352941,,,space,3.098,0,37,37,5,1,セル　ホレト　ピポ,,,CartoonStims/chef_kick_doctor_r.jpg,audio/seruhoretopipo.mp3,,,,,,,,,,,,,,,,,,,,,,,,,,,,,,,,,,,,,,,,,,,,,,,,,,,,,,,,,,,,,,,,,,,,,
,,,,,,,,,R_erOjci0FTDxwfbH,2022-06-25_09h16.18.080,jpn_C01,2022.1.2,MacIntel,58.82352941,,,space,4.934,0,38,38,46,1,プミ　ドキ　ムク,,,CartoonStims/boxer_punch_cowboy_r.jpg,audio/pumidokimuku.mp3,,,,,,,,,,,,,,,,,,,,,,,,,,,,,,,,,,,,,,,,,,,,,,,,,,,,,,,,,,,,,,,,,,,,,
,,,,,,,,,R_erOjci0FTDxwfbH,2022-06-25_09h16.18.080,jpn_C01,2022.1.2,MacIntel,58.82352941,,,space,1.065,0,39,39,22,1,トマ　ドキ　ルピン,,,CartoonStims/boxer_point_burglar_r.jpg,audio/tomadokilupin.mp3,,,,,,,,,,,,,,,,,,,,,,,,,,,,,,,,,,,,,,,,,,,,,,,,,,,,,,,,,,,,,,,,,,,,,
,,,,,,,,,R_erOjci0FTDxwfbH,2022-06-25_09h16.18.080,jpn_C01,2022.1.2,MacIntel,58.82352941,,,space,0.636,0,40,40,29,1,パツ　ホレト　シド,,,CartoonStims/chef_shoot_artist_r.jpg,audio/patsuhoretosido.mp3,,,,,,,,,,,,,,,,,,,,,,,,,,,,,,,,,,,,,,,,,,,,,,,,,,,,,,,,,,,,,,,,,,,,,
,,,,,,,,,R_erOjci0FTDxwfbH,2022-06-25_09h16.18.080,jpn_C01,2022.1.2,MacIntel,58.82352941,,,space,1.816,0,41,41,25,1,パツ　シド　ピポ,,,CartoonStims/artist_shoot_doctor_r.jpg,audio/patsusidopipo.mp3,,,,,,,,,,,,,,,,,,,,,,,,,,,,,,,,,,,,,,,,,,,,,,,,,,,,,,,,,,,,,,,,,,,,,
,,,,,,,,,R_erOjci0FTDxwfbH,2022-06-25_09h16.18.080,jpn_C01,2022.1.2,MacIntel,58.82352941,,,space,1.447,0,42,42,26,1,パツ　ルピン　ピポ,,,CartoonStims/burglar_shoot_doctor_r.jpg,audio/patsulupinpipo.mp3,,,,,,,,,,,,,,,,,,,,,,,,,,,,,,,,,,,,,,,,,,,,,,,,,,,,,,,,,,,,,,,,,,,,,
,,,,,,,,,R_erOjci0FTDxwfbH,2022-06-25_09h16.18.080,jpn_C01,2022.1.2,MacIntel,58.82352941,,,space,3.351,0,43,43,30,1,パツ　ムク　シド,,,CartoonStims/cowboy_shoot_artist_r.jpg,audio/patsumukusido.mp3,,,,,,,,,,,,,,,,,,,,,,,,,,,,,,,,,,,,,,,,,,,,,,,,,,,,,,,,,,,,,,,,,,,,,
,,,,,,,,,R_erOjci0FTDxwfbH,2022-06-25_09h16.18.080,jpn_C01,2022.1.2,MacIntel,58.82352941,,,space,2.02,0,44,44,31,1,パツ　ムク　ルピン,,,CartoonStims/cowboy_shoot_burglar_r.jpg,audio/patsumukulupin.mp3,,,,,,,,,,,,,,,,,,,,,,,,,,,,,,,,,,,,,,,,,,,,,,,,,,,,,,,,,,,,,,,,,,,,,
,,,,,,,,,R_erOjci0FTDxwfbH,2022-06-25_09h16.18.080,jpn_C01,2022.1.2,MacIntel,58.82352941,,,space,0.625,0,45,45,6,1,セル　ムク　ピポ,,,CartoonStims/cowboy_kick_doctor_r.jpg,audio/serumukupipo.mp3,,,,,,,,,,,,,,,,,,,,,,,,,,,,,,,,,,,,,,,,,,,,,,,,,,,,,,,,,,,,,,,,,,,,,
,,,,,,,,,R_erOjci0FTDxwfbH,2022-06-25_09h16.18.080,jpn_C01,2022.1.2,MacIntel,58.82352941,,,space,1.032,0,46,46,17,1,トマ　ホレト　ドキ,,,CartoonStims/chef_point_boxer_r.jpg,audio/tomahoretodoki.mp3,,,,,,,,,,,,,,,,,,,,,,,,,,,,,,,,,,,,,,,,,,,,,,,,,,,,,,,,,,,,,,,,,,,,,
,,,,,,,,,R_erOjci0FTDxwfbH,2022-06-25_09h16.18.080,jpn_C01,2022.1.2,MacIntel,58.82352941,,,space,1.047,0,47,47,36,1,プミ　シド　ピポ,,,CartoonStims/artist_punch_doctor_r.jpg,audio/pumisidopipo.mp3,,,,,,,,,,,,,,,,,,,,,,,,,,,,,,,,,,,,,,,,,,,,,,,,,,,,,,,,,,,,,,,,,,,,,
,,,,,,,,,R_erOjci0FTDxwfbH,2022-06-25_09h16.18.080,jpn_C01,2022.1.2,MacIntel,58.82352941,,,,,,,,,,,,,,,space,5.921,right,1,4.267,,,,,,,,,,,,,,,,,,0,0,0,0,1,,,,,,,,,,,,,,,,,,,,,,,,,,,,,,,,,,,,,,,,,,
,,,,,,,,,R_erOjci0FTDxwfbH,2022-06-25_09h16.18.080,jpn_C01,2022.1.2,MacIntel,58.82352941,,,,,,,,,,,,,,,,,,,,,,,,,0,0,0,7,1,CartoonStims/artist_punch_cowboy_r.jpg,セル　シド　ムク,CartoonStims/artist_kick_cowboy_r.jpg,right,CartoonStims/artist_kick_cowboy_r.jpg,audio/serusidomuku.mp3,残念！ こちらが正しい画像です。,,,,,,,,,,,,,,,,,,,,,,,,,,,,,,,,,,,,,,,,,,,,,,,
,,,,,,,,,R_erOjci0FTDxwfbH,2022-06-25_09h16.18.080,jpn_C01,2022.1.2,MacIntel,58.82352941,,,,,,,,,,,,,,,,,right,1,5.952,,,,,,,,,,,,,,,,,,0,0,0,0,1,,,,,,,,,,,,,,,,,,,,,,,,,,,,,,,,,,,,,,,,,,
,,,,,,,,,R_erOjci0FTDxwfbH,2022-06-25_09h16.18.080,jpn_C01,2022.1.2,MacIntel,58.82352941,,,,,,,,,,,,,,,,,,,,,,,,,0,1,1,1,1,CartoonStims/chef_point_burglar_r.jpg,トマ　ホレト　シド,CartoonStims/chef_point_artist_r.jpg,right,CartoonStims/chef_point_artist_r.jpg,audio/tomahoretosido.mp3,残念！ こちらが正しい画像です。,,,,,,,,,,,,,,,,,,,,,,,,,,,,,,,,,,,,,,,,,,,,,,,
,,,,,,,,,R_erOjci0FTDxwfbH,2022-06-25_09h16.18.080,jpn_C01,2022.1.2,MacIntel,58.82352941,,,,,,,,,,,,,,,,,left,1,5.479,0,0,0,0,1,,,,,,,,,,,,,,,,,,,,,,,,,,,,,,,,,,,,,,,,,,,,,,,,,,,,,,,,,,,
,,,,,,,,,R_erOjci0FTDxwfbH,2022-06-25_09h16.18.080,jpn_C01,2022.1.2,MacIntel,58.82352941,,,,,,,,,,,,,,,,,,,,,,,,,0,2,2,0,1,CartoonStims/doctor_kick_burglar_r.jpg,セル　ピポ　ルピン,CartoonStims/doctor_kick_chef_r.jpg,left,CartoonStims/doctor_kick_burglar_r.jpg,audio/serupipolupin.mp3,残念！ こちらが正しい画像です。,,,,,,,,,,,,,,,,,,,,,,,,,,,,,,,,,,,,,,,,,,,,,,,
,,,,,,,,,R_erOjci0FTDxwfbH,2022-06-25_09h16.18.080,jpn_C01,2022.1.2,MacIntel,58.82352941,,,,,,,,,,,,,,,,,left,1,1.784,0,0,0,0,1,,,,,,,,,,,,,,,,,,,,,,,,,,,,,,,,,,,,,,,,,,,,,,,,,,,,,,,,,,,
,,,,,,,,,R_erOjci0FTDxwfbH,2022-06-25_09h16.18.080,jpn_C01,2022.1.2,MacIntel,58.82352941,,,,,,,,,,,,,,,,,,,,,,,,,0,3,3,4,1,CartoonStims/burglar_point_boxer_r.jpg,トマ　ルピン　ドキ,CartoonStims/burglar_kick_boxer_r.jpg,left,CartoonStims/burglar_point_boxer_r.jpg,audio/tomalupindoki.mp3,残念！ こちらが正しい画像です。,,,,,,,,,,,,,,,,,,,,,,,,,,,,,,,,,,,,,,,,,,,,,,,
,,,,,,,,,R_erOjci0FTDxwfbH,2022-06-25_09h16.18.080,jpn_C01,2022.1.2,MacIntel,58.82352941,,,,,,,,,,,,,,,,,right,1,4.412,,,,,,,,,,,,,,,,,,0,0,0,0,1,,,,,,,,,,,,,,,,,,,,,,,,,,,,,,,,,,,,,,,,,,
,,,,,,,,,R_erOjci0FTDxwfbH,2022-06-25_09h16.18.080,jpn_C01,2022.1.2,MacIntel,58.82352941,,,,,,,,,,,,,,,,,,,,,,,,,0,4,4,9,1,CartoonStims/chef_kick_artist_r.jpg,セル　ムク　シド,CartoonStims/cowboy_kick_artist_r.jpg,right,CartoonStims/cowboy_kick_artist_r.jpg,audio/serumukusido.mp3,残念！ こちらが正しい画像です。,,,,,,,,,,,,,,,,,,,,,,,,,,,,,,,,,,,,,,,,,,,,,,,
,,,,,,,,,R_erOjci0FTDxwfbH,2022-06-25_09h16.18.080,jpn_C01,2022.1.2,MacIntel,58.82352941,,,,,,,,,,,,,,,,,left,1,2.13,0,0,0,0,1,,,,,,,,,,,,,,,,,,,,,,,,,,,,,,,,,,,,,,,,,,,,,,,,,,,,,,,,,,,
,,,,,,,,,R_erOjci0FTDxwfbH,2022-06-25_09h16.18.080,jpn_C01,2022.1.2,MacIntel,58.82352941,,,,,,,,,,,,,,,,,,,,,,,,,0,5,5,8,1,CartoonStims/doctor_point_cowboy_r.jpg,トマ　ピポ　ムク,CartoonStims/boxer_point_cowboy_r.jpg,left,CartoonStims/doctor_point_cowboy_r.jpg,audio/tomapipomuku.mp3,残念！ こちらが正しい画像です。,,,,,,,,,,,,,,,,,,,,,,,,,,,,,,,,,,,,,,,,,,,,,,,
,,,,,,,,,R_erOjci0FTDxwfbH,2022-06-25_09h16.18.080,jpn_C01,2022.1.2,MacIntel,58.82352941,,,,,,,,,,,,,,,,,right,1,4.719,,,,,,,,,,,,,,,,,,0,0,0,0,1,,,,,,,,,,,,,,,,,,,,,,,,,,,,,,,,,,,,,,,,,,
,,,,,,,,,R_erOjci0FTDxwfbH,2022-06-25_09h16.18.080,jpn_C01,2022.1.2,MacIntel,58.82352941,,,,,,,,,,,,,,,,,,,,,,,,,0,6,6,3,1,CartoonStims/cowboy_punch_doctor_r.jpg,プミ　ムク　ドキ,CartoonStims/cowboy_punch_boxer_r.jpg,right,CartoonStims/cowboy_punch_boxer_r.jpg,audio/pumimukudoki.mp3,残念！ こちらが正しい画像です。,,,,,,,,,,,,,,,,,,,,,,,,,,,,,,,,,,,,,,,,,,,,,,,
,,,,,,,,,R_erOjci0FTDxwfbH,2022-06-25_09h16.18.080,jpn_C01,2022.1.2,MacIntel,58.82352941,,,,,,,,,,,,,,,,,right,1,4.865,,,,,,,,,,,,,,,,,,0,0,0,0,1,,,,,,,,,,,,,,,,,,,,,,,,,,,,,,,,,,,,,,,,,,
,,,,,,,,,R_erOjci0FTDxwfbH,2022-06-25_09h16.18.080,jpn_C01,2022.1.2,MacIntel,58.82352941,,,,,,,,,,,,,,,,,,,,,,,,,0,7,7,11,1,CartoonStims/burglar_punch_cowboy_r.jpg,プミ　ホレト　ムク,CartoonStims/chef_punch_cowboy_r.jpg,right,CartoonStims/chef_punch_cowboy_r.jpg,audio/pumihoretomuku.mp3,残念！ こちらが正しい画像です。,,,,,,,,,,,,,,,,,,,,,,,,,,,,,,,,,,,,,,,,,,,,,,,
,,,,,,,,,R_erOjci0FTDxwfbH,2022-06-25_09h16.18.080,jpn_C01,2022.1.2,MacIntel,58.82352941,,,,,,,,,,,,,,,,,right,1,1.398,,,,,,,,,,,,,,,,,,0,0,0,0,1,,,,,,,,,,,,,,,,,,,,,,,,,,,,,,,,,,,,,,,,,,
,,,,,,,,,R_erOjci0FTDxwfbH,2022-06-25_09h16.18.080,jpn_C01,2022.1.2,MacIntel,58.82352941,,,,,,,,,,,,,,,,,,,,,,,,,0,8,8,5,1,CartoonStims/cowboy_point_chef_r.jpg,パツ　ムク　ホレト,CartoonStims/cowboy_shoot_chef_r.jpg,right,CartoonStims/cowboy_shoot_chef_r.jpg,audio/patsumukuhoreto.mp3,残念！ こちらが正しい画像です。,,,,,,,,,,,,,,,,,,,,,,,,,,,,,,,,,,,,,,,,,,,,,,,
,,,,,,,,,R_erOjci0FTDxwfbH,2022-06-25_09h16.18.080,jpn_C01,2022.1.2,MacIntel,58.82352941,,,,,,,,,,,,,,,,,left,1,3.666,0,0,0,0,1,,,,,,,,,,,,,,,,,,,,,,,,,,,,,,,,,,,,,,,,,,,,,,,,,,,,,,,,,,,
,,,,,,,,,R_erOjci0FTDxwfbH,2022-06-25_09h16.18.080,jpn_C01,2022.1.2,MacIntel,58.82352941,,,,,,,,,,,,,,,,,,,,,,,,,0,9,9,2,1,CartoonStims/boxer_shoot_doctor_r.jpg,パツ　ドキ　ピポ,CartoonStims/boxer_shoot_artist_r.jpg,left,CartoonStims/boxer_shoot_doctor_r.jpg,audio/patsudokipipo.mp3,残念！ こちらが正しい画像です。,,,,,,,,,,,,,,,,,,,,,,,,,,,,,,,,,,,,,,,,,,,,,,,
,,,,,,,,,R_erOjci0FTDxwfbH,2022-06-25_09h16.18.080,jpn_C01,2022.1.2,MacIntel,58.82352941,,,,,,,,,,,,,,,,,left,1,6.503,0,0,0,0,1,,,,,,,,,,,,,,,,,,,,,,,,,,,,,,,,,,,,,,,,,,,,,,,,,,,,,,,,,,,
,,,,,,,,,R_erOjci0FTDxwfbH,2022-06-25_09h16.18.080,jpn_C01,2022.1.2,MacIntel,58.82352941,,,,,,,,,,,,,,,,,,,,,,,,,0,10,10,6,1,CartoonStims/doctor_punch_boxer_r.jpg,プミ　ピポ　ドキ,CartoonStims/doctor_shoot_boxer_r.jpg,left,CartoonStims/doctor_punch_boxer_r.jpg,audio/pumipipodoki.mp3,残念！ こちらが正しい画像です。,,,,,,,,,,,,,,,,,,,,,,,,,,,,,,,,,,,,,,,,,,,,,,,
,,,,,,,,,R_erOjci0FTDxwfbH,2022-06-25_09h16.18.080,jpn_C01,2022.1.2,MacIntel,58.82352941,,,,,,,,,,,,,,,,,left,1,3.752,0,0,0,0,1,,,,,,,,,,,,,,,,,,,,,,,,,,,,,,,,,,,,,,,,,,,,,,,,,,,,,,,,,,,
,,,,,,,,,R_erOjci0FTDxwfbH,2022-06-25_09h16.18.080,jpn_C01,2022.1.2,MacIntel,58.82352941,,,,,,,,,,,,,,,,,,,,,,,,,0,11,11,10,1,CartoonStims/artist_shoot_burglar_r.jpg,パツ　シド　ルピン,CartoonStims/chef_shoot_burglar_r.jpg,left,CartoonStims/artist_shoot_burglar_r.jpg,audio/patsusidolupin.mp3,残念！ こちらが正しい画像です。,,,,,,,,,,,,,,,,,,,,,,,,,,,,,,,,,,,,,,,,,,,,,,,
,,,,,,,,,R_erOjci0FTDxwfbH,2022-06-25_09h16.18.080,jpn_C01,2022.1.2,MacIntel,58.82352941,,,,,,,,,,,,,,,,,,,,,,,,,,,,,,,,,,,,,,,,,,space,5.551,セル　ドキ,right,18.105,0,0,0,0,1,,,,,,,,,,,,,,,,,,,,,,,,,,,,,,,,
,,,,,,,,,R_erOjci0FTDxwfbH,2022-06-25_09h16.18.080,jpn_C01,2022.1.2,MacIntel,58.82352941,,,,,,,,,,,,,CartoonStims/boxer_kick_cowboy_r.jpg,audio/serudokimuku.mp3,,,,,,,,,,,,,,,,,,,,,,,,,,,,,,,,,,,,,,0,0,0,2,1,セル　ドキ　ムク,,,,,,,,,,,,,,,,,,,,,,,,,,
,,,,,,,,,R_erOjci0FTDxwfbH,2022-06-25_09h16.18.080,jpn_C01,2022.1.2,MacIntel,58.82352941,,,,,,,,,,,,,,,,,,,,,,,,,,,,,,,,,,,,,,,,,,,,トマ　シド　ドキ,right,69.031,0,0,0,0,1,,,,,,,,,,,,,,,,,,,,,,,,,,,,,,,,
,,,,,,,,,R_erOjci0FTDxwfbH,2022-06-25_09h16.18.080,jpn_C01,2022.1.2,MacIntel,58.82352941,,,,,,,,,,,,,CartoonStims/artist_point_boxer_r.jpg,audio/tomasidodoki.mp3,,,,,,,,,,,,,,,,,,,,,,,,,,,,,,,,,,,,,,0,1,1,3,1,トマ　シド　ドキ,,,,,,,,,,,,,,,,,,,,,,,,,,
,,,,,,,,,R_erOjci0FTDxwfbH,2022-06-25_09h16.18.080,jpn_C01,2022.1.2,MacIntel,58.82352941,,,,,,,,,,,,,,,,,,,,,,,,,,,,,,,,,,,,,,,,,,,,セル　ピポ　ホシド,right,16.108,0,0,0,0,1,,,,,,,,,,,,,,,,,,,,,,,,,,,,,,,,
,,,,,,,,,R_erOjci0FTDxwfbH,2022-06-25_09h16.18.080,jpn_C01,2022.1.2,MacIntel,58.82352941,,,,,,,,,,,,,CartoonStims/doctor_kick_chef_r.jpg,audio/serupipohoreto.mp3,,,,,,,,,,,,,,,,,,,,,,,,,,,,,,,,,,,,,,0,2,2,1,1,セル　ピポ　ホレト,,,,,,,,,,,,,,,,,,,,,,,,,,
,,,,,,,,,R_erOjci0FTDxwfbH,2022-06-25_09h16.18.080,jpn_C01,2022.1.2,MacIntel,58.82352941,,,,,,,,,,,,,,,,,,,,,,,,,,,,,,,,,,,,,,,,,,,,セル　ドギ　ルピン,right,27.763,0,0,0,0,1,,,,,,,,,,,,,,,,,,,,,,,,,,,,,,,,
,,,,,,,,,R_erOjci0FTDxwfbH,2022-06-25_09h16.18.080,jpn_C01,2022.1.2,MacIntel,58.82352941,,,,,,,,,,,,,CartoonStims/cowboy_kick_burglar_r.jpg,audio/serumukulupin.mp3,,,,,,,,,,,,,,,,,,,,,,,,,,,,,,,,,,,,,,0,3,3,0,1,セル　ムク　ルピン,,,,,,,,,,,,,,,,,,,,,,,,,,
,,,,,,,,,R_erOjci0FTDxwfbH,2022-06-25_09h16.18.080,jpn_C01,2022.1.2,MacIntel,58.82352941,,,,,,,,,,,,,,,,,,,,,,,,,,,,,,,,,,,,,,,,,,,,,right,17.11,0,0,0,0,1,,,,,,,,,,,,,,,,,,,,,,,,,,,,,,,,
,,,,,,,,,R_erOjci0FTDxwfbH,2022-06-25_09h16.18.080,jpn_C01,2022.1.2,MacIntel,58.82352941,,,,,,,,,,,,,CartoonStims/boxer_punch_artist_r.jpg,audio/pumidokisido.mp3,,,,,,,,,,,,,,,,,,,,,,,,,,,,,,,,,,,,,,0,4,4,11,1,プミ　ドキ　シド,,,,,,,,,,,,,,,,,,,,,,,,,,
,,,,,,,,,R_erOjci0FTDxwfbH,2022-06-25_09h16.18.080,jpn_C01,2022.1.2,MacIntel,58.82352941,,,,,,,,,,,,,,,,,,,,,,,,,,,,,,,,,,,,,,,,,,,,ルミ　ホレト　ルピン,right,9.612,0,0,0,0,1,,,,,,,,,,,,,,,,,,,,,,,,,,,,,,,,
,,,,,,,,,R_erOjci0FTDxwfbH,2022-06-25_09h16.18.080,jpn_C01,2022.1.2,MacIntel,58.82352941,,,,,,,,,,,,,CartoonStims/chef_point_burglar_r.jpg,audio/tomahoretolupin.mp3,,,,,,,,,,,,,,,,,,,,,,,,,,,,,,,,,,,,,,0,5,5,5,1,トマ　ホレト　ルピン,,,,,,,,,,,,,,,,,,,,,,,,,,
,,,,,,,,,R_erOjci0FTDxwfbH,2022-06-25_09h16.18.080,jpn_C01,2022.1.2,MacIntel,58.82352941,,,,,,,,,,,,,,,,,,,,,,,,,,,,,,,,,,,,,,,,,,,,,right,10.043,0,0,0,0,1,,,,,,,,,,,,,,,,,,,,,,,,,,,,,,,,
,,,,,,,,,R_erOjci0FTDxwfbH,2022-06-25_09h16.18.080,jpn_C01,2022.1.2,MacIntel,58.82352941,,,,,,,,,,,,,CartoonStims/burglar_shoot_chef_r.jpg,audio/patsulupinhoreto.mp3,,,,,,,,,,,,,,,,,,,,,,,,,,,,,,,,,,,,,,0,6,6,6,1,パツ　ルピン　ホレト,,,,,,,,,,,,,,,,,,,,,,,,,,
,,,,,,,,,R_erOjci0FTDxwfbH,2022-06-25_09h16.18.080,jpn_C01,2022.1.2,MacIntel,58.82352941,,,,,,,,,,,,,,,,,,,,,,,,,,,,,,,,,,,,,,,,,,,,,right,7.476,0,0,0,0,1,,,,,,,,,,,,,,,,,,,,,,,,,,,,,,,,
,,,,,,,,,R_erOjci0FTDxwfbH,2022-06-25_09h16.18.080,jpn_C01,2022.1.2,MacIntel,58.82352941,,,,,,,,,,,,,CartoonStims/doctor_punch_boxer_r.jpg,audio/pumipipodoki.mp3,,,,,,,,,,,,,,,,,,,,,,,,,,,,,,,,,,,,,,0,7,7,10,1,プミ　ピポ　ドキ,,,,,,,,,,,,,,,,,,,,,,,,,,
,,,,,,,,,R_erOjci0FTDxwfbH,2022-06-25_09h16.18.080,jpn_C01,2022.1.2,MacIntel,58.82352941,,,,,,,,,,,,,,,,,,,,,,,,,,,,,,,,,,,,,,,,,,,,プミ　ホレト　ルピン,right,6.81,0,0,0,0,1,,,,,,,,,,,,,,,,,,,,,,,,,,,,,,,,
,,,,,,,,,R_erOjci0FTDxwfbH,2022-06-25_09h16.18.080,jpn_C01,2022.1.2,MacIntel,58.82352941,,,,,,,,,,,,,CartoonStims/artist_punch_burglar_r.jpg,audio/pumisidolupin.mp3,,,,,,,,,,,,,,,,,,,,,,,,,,,,,,,,,,,,,,0,8,8,9,1,プミ　シド　ルピン,,,,,,,,,,,,,,,,,,,,,,,,,,
,,,,,,,,,R_erOjci0FTDxwfbH,2022-06-25_09h16.18.080,jpn_C01,2022.1.2,MacIntel,58.82352941,,,,,,,,,,,,,,,,,,,,,,,,,,,,,,,,,,,,,,,,,,,,ルミ　シド　ルピン,right,32.343,0,0,0,0,1,,,,,,,,,,,,,,,,,,,,,,,,,,,,,,,,
,,,,,,,,,R_erOjci0FTDxwfbH,2022-06-25_09h16.18.080,jpn_C01,2022.1.2,MacIntel,58.82352941,,,,,,,,,,,,,CartoonStims/cowboy_shoot_doctor_r.jpg,audio/patsumukupipo.mp3,,,,,,,,,,,,,,,,,,,,,,,,,,,,,,,,,,,,,,0,9,9,8,1,パツ　ムク　ピポ,,,,,,,,,,,,,,,,,,,,,,,,,,
,,,,,,,,,R_erOjci0FTDxwfbH,2022-06-25_09h16.18.080,jpn_C01,2022.1.2,MacIntel,58.82352941,,,,,,,,,,,,,,,,,,,,,,,,,,,,,,,,,,,,,,,,,,,,ルミ　ルピン　シド,right,9.776,0,0,0,0,1,,,,,,,,,,,,,,,,,,,,,,,,,,,,,,,,
,,,,,,,,,R_erOjci0FTDxwfbH,2022-06-25_09h16.18.080,jpn_C01,2022.1.2,MacIntel,58.82352941,,,,,,,,,,,,,CartoonStims/burglar_point_artist_r.jpg,audio/tomalupinsido.mp3,,,,,,,,,,,,,,,,,,,,,,,,,,,,,,,,,,,,,,0,10,10,4,1,トマ　ルピン　シド,,,,,,,,,,,,,,,,,,,,,,,,,,
,,,,,,,,,R_erOjci0FTDxwfbH,2022-06-25_09h16.18.080,jpn_C01,2022.1.2,MacIntel,58.82352941,,,,,,,,,,,,,,,,,,,,,,,,,,,,,,,,,,,,,,,,,,,,パツ　ホレト　ムク,right,16.293,0,0,0,0,1,,,,,,,,,,,,,,,,,,,,,,,,,,,,,,,,
,,,,,,,,,R_erOjci0FTDxwfbH,2022-06-25_09h16.18.080,jpn_C01,2022.1.2,MacIntel,58.82352941,,,,,,,,,,,,,CartoonStims/chef_shoot_cowboy_r.jpg,audio/patsuhoretomuku.mp3,,,,,,,,,,,,,,,,,,,,,,,,,,,,,,,,,,,,,,0,11,11,7,1,パツ　ホレト　ムク,,,,,,,,,,,,,,,,,,,,,,,,,,
,,,,,,,,,R_erOjci0FTDxwfbH,2022-06-25_09h16.18.080,jpn_C01,2022.1.2,MacIntel,58.82352941,,,,,,,,,,,,,,,,,,,,,,,,,,,,,,,,,,,,,,,,,,,,,,,,,,,,,,,,,,,space,2.629,0,1,1,1,1,AffExposure.xlsx,"第二のトライアルの学習では、この言語で書かれた文を見ていただきます。引き続き注意して、 聞こえた音を復唱してください。


スペースキーを押してください。",1,AffFCT.xlsx,ここからクイズが始まります。 スクリーンに表示されるテキストに合う画像を選んでください。,AffTest.xlsx,1,次にここまで学んだことをアウトプットしていただきます。 表示される画像を描写していると思う単語を、テキストボックスにタイプしてください。 答えを提出したあとに正しい正解が少しの間画面に写ります。,1,"これで第二のトライアルが終了しました。 ここで休憩をとっていただいても構いません。

休憩が終わりましたら、 スペースキーを押して続きの学習を行いましょう。",,,,,,,,
,,,,,,,,,R_erOjci0FTDxwfbH,2022-06-25_09h16.18.080,jpn_C01,2022.1.2,MacIntel,58.82352941,space,3.345,space,5.885,0,0,0,7,1,セル　ピク　ムク　ドキ,,,CartoonStims/cowboy_kick_boxer_r_no.jpg,audio/serupikumukudoki.mp3,,,,,,,,,,,,,,,,,,,,,,,,,,,,,,,,,,,,,,,,,,,,,,,,,,,,,,,,,,,,,,,,,,,,,
,,,,,,,,,R_erOjci0FTDxwfbH,2022-06-25_09h16.18.080,jpn_C01,2022.1.2,MacIntel,58.82352941,,,space,7.686,0,1,1,44,1,ピク　プミ　ピポ　ホレト,,,CartoonStims/doctor_punch_chef_r_no.jpg,audio/pikupumipipohoreto.mp3,,,,,,,,,,,,,,,,,,,,,,,,,,,,,,,,,,,,,,,,,,,,,,,,,,,,,,,,,,,,,,,,,,,,,
,,,,,,,,,R_erOjci0FTDxwfbH,2022-06-25_09h16.18.080,jpn_C01,2022.1.2,MacIntel,58.82352941,,,space,1.783,0,2,2,15,1,ピク　トマ　ルピン　ピポ,,,CartoonStims/burglar_point_doctor_r_no.jpg,audio/pikutomalupinpipo.mp3,,,,,,,,,,,,,,,,,,,,,,,,,,,,,,,,,,,,,,,,,,,,,,,,,,,,,,,,,,,,,,,,,,,,,
,,,,,,,,,R_erOjci0FTDxwfbH,2022-06-25_09h16.18.080,jpn_C01,2022.1.2,MacIntel,58.82352941,,,space,4.367,0,3,3,43,1,プミ　ピク　ムク　ホレト,,,CartoonStims/cowboy_punch_chef_r_no.jpg,audio/pumipikumukuhoreto.mp3,,,,,,,,,,,,,,,,,,,,,,,,,,,,,,,,,,,,,,,,,,,,,,,,,,,,,,,,,,,,,,,,,,,,,
,,,,,,,,,R_erOjci0FTDxwfbH,2022-06-25_09h16.18.080,jpn_C01,2022.1.2,MacIntel,58.82352941,,,space,3.213,0,4,4,37,1,プミ　ピク　シド　ドキ,,,CartoonStims/artist_punch_boxer_r_no.jpg,audio/pumipikusidodoki.mp3,,,,,,,,,,,,,,,,,,,,,,,,,,,,,,,,,,,,,,,,,,,,,,,,,,,,,,,,,,,,,,,,,,,,,
,,,,,,,,,R_erOjci0FTDxwfbH,2022-06-25_09h16.18.080,jpn_C01,2022.1.2,MacIntel,58.82352941,,,space,1.555,0,5,5,47,1,プミ　ピク　ドキ　ピポ,,,CartoonStims/boxer_punch_doctor_r_no.jpg,audio/pumipikudokipipo.mp3,,,,,,,,,,,,,,,,,,,,,,,,,,,,,,,,,,,,,,,,,,,,,,,,,,,,,,,,,,,,,,,,,,,,,
,,,,,,,,,R_erOjci0FTDxwfbH,2022-06-25_09h16.18.080,jpn_C01,2022.1.2,MacIntel,58.82352941,,,space,7.765,0,6,6,4,1,ピク　セル　ホレト　ムク,,,CartoonStims/chef_kick_cowboy_r_no.jpg,audio/pikuseruhoretomuku.mp3,,,,,,,,,,,,,,,,,,,,,,,,,,,,,,,,,,,,,,,,,,,,,,,,,,,,,,,,,,,,,,,,,,,,,
,,,,,,,,,R_erOjci0FTDxwfbH,2022-06-25_09h16.18.080,jpn_C01,2022.1.2,MacIntel,58.82352941,,,space,3.385,0,7,7,19,1,ピク　トマ　ムク　シド,,,CartoonStims/cowboy_point_artist_r_no.jpg,audio/pikutomamukusido.mp3,,,,,,,,,,,,,,,,,,,,,,,,,,,,,,,,,,,,,,,,,,,,,,,,,,,,,,,,,,,,,,,,,,,,,
,,,,,,,,,R_erOjci0FTDxwfbH,2022-06-25_09h16.18.080,jpn_C01,2022.1.2,MacIntel,58.82352941,,,space,8.48,0,8,8,20,1,トマ　ピク　ピポ　シド,,,CartoonStims/doctor_point_artist_r_no.jpg,audio/tomapikupiposido.mp3,,,,,,,,,,,,,,,,,,,,,,,,,,,,,,,,,,,,,,,,,,,,,,,,,,,,,,,,,,,,,,,,,,,,,
,,,,,,,,,R_erOjci0FTDxwfbH,2022-06-25_09h16.18.080,jpn_C01,2022.1.2,MacIntel,58.82352941,,,space,2.803,0,9,9,36,1,ピク　プミ　シド　ピポ,,,CartoonStims/artist_punch_doctor_r_no.jpg,audio/pikupumisidopipo.mp3,,,,,,,,,,,,,,,,,,,,,,,,,,,,,,,,,,,,,,,,,,,,,,,,,,,,,,,,,,,,,,,,,,,,,
,,,,,,,,,R_erOjci0FTDxwfbH,2022-06-25_09h16.18.080,jpn_C01,2022.1.2,MacIntel,58.82352941,,,space,8.599,0,10,10,3,1,セル　ピク　ルピン　ムク,,,CartoonStims/burglar_kick_cowboy_r_no.jpg,audio/serupikulupinmuku.mp3,,,,,,,,,,,,,,,,,,,,,,,,,,,,,,,,,,,,,,,,,,,,,,,,,,,,,,,,,,,,,,,,,,,,,
,,,,,,,,,R_erOjci0FTDxwfbH,2022-06-25_09h16.18.080,jpn_C01,2022.1.2,MacIntel,58.82352941,,,space,3.895,0,11,11,8,1,ピク　セル　ピポ　ドキ,,,CartoonStims/doctor_kick_boxer_r_no.jpg,audio/pikuserupipodoki.mp3,,,,,,,,,,,,,,,,,,,,,,,,,,,,,,,,,,,,,,,,,,,,,,,,,,,,,,,,,,,,,,,,,,,,,
,,,,,,,,,R_erOjci0FTDxwfbH,2022-06-25_09h16.18.080,jpn_C01,2022.1.2,MacIntel,58.82352941,,,space,6.251,0,12,12,1,1,セル　ピク　シド　ホレト,,,CartoonStims/artist_kick_chef_r_no.jpg,audio/serupikusidohoreto.mp3,,,,,,,,,,,,,,,,,,,,,,,,,,,,,,,,,,,,,,,,,,,,,,,,,,,,,,,,,,,,,,,,,,,,,
,,,,,,,,,R_erOjci0FTDxwfbH,2022-06-25_09h16.18.080,jpn_C01,2022.1.2,MacIntel,58.82352941,,,space,5.304,0,13,13,9,1,セル　ピク　ピポ　シド,,,CartoonStims/doctor_kick_artist_r_no.jpg,audio/serupikupiposido.mp3,,,,,,,,,,,,,,,,,,,,,,,,,,,,,,,,,,,,,,,,,,,,,,,,,,,,,,,,,,,,,,,,,,,,,
,,,,,,,,,R_erOjci0FTDxwfbH,2022-06-25_09h16.18.080,jpn_C01,2022.1.2,MacIntel,58.82352941,,,space,2.017,0,14,14,45,1,プミ　ピク　ピポ　ムク,,,CartoonStims/doctor_punch_cowboy_r_no.jpg,audio/pumipikupipomuku.mp3,,,,,,,,,,,,,,,,,,,,,,,,,,,,,,,,,,,,,,,,,,,,,,,,,,,,,,,,,,,,,,,,,,,,,
,,,,,,,,,R_erOjci0FTDxwfbH,2022-06-25_09h16.18.080,jpn_C01,2022.1.2,MacIntel,58.82352941,,,space,8.55,0,15,15,31,1,ピク　パツ　ムク　ルピン,,,CartoonStims/cowboy_shoot_burglar_r_no.jpg,audio/pikupatsumukulupin.mp3,,,,,,,,,,,,,,,,,,,,,,,,,,,,,,,,,,,,,,,,,,,,,,,,,,,,,,,,,,,,,,,,,,,,,
,,,,,,,,,R_erOjci0FTDxwfbH,2022-06-25_09h16.18.080,jpn_C01,2022.1.2,MacIntel,58.82352941,,,space,4.217,0,16,16,26,1,パツ　ピク　ルピン　ピポ,,,CartoonStims/burglar_shoot_doctor_r_no.jpg,audio/patsupikulupinpipo.mp3,,,,,,,,,,,,,,,,,,,,,,,,,,,,,,,,,,,,,,,,,,,,,,,,,,,,,,,,,,,,,,,,,,,,,
,,,,,,,,,R_erOjci0FTDxwfbH,2022-06-25_09h16.18.080,jpn_C01,2022.1.2,MacIntel,58.82352941,,,space,13.33,0,17,17,2,1,ピク　セル　ルピン　ホレト,,,CartoonStims/burglar_kick_chef_r_no.jpg,audio/pikuserulupinhoreto.mp3,,,,,,,,,,,,,,,,,,,,,,,,,,,,,,,,,,,,,,,,,,,,,,,,,,,,,,,,,,,,,,,,,,,,,
,,,,,,,,,R_erOjci0FTDxwfbH,2022-06-25_09h16.18.080,jpn_C01,2022.1.2,MacIntel,58.82352941,,,space,1.62,0,18,18,25,1,ピク　パツ　シド　ピポ,,,CartoonStims/artist_shoot_doctor_r_no.jpg,audio/pikupatsusidopipo.mp3,,,,,,,,,,,,,,,,,,,,,,,,,,,,,,,,,,,,,,,,,,,,,,,,,,,,,,,,,,,,,,,,,,,,,
,,,,,,,,,R_erOjci0FTDxwfbH,2022-06-25_09h16.18.080,jpn_C01,2022.1.2,MacIntel,58.82352941,,,space,1.623,0,19,19,13,1,ピク　トマ　シド　ムク,,,CartoonStims/artist_point_cowboy_r_no.jpg,audio/pikutomasidomuku.mp3,,,,,,,,,,,,,,,,,,,,,,,,,,,,,,,,,,,,,,,,,,,,,,,,,,,,,,,,,,,,,,,,,,,,,
,,,,,,,,,R_erOjci0FTDxwfbH,2022-06-25_09h16.18.080,jpn_C01,2022.1.2,MacIntel,58.82352941,,,space,2.419,0,20,20,35,1,ピク　パツ　ドキ　ムク,,,CartoonStims/boxer_shoot_cowboy_r_no.jpg,audio/pikupatsudokimuku.mp3,,,,,,,,,,,,,,,,,,,,,,,,,,,,,,,,,,,,,,,,,,,,,,,,,,,,,,,,,,,,,,,,,,,,,
,,,,,,,,,R_erOjci0FTDxwfbH,2022-06-25_09h16.18.080,jpn_C01,2022.1.2,MacIntel,58.82352941,,,space,2.966,0,21,21,14,1,トマ　ピク　ルピン　ムク,,,CartoonStims/burglar_point_cowboy_r_no.jpg,audio/tomapikulupinmuku.mp3,,,,,,,,,,,,,,,,,,,,,,,,,,,,,,,,,,,,,,,,,,,,,,,,,,,,,,,,,,,,,,,,,,,,,
,,,,,,,,,R_erOjci0FTDxwfbH,2022-06-25_09h16.18.080,jpn_C01,2022.1.2,MacIntel,58.82352941,,,space,1.767,0,22,22,24,1,パツ　ピク　シド　ムク,,,CartoonStims/artist_shoot_cowboy_r_no.jpg,audio/patsupikusidomuku.mp3,,,,,,,,,,,,,,,,,,,,,,,,,,,,,,,,,,,,,,,,,,,,,,,,,,,,,,,,,,,,,,,,,,,,,
,,,,,,,,,R_erOjci0FTDxwfbH,2022-06-25_09h16.18.080,jpn_C01,2022.1.2,MacIntel,58.82352941,,,space,0.752,0,23,23,22,1,トマ　ピク　ドキ　ルピン,,,CartoonStims/boxer_point_burglar_r_no.jpg,audio/tomapikudokilupin.mp3,,,,,,,,,,,,,,,,,,,,,,,,,,,,,,,,,,,,,,,,,,,,,,,,,,,,,,,,,,,,,,,,,,,,,
,,,,,,,,,R_erOjci0FTDxwfbH,2022-06-25_09h16.18.080,jpn_C01,2022.1.2,MacIntel,58.82352941,,,space,1.701,0,24,24,40,1,ピク　プミ　ホレト　シド,,,CartoonStims/chef_punch_artist_r_no.jpg,audio/pikupumihoretosido.mp3,,,,,,,,,,,,,,,,,,,,,,,,,,,,,,,,,,,,,,,,,,,,,,,,,,,,,,,,,,,,,,,,,,,,,
,,,,,,,,,R_erOjci0FTDxwfbH,2022-06-25_09h16.18.080,jpn_C01,2022.1.2,MacIntel,58.82352941,,,space,6.751,0,25,25,0,1,ピク　セル　シド　ルピン,,,CartoonStims/artist_kick_burglar_r_no.jpg,audio/pikuserusidolupin.mp3,,,,,,,,,,,,,,,,,,,,,,,,,,,,,,,,,,,,,,,,,,,,,,,,,,,,,,,,,,,,,,,,,,,,,
,,,,,,,,,R_erOjci0FTDxwfbH,2022-06-25_09h16.18.080,jpn_C01,2022.1.2,MacIntel,58.82352941,,,space,12.584,0,26,26,46,1,ピク　プミ　ドキ　ムク,,,CartoonStims/boxer_punch_cowboy_r_no.jpg,audio/pikupumidokimuku.mp3,,,,,,,,,,,,,,,,,,,,,,,,,,,,,,,,,,,,,,,,,,,,,,,,,,,,,,,,,,,,,,,,,,,,,
,,,,,,,,,R_erOjci0FTDxwfbH,2022-06-25_09h16.18.080,jpn_C01,2022.1.2,MacIntel,58.82352941,,,space,25.235,0,27,27,17,1,ピク　トマ　ホレト　ドキ,,,CartoonStims/chef_point_boxer_r_no.jpg,audio/pikutomahoretodoki.mp3,,,,,,,,,,,,,,,,,,,,,,,,,,,,,,,,,,,,,,,,,,,,,,,,,,,,,,,,,,,,,,,,,,,,,
,,,,,,,,,R_erOjci0FTDxwfbH,2022-06-25_09h16.18.080,jpn_C01,2022.1.2,MacIntel,58.82352941,,,space,5.769,0,28,28,28,1,パツ　ピク　ホレト　ドキ,,,CartoonStims/chef_shoot_boxer_r_no.jpg,audio/patsupikuhoretodoki.mp3,,,,,,,,,,,,,,,,,,,,,,,,,,,,,,,,,,,,,,,,,,,,,,,,,,,,,,,,,,,,,,,,,,,,,
,,,,,,,,,R_erOjci0FTDxwfbH,2022-06-25_09h16.18.080,jpn_C01,2022.1.2,MacIntel,58.82352941,,,space,6.367,0,29,29,42,1,ピク　プミ　ムク　ルピン,,,CartoonStims/cowboy_punch_burglar_r_no.jpg,audio/pikupumimukulupin.mp3,,,,,,,,,,,,,,,,,,,,,,,,,,,,,,,,,,,,,,,,,,,,,,,,,,,,,,,,,,,,,,,,,,,,,
,,,,,,,,,R_erOjci0FTDxwfbH,2022-06-25_09h16.18.080,jpn_C01,2022.1.2,MacIntel,58.82352941,,,space,3.038,0,30,30,12,1,トマ　ピク　シド　ホレト,,,CartoonStims/artist_point_chef_r_no.jpg,audio/tomapikusidohoreto.mp3,,,,,,,,,,,,,,,,,,,,,,,,,,,,,,,,,,,,,,,,,,,,,,,,,,,,,,,,,,,,,,,,,,,,,
,,,,,,,,,R_erOjci0FTDxwfbH,2022-06-25_09h16.18.080,jpn_C01,2022.1.2,MacIntel,58.82352941,,,space,9.918,0,31,31,5,1,セル　ピク　ホレト　ピポ,,,CartoonStims/chef_kick_doctor_r_no.jpg,audio/serupikuhoretopipo.mp3,,,,,,,,,,,,,,,,,,,,,,,,,,,,,,,,,,,,,,,,,,,,,,,,,,,,,,,,,,,,,,,,,,,,,
,,,,,,,,,R_erOjci0FTDxwfbH,2022-06-25_09h16.18.080,jpn_C01,2022.1.2,MacIntel,58.82352941,,,space,2.963,0,32,32,16,1,トマ　ピク　ホレト　ピポ,,,CartoonStims/chef_point_doctor_r_no.jpg,audio/tomapikuhoretopipo.mp3,,,,,,,,,,,,,,,,,,,,,,,,,,,,,,,,,,,,,,,,,,,,,,,,,,,,,,,,,,,,,,,,,,,,,
,,,,,,,,,R_erOjci0FTDxwfbH,2022-06-25_09h16.18.080,jpn_C01,2022.1.2,MacIntel,58.82352941,,,space,8.163,0,33,33,10,1,ピク　セル　ドキ　シド,,,CartoonStims/boxer_kick_artist_r_no.jpg,audio/pikuserudokisido.mp3,,,,,,,,,,,,,,,,,,,,,,,,,,,,,,,,,,,,,,,,,,,,,,,,,,,,,,,,,,,,,,,,,,,,,
,,,,,,,,,R_erOjci0FTDxwfbH,2022-06-25_09h16.18.080,jpn_C01,2022.1.2,MacIntel,58.82352941,,,space,2.297,0,34,34,21,1,ピク　トマ　ピポ　ルピン,,,CartoonStims/doctor_point_burglar_r_no.jpg,audio/pikutomapipolupin.mp3,,,,,,,,,,,,,,,,,,,,,,,,,,,,,,,,,,,,,,,,,,,,,,,,,,,,,,,,,,,,,,,,,,,,,
,,,,,,,,,R_erOjci0FTDxwfbH,2022-06-25_09h16.18.080,jpn_C01,2022.1.2,MacIntel,58.82352941,,,space,4.796,0,35,35,30,1,パツ　ピク　ムク　シド,,,CartoonStims/cowboy_shoot_artist_r_no.jpg,audio/patsupikumukusido.mp3,,,,,,,,,,,,,,,,,,,,,,,,,,,,,,,,,,,,,,,,,,,,,,,,,,,,,,,,,,,,,,,,,,,,,
,,,,,,,,,R_erOjci0FTDxwfbH,2022-06-25_09h16.18.080,jpn_C01,2022.1.2,MacIntel,58.82352941,,,space,4.229,0,36,36,38,1,ピク　プミ　ルピン　ドキ,,,CartoonStims/burglar_punch_boxer_r_no.jpg,audio/pikupumilupindoki.mp3,,,,,,,,,,,,,,,,,,,,,,,,,,,,,,,,,,,,,,,,,,,,,,,,,,,,,,,,,,,,,,,,,,,,,
,,,,,,,,,R_erOjci0FTDxwfbH,2022-06-25_09h16.18.080,jpn_C01,2022.1.2,MacIntel,58.82352941,,,space,0.835,0,37,37,27,1,ピク　パツ　ルピン　ドキ,,,CartoonStims/burglar_shoot_boxer_r_no.jpg,audio/pikupatsulupindoki.mp3,,,,,,,,,,,,,,,,,,,,,,,,,,,,,,,,,,,,,,,,,,,,,,,,,,,,,,,,,,,,,,,,,,,,,
,,,,,,,,,R_erOjci0FTDxwfbH,2022-06-25_09h16.18.080,jpn_C01,2022.1.2,MacIntel,58.82352941,,,space,5.936,0,38,38,32,1,パツ　ピク　ピポ　ルピン,,,CartoonStims/doctor_shoot_burglar_r_no.jpg,audio/patsupikupipolupin.mp3,,,,,,,,,,,,,,,,,,,,,,,,,,,,,,,,,,,,,,,,,,,,,,,,,,,,,,,,,,,,,,,,,,,,,
,,,,,,,,,R_erOjci0FTDxwfbH,2022-06-25_09h16.18.080,jpn_C01,2022.1.2,MacIntel,58.82352941,,,space,2.16,0,39,39,39,1,プミ　ピク　ルピン　シド,,,CartoonStims/burglar_punch_artist_r_no.jpg,audio/pumipikulupinsido.mp3,,,,,,,,,,,,,,,,,,,,,,,,,,,,,,,,,,,,,,,,,,,,,,,,,,,,,,,,,,,,,,,,,,,,,
,,,,,,,,,R_erOjci0FTDxwfbH,2022-06-25_09h16.18.080,jpn_C01,2022.1.2,MacIntel,58.82352941,,,space,2.351,0,40,40,23,1,ピク　トマ　ドキ　ホレト,,,CartoonStims/boxer_point_chef_r_no.jpg,audio/pikutomadokihoreto.mp3,,,,,,,,,,,,,,,,,,,,,,,,,,,,,,,,,,,,,,,,,,,,,,,,,,,,,,,,,,,,,,,,,,,,,
,,,,,,,,,R_erOjci0FTDxwfbH,2022-06-25_09h16.18.080,jpn_C01,2022.1.2,MacIntel,58.82352941,,,space,3.464,0,41,41,29,1,ピク　パツ　ホレト　シド,,,CartoonStims/chef_shoot_artist_r_no.jpg,audio/pikupatsuhoretosido.mp3,,,,,,,,,,,,,,,,,,,,,,,,,,,,,,,,,,,,,,,,,,,,,,,,,,,,,,,,,,,,,,,,,,,,,
,,,,,,,,,R_erOjci0FTDxwfbH,2022-06-25_09h16.18.080,jpn_C01,2022.1.2,MacIntel,58.82352941,,,space,2.767,0,42,42,41,1,プミ　ピク　ホレト　ルピン,,,CartoonStims/chef_punch_burglar_r_no.jpg,audio/pumipikuhoretolupin.mp3,,,,,,,,,,,,,,,,,,,,,,,,,,,,,,,,,,,,,,,,,,,,,,,,,,,,,,,,,,,,,,,,,,,,,
,,,,,,,,,R_erOjci0FTDxwfbH,2022-06-25_09h16.18.080,jpn_C01,2022.1.2,MacIntel,58.82352941,,,space,5.6,0,43,43,6,1,ピク　セル　ムク　ピポ,,,CartoonStims/cowboy_kick_doctor_r_no.jpg,audio/pikuserumukupipo.mp3,,,,,,,,,,,,,,,,,,,,,,,,,,,,,,,,,,,,,,,,,,,,,,,,,,,,,,,,,,,,,,,,,,,,,
,,,,,,,,,R_erOjci0FTDxwfbH,2022-06-25_09h16.18.080,jpn_C01,2022.1.2,MacIntel,58.82352941,,,space,5.013,0,44,44,18,1,トマ　ピク　ムク　ドキ,,,CartoonStims/cowboy_point_boxer_r_no.jpg,audio/tomapikumukudoki.mp3,,,,,,,,,,,,,,,,,,,,,,,,,,,,,,,,,,,,,,,,,,,,,,,,,,,,,,,,,,,,,,,,,,,,,
,,,,,,,,,R_erOjci0FTDxwfbH,2022-06-25_09h16.18.080,jpn_C01,2022.1.2,MacIntel,58.82352941,,,space,1.963,0,45,45,34,1,パツ　ピク　ドキ　ホレト,,,CartoonStims/boxer_shoot_chef_r_no.jpg,audio/patsupikudokihoreto.mp3,,,,,,,,,,,,,,,,,,,,,,,,,,,,,,,,,,,,,,,,,,,,,,,,,,,,,,,,,,,,,,,,,,,,,
,,,,,,,,,R_erOjci0FTDxwfbH,2022-06-25_09h16.18.080,jpn_C01,2022.1.2,MacIntel,58.82352941,,,space,1.935,0,46,46,11,1,セル　ピク　ドキ　ルピン,,,CartoonStims/boxer_kick_burglar_r_no.jpg,audio/serupikudokilupin.mp3,,,,,,,,,,,,,,,,,,,,,,,,,,,,,,,,,,,,,,,,,,,,,,,,,,,,,,,,,,,,,,,,,,,,,
,,,,,,,,,R_erOjci0FTDxwfbH,2022-06-25_09h16.18.080,jpn_C01,2022.1.2,MacIntel,58.82352941,,,space,3.501,0,47,47,33,1,ピク　パツ　ピポ　ホレト,,,CartoonStims/doctor_shoot_chef_r_no.jpg,audio/pikupatsupipohoreto.mp3,,,,,,,,,,,,,,,,,,,,,,,,,,,,,,,,,,,,,,,,,,,,,,,,,,,,,,,,,,,,,,,,,,,,,
,,,,,,,,,R_erOjci0FTDxwfbH,2022-06-25_09h16.18.080,jpn_C01,2022.1.2,MacIntel,58.82352941,,,,,,,,,,,,,,,space,0.553,left,0,5.285,,,,,,,,,,,,,,,,,,,,,,,,,,,,,,,,,,,,,,,,,,,,,,,,,,,,,,,,,0,0,0,0,1,,,
,,,,,,,,,R_erOjci0FTDxwfbH,2022-06-25_09h16.18.080,jpn_C01,2022.1.2,MacIntel,58.82352941,,,,,,,,,,,,,,,,,,,,,,,,,0,0,0,1,1,CartoonStims/chef_punch_cowboy_r.jpg,プミ　ピク　ホレト　ムク,CartoonStims/chef_kick_cowboy_r.jpg,right,CartoonStims/chef_kick_cowboy_r.jpg,audio/pumipikuhoretomuku.mp3,"残念！ こちらが正しい画像です。

否定文は起きていないことを示しているのを思い出してください。",,,,,,,,,,,,,,,,,,,,,,,,,,,,,,,,,,,,,,,,,,,,,,,
,,,,,,,,,R_erOjci0FTDxwfbH,2022-06-25_09h16.18.080,jpn_C01,2022.1.2,MacIntel,58.82352941,,,,,,,,,,,,,,,,,left,1,13.602,0,0,0,0,1,,,,,,,,,,,,,,,,,,,,,,,,,,,,,,,,,,,,,,,,,,,,,,,,,,,,,,,,,,,
,,,,,,,,,R_erOjci0FTDxwfbH,2022-06-25_09h16.18.080,jpn_C01,2022.1.2,MacIntel,58.82352941,,,,,,,,,,,,,,,,,,,,,,,,,0,1,1,0,1,CartoonStims/artist_shoot_burglar_r.jpg,ピク　プミ　シド　ルピン,CartoonStims/artist_punch_burglar_r.jpg,left,CartoonStims/artist_shoot_burglar_r.jpg,audio/pikupumisidolupin.mp3,"残念！ こちらが正しい画像です。

否定文は起きていないことを示しているのを思い出してください。",,,,,,,,,,,,,,,,,,,,,,,,,,,,,,,,,,,,,,,,,,,,,,,
,,,,,,,,,R_erOjci0FTDxwfbH,2022-06-25_09h16.18.080,jpn_C01,2022.1.2,MacIntel,58.82352941,,,,,,,,,,,,,,,,,right,1,5.266,,,,,,,,,,,,,,,,,,0,0,0,0,1,,,,,,,,,,,,,,,,,,,,,,,,,,,,,,,,,,,,,,,,,,
,,,,,,,,,R_erOjci0FTDxwfbH,2022-06-25_09h16.18.080,jpn_C01,2022.1.2,MacIntel,58.82352941,,,,,,,,,,,,,,,,,,,,,,,,,0,2,2,9,1,CartoonStims/boxer_shoot_doctor_r.jpg,パツ　ピク　ドキ　ピポ,CartoonStims/boxer_point_doctor_r.jpg,right,CartoonStims/boxer_point_doctor_r.jpg,audio/patsupikudokipipo.mp3,"残念！ こちらが正しい画像です。

否定文は起きていないことを示しているのを思い出してください。",,,,,,,,,,,,,,,,,,,,,,,,,,,,,,,,,,,,,,,,,,,,,,,
,,,,,,,,,R_erOjci0FTDxwfbH,2022-06-25_09h16.18.080,jpn_C01,2022.1.2,MacIntel,58.82352941,,,,,,,,,,,,,,,,,left,1,9.984,0,0,0,0,1,,,,,,,,,,,,,,,,,,,,,,,,,,,,,,,,,,,,,,,,,,,,,,,,,,,,,,,,,,,
,,,,,,,,,R_erOjci0FTDxwfbH,2022-06-25_09h16.18.080,jpn_C01,2022.1.2,MacIntel,58.82352941,,,,,,,,,,,,,,,,,,,,,,,,,0,3,3,10,1,CartoonStims/doctor_punch_cowboy_r.jpg,ピク　パツ　ピポ　ムク,CartoonStims/doctor_shoot_cowboy_r.jpg,left,CartoonStims/doctor_punch_cowboy_r.jpg,audio/pikupatsupipomuku.mp3,"残念！ こちらが正しい画像です。

否定文は起きていないことを示しているのを思い出してください。",,,,,,,,,,,,,,,,,,,,,,,,,,,,,,,,,,,,,,,,,,,,,,,
,,,,,,,,,R_erOjci0FTDxwfbH,2022-06-25_09h16.18.080,jpn_C01,2022.1.2,MacIntel,58.82352941,,,,,,,,,,,,,,,,,right,1,2.946,,,,,,,,,,,,,,,,,,0,0,0,0,1,,,,,,,,,,,,,,,,,,,,,,,,,,,,,,,,,,,,,,,,,,
,,,,,,,,,R_erOjci0FTDxwfbH,2022-06-25_09h16.18.080,jpn_C01,2022.1.2,MacIntel,58.82352941,,,,,,,,,,,,,,,,,,,,,,,,,0,4,4,11,1,CartoonStims/chef_shoot_burglar_r.jpg,パツ　ピク　ホレト　ルピン,CartoonStims/chef_kick_burglar_r.jpg,right,CartoonStims/chef_kick_burglar_r.jpg,audio/patsupikuhoretolupin.mp3,"残念！ こちらが正しい画像です。

否定文は起きていないことを示しているのを思い出してください。",,,,,,,,,,,,,,,,,,,,,,,,,,,,,,,,,,,,,,,,,,,,,,,
,,,,,,,,,R_erOjci0FTDxwfbH,2022-06-25_09h16.18.080,jpn_C01,2022.1.2,MacIntel,58.82352941,,,,,,,,,,,,,,,,,left,1,2.847,0,0,0,0,1,,,,,,,,,,,,,,,,,,,,,,,,,,,,,,,,,,,,,,,,,,,,,,,,,,,,,,,,,,,
,,,,,,,,,R_erOjci0FTDxwfbH,2022-06-25_09h16.18.080,jpn_C01,2022.1.2,MacIntel,58.82352941,,,,,,,,,,,,,,,,,,,,,,,,,0,5,5,8,1,CartoonStims/burglar_punch_artist_r.jpg,トマ　ピク　ルピン　シド,CartoonStims/burglar_point_artist_r.jpg,left,CartoonStims/burglar_punch_artist_r.jpg,audio/tomapikulupinsido.mp3,"残念！ こちらが正しい画像です。

否定文は起きていないことを示しているのを思い出してください。",,,,,,,,,,,,,,,,,,,,,,,,,,,,,,,,,,,,,,,,,,,,,,,
,,,,,,,,,R_erOjci0FTDxwfbH,2022-06-25_09h16.18.080,jpn_C01,2022.1.2,MacIntel,58.82352941,,,,,,,,,,,,,,,,,left,1,1.485,0,0,0,0,1,,,,,,,,,,,,,,,,,,,,,,,,,,,,,,,,,,,,,,,,,,,,,,,,,,,,,,,,,,,
,,,,,,,,,R_erOjci0FTDxwfbH,2022-06-25_09h16.18.080,jpn_C01,2022.1.2,MacIntel,58.82352941,,,,,,,,,,,,,,,,,,,,,,,,,0,6,6,6,1,CartoonStims/artist_shoot_boxer_r.jpg,トマ　ピク　シド　ドキ,CartoonStims/artist_point_boxer_r.jpg,left,CartoonStims/artist_shoot_boxer_r.jpg,audio/tomapikusidodoki.mp3,"残念！ こちらが正しい画像です。

否定文は起きていないことを示しているのを思い出してください。",,,,,,,,,,,,,,,,,,,,,,,,,,,,,,,,,,,,,,,,,,,,,,,
,,,,,,,,,R_erOjci0FTDxwfbH,2022-06-25_09h16.18.080,jpn_C01,2022.1.2,MacIntel,58.82352941,,,,,,,,,,,,,,,,,right,1,3.563,,,,,,,,,,,,,,,,,,0,0,0,0,1,,,,,,,,,,,,,,,,,,,,,,,,,,,,,,,,,,,,,,,,,,
,,,,,,,,,R_erOjci0FTDxwfbH,2022-06-25_09h16.18.080,jpn_C01,2022.1.2,MacIntel,58.82352941,,,,,,,,,,,,,,,,,,,,,,,,,0,7,7,5,1,CartoonStims/boxer_kick_cowboy_r.jpg,ピク　セル　ドキ　ムク,CartoonStims/boxer_punch_cowboy_r.jpg,right,CartoonStims/boxer_punch_cowboy_r.jpg,audio/pikuserudokimuku.mp3,"残念！ こちらが正しい画像です。

否定文は起きていないことを示しているのを思い出してください。",,,,,,,,,,,,,,,,,,,,,,,,,,,,,,,,,,,,,,,,,,,,,,,
,,,,,,,,,R_erOjci0FTDxwfbH,2022-06-25_09h16.18.080,jpn_C01,2022.1.2,MacIntel,58.82352941,,,,,,,,,,,,,,,,,left,1,1.312,0,0,0,0,1,,,,,,,,,,,,,,,,,,,,,,,,,,,,,,,,,,,,,,,,,,,,,,,,,,,,,,,,,,,
,,,,,,,,,R_erOjci0FTDxwfbH,2022-06-25_09h16.18.080,jpn_C01,2022.1.2,MacIntel,58.82352941,,,,,,,,,,,,,,,,,,,,,,,,,0,8,8,4,1,CartoonStims/burglar_shoot_doctor_r.jpg,セル　ピク　ルピン　ピポ,CartoonStims/burglar_kick_doctor_r.jpg,left,CartoonStims/burglar_shoot_doctor_r.jpg,audio/serupikulupinpipo.mp3,"残念！ こちらが正しい画像です。

否定文は起きていないことを示しているのを思い出してください。",,,,,,,,,,,,,,,,,,,,,,,,,,,,,,,,,,,,,,,,,,,,,,,
,,,,,,,,,R_erOjci0FTDxwfbH,2022-06-25_09h16.18.080,jpn_C01,2022.1.2,MacIntel,58.82352941,,,,,,,,,,,,,,,,,left,1,4.483,0,0,0,0,1,,,,,,,,,,,,,,,,,,,,,,,,,,,,,,,,,,,,,,,,,,,,,,,,,,,,,,,,,,,
,,,,,,,,,R_erOjci0FTDxwfbH,2022-06-25_09h16.18.080,jpn_C01,2022.1.2,MacIntel,58.82352941,,,,,,,,,,,,,,,,,,,,,,,,,0,9,9,2,1,CartoonStims/doctor_point_boxer_r.jpg,ピク　プミ　ピポ　ドキ,CartoonStims/doctor_punch_boxer_r.jpg,left,CartoonStims/doctor_point_boxer_r.jpg,audio/pikupumipipodoki.mp3,"残念！ こちらが正しい画像です。

否定文は起きていないことを示しているのを思い出してください。",,,,,,,,,,,,,,,,,,,,,,,,,,,,,,,,,,,,,,,,,,,,,,,
,,,,,,,,,R_erOjci0FTDxwfbH,2022-06-25_09h16.18.080,jpn_C01,2022.1.2,MacIntel,58.82352941,,,,,,,,,,,,,,,,,right,1,3.021,,,,,,,,,,,,,,,,,,0,0,0,0,1,,,,,,,,,,,,,,,,,,,,,,,,,,,,,,,,,,,,,,,,,,
,,,,,,,,,R_erOjci0FTDxwfbH,2022-06-25_09h16.18.080,jpn_C01,2022.1.2,MacIntel,58.82352941,,,,,,,,,,,,,,,,,,,,,,,,,0,10,10,3,1,CartoonStims/chef_kick_artist_r.jpg,ピク　セル　ホレト　シド,CartoonStims/chef_point_artist_r.jpg,right,CartoonStims/chef_point_artist_r.jpg,audio/pikuseruhoretosido.mp3,"残念！ こちらが正しい画像です。

否定文は起きていないことを示しているのを思い出してください。",,,,,,,,,,,,,,,,,,,,,,,,,,,,,,,,,,,,,,,,,,,,,,,
,,,,,,,,,R_erOjci0FTDxwfbH,2022-06-25_09h16.18.080,jpn_C01,2022.1.2,MacIntel,58.82352941,,,,,,,,,,,,,,,,,right,1,1.63,,,,,,,,,,,,,,,,,,0,0,0,0,1,,,,,,,,,,,,,,,,,,,,,,,,,,,,,,,,,,,,,,,,,,
,,,,,,,,,R_erOjci0FTDxwfbH,2022-06-25_09h16.18.080,jpn_C01,2022.1.2,MacIntel,58.82352941,,,,,,,,,,,,,,,,,,,,,,,,,0,11,11,7,1,CartoonStims/cowboy_point_chef_r.jpg,ピク　トマ　ムク　ホレト,CartoonStims/cowboy_kick_chef_r.jpg,right,CartoonStims/cowboy_kick_chef_r.jpg,audio/pikutomamukuhoreto.mp3,"残念！ こちらが正しい画像です。

否定文は起きていないことを示しているのを思い出してください。",,,,,,,,,,,,,,,,,,,,,,,,,,,,,,,,,,,,,,,,,,,,,,,
,,,,,,,,,R_erOjci0FTDxwfbH,2022-06-25_09h16.18.080,jpn_C01,2022.1.2,MacIntel,58.82352941,,,,,,,,,,,,,CartoonStims/artist_punch_cowboy_r_no.jpg,,,,,,,,,,,,,,,,,,,,,,,,,,,,,space,9.8,ピク　セル　シド　ムク,right,20.844,,,,,,0,0,0,18,1,,,,,,,,,,,,,,,,,,,,,,,,,ピク　プミ　シド　ムク,プミ　ピク　シド　ムク,1
,,,,,,,,,R_erOjci0FTDxwfbH,2022-06-25_09h16.18.080,jpn_C01,2022.1.2,MacIntel,58.82352941,,,,,,,,,,,,,CartoonStims/chef_point_burglar_r.jpg,,,,,,,,,,,,,,,,,,,,,,,,,,,,,,,トマ　ホルト　ルピン,right,22.895,,,,,,0,1,1,29,1,,,,,,,,,,,,,,,,,,,,,,,,,トマ　ホレト　ルピン,トマ　ホレト　ルピン,0
,,,,,,,,,R_erOjci0FTDxwfbH,2022-06-25_09h16.18.080,jpn_C01,2022.1.2,MacIntel,58.82352941,,,,,,,,,,,,,CartoonStims/burglar_punch_doctor_r_no.jpg,,,,,,,,,,,,,,,,,,,,,,,,,,,,,,,セル　ピク　ルピン　ピポ,right,31.96,,,,,,0,2,2,19,1,,,,,,,,,,,,,,,,,,,,,,,,,ピク　プミ　ルピン　ピポ,プミ　ピク　ルピン　ピポ,1
,,,,,,,,,R_erOjci0FTDxwfbH,2022-06-25_09h16.18.080,jpn_C01,2022.1.2,MacIntel,58.82352941,,,,,,,,,,,,,CartoonStims/doctor_punch_burglar_r_no.jpg,,,,,,,,,,,,,,,,,,,,,,,,,,,,,,,セル　ピク　ピポ　ルピン,right,15.941,,,,,,0,3,3,22,1,,,,,,,,,,,,,,,,,,,,,,,,,ピク　プミ　ピポ　ルピン,プミ　ピク　ピポ　ルピン,1
,,,,,,,,,R_erOjci0FTDxwfbH,2022-06-25_09h16.18.080,jpn_C01,2022.1.2,MacIntel,58.82352941,,,,,,,,,,,,,CartoonStims/boxer_punch_chef_r_no.jpg,,,,,,,,,,,,,,,,,,,,,,,,,,,,,,,パツ　ピク　ドキ　ルハト,right,30.647,,,,,,0,4,4,23,1,,,,,,,,,,,,,,,,,,,,,,,,,ピク　プミ　ドキ　ホレト,プミ　ピク　ドキ　ホレト,1
,,,,,,,,,R_erOjci0FTDxwfbH,2022-06-25_09h16.18.080,jpn_C01,2022.1.2,MacIntel,58.82352941,,,,,,,,,,,,,CartoonStims/chef_point_cowboy_r_no.jpg,,,,,,,,,,,,,,,,,,,,,,,,,,,,,,,ピク　トマ　ルハト　ムク,right,15.777,,,,,,0,5,5,8,1,,,,,,,,,,,,,,,,,,,,,,,,,ピク　トマ　ホレト　ムク,トマ　ピク　ホレト　ムク,1
,,,,,,,,,R_erOjci0FTDxwfbH,2022-06-25_09h16.18.080,jpn_C01,2022.1.2,MacIntel,58.82352941,,,,,,,,,,,,,CartoonStims/cowboy_kick_burglar_r.jpg,,,,,,,,,,,,,,,,,,,,,,,,,,,,,,,セル　ムク　ルピン,right,21.282,,,,,,0,6,6,24,1,,,,,,,,,,,,,,,,,,,,,,,,,セル　ムク　ルピン,セル　ムク　ルピン,0
,,,,,,,,,R_erOjci0FTDxwfbH,2022-06-25_09h16.18.080,jpn_C01,2022.1.2,MacIntel,58.82352941,,,,,,,,,,,,,CartoonStims/burglar_shoot_cowboy_r_no.jpg,,,,,,,,,,,,,,,,,,,,,,,,,,,,,,,ピク　パツ　ルピン　ピポ,right,9.458,,,,,,0,7,7,13,1,,,,,,,,,,,,,,,,,,,,,,,,,ピク　パツ　ルピン　ムク,パツ　ピク　ルピン　ムク,1
,,,,,,,,,R_erOjci0FTDxwfbH,2022-06-25_09h16.18.080,jpn_C01,2022.1.2,MacIntel,58.82352941,,,,,,,,,,,,,CartoonStims/doctor_shoot_artist_r_no.jpg,,,,,,,,,,,,,,,,,,,,,,,,,,,,,,,パツ　ピク　ピポ　シド,right,13.776,,,,,,0,8,8,16,1,,,,,,,,,,,,,,,,,,,,,,,,,ピク　パツ　ピポ　シド,パツ　ピク　ピポ　シド,1
,,,,,,,,,R_erOjci0FTDxwfbH,2022-06-25_09h16.18.080,jpn_C01,2022.1.2,MacIntel,58.82352941,,,,,,,,,,,,,CartoonStims/artist_kick_boxer_r_no.jpg,,,,,,,,,,,,,,,,,,,,,,,,,,,,,,,セル　ピポ　シド　ドキ,right,11.695,,,,,,0,9,9,0,1,,,,,,,,,,,,,,,,,,,,,,,,,ピク　セル　シド　ドキ,セル　ピク　シド　ドキ,1
,,,,,,,,,R_erOjci0FTDxwfbH,2022-06-25_09h16.18.080,jpn_C01,2022.1.2,MacIntel,58.82352941,,,,,,,,,,,,,CartoonStims/chef_shoot_cowboy_r.jpg,,,,,,,,,,,,,,,,,,,,,,,,,,,,,,,パツ　ホルト　ムク,right,16.213,,,,,,0,10,10,31,1,,,,,,,,,,,,,,,,,,,,,,,,,パツ　ホレト　ムク,パツ　ホレト　ムク,0
,,,,,,,,,R_erOjci0FTDxwfbH,2022-06-25_09h16.18.080,jpn_C01,2022.1.2,MacIntel,58.82352941,,,,,,,,,,,,,CartoonStims/boxer_point_artist_r_no.jpg,,,,,,,,,,,,,,,,,,,,,,,,,,,,,,,ピク　トマ　ドキ　シド,right,8.542,,,,,,0,11,11,11,1,,,,,,,,,,,,,,,,,,,,,,,,,ピク　トマ　ドキ　シド,トマ　ピク　ドキ　シド,1
,,,,,,,,,R_erOjci0FTDxwfbH,2022-06-25_09h16.18.080,jpn_C01,2022.1.2,MacIntel,58.82352941,,,,,,,,,,,,,CartoonStims/doctor_punch_boxer_r.jpg,,,,,,,,,,,,,,,,,,,,,,,,,,,,,,,パツ　ピポ　ドキ,right,28.748,,,,,,0,12,12,34,1,,,,,,,,,,,,,,,,,,,,,,,,,プミ　ピポ　ドキ,プミ　ピポ　ドキ,0
,,,,,,,,,R_erOjci0FTDxwfbH,2022-06-25_09h16.18.080,jpn_C01,2022.1.2,MacIntel,58.82352941,,,,,,,,,,,,,CartoonStims/cowboy_punch_artist_r_no.jpg,,,,,,,,,,,,,,,,,,,,,,,,,,,,,,,ピク　パツ　ムク　シド,right,17.129,,,,,,0,13,13,21,1,,,,,,,,,,,,,,,,,,,,,,,,,ピク　プミ　ムク　シド,プミ　ピク　ムク　シド,1
,,,,,,,,,R_erOjci0FTDxwfbH,2022-06-25_09h16.18.080,jpn_C01,2022.1.2,MacIntel,58.82352941,,,,,,,,,,,,,CartoonStims/artist_shoot_chef_r_no.jpg,,,,,,,,,,,,,,,,,,,,,,,,,,,,,,,ピク　パツ　シド　ホルト,right,14.379,,,,,,0,14,14,12,1,,,,,,,,,,,,,,,,,,,,,,,,,ピク　パツ　シド　ホレト,パツ　ピク　シド　ホレト,1
,,,,,,,,,R_erOjci0FTDxwfbH,2022-06-25_09h16.18.080,jpn_C01,2022.1.2,MacIntel,58.82352941,,,,,,,,,,,,,CartoonStims/doctor_point_boxer_r_no.jpg,,,,,,,,,,,,,,,,,,,,,,,,,,,,,,,ピク　トマ　ピポ　ムク,right,14.095,,,,,,0,15,15,10,1,,,,,,,,,,,,,,,,,,,,,,,,,ピク　トマ　ピポ　ドキ,トマ　ピク　ピポ　ドキ,1
,,,,,,,,,R_erOjci0FTDxwfbH,2022-06-25_09h16.18.080,jpn_C01,2022.1.2,MacIntel,58.82352941,,,,,,,,,,,,,CartoonStims/burglar_point_artist_r.jpg,,,,,,,,,,,,,,,,,,,,,,,,,,,,,,,トマ　ピポ　シド,right,10.393,,,,,,0,16,16,28,1,,,,,,,,,,,,,,,,,,,,,,,,,トマ　ルピン　シド,トマ　ルピン　シド,0
,,,,,,,,,R_erOjci0FTDxwfbH,2022-06-25_09h16.18.080,jpn_C01,2022.1.2,MacIntel,58.82352941,,,,,,,,,,,,,CartoonStims/cowboy_point_doctor_r_no.jpg,,,,,,,,,,,,,,,,,,,,,,,,,,,,,,,ピク　トマ　ムク　ピポ,right,10.328,,,,,,0,17,17,9,1,,,,,,,,,,,,,,,,,,,,,,,,,ピク　トマ　ムク　ピポ,トマ　ピク　ムク　ピポ,1
,,,,,,,,,R_erOjci0FTDxwfbH,2022-06-25_09h16.18.080,jpn_C01,2022.1.2,MacIntel,58.82352941,,,,,,,,,,,,,CartoonStims/burglar_shoot_chef_r.jpg,,,,,,,,,,,,,,,,,,,,,,,,,,,,,,,パツ　ルピン,right,9.85,,,,,,0,18,18,30,1,,,,,,,,,,,,,,,,,,,,,,,,,パツ　ルピン　ホレト,パツ　ルピン　ホレト,0
,,,,,,,,,R_erOjci0FTDxwfbH,2022-06-25_09h16.18.080,jpn_C01,2022.1.2,MacIntel,58.82352941,,,,,,,,,,,,,CartoonStims/boxer_kick_cowboy_r.jpg,,,,,,,,,,,,,,,,,,,,,,,,,,,,,,,セル　ドキ　ムク,right,12.277,,,,,,0,19,19,26,1,,,,,,,,,,,,,,,,,,,,,,,,,セル　ドキ　ムク,セル　ドキ　ムク,0
,,,,,,,,,R_erOjci0FTDxwfbH,2022-06-25_09h16.18.080,jpn_C01,2022.1.2,MacIntel,58.82352941,,,,,,,,,,,,,CartoonStims/cowboy_shoot_doctor_r.jpg,,,,,,,,,,,,,,,,,,,,,,,,,,,,,,,パツ　ムク　ピポ,right,11.381,,,,,,0,20,20,32,1,,,,,,,,,,,,,,,,,,,,,,,,,パツ　ムク　ピポ,パツ　ムク　ピポ,0
,,,,,,,,,R_erOjci0FTDxwfbH,2022-06-25_09h16.18.080,jpn_C01,2022.1.2,MacIntel,58.82352941,,,,,,,,,,,,,CartoonStims/cowboy_shoot_boxer_r_no.jpg,,,,,,,,,,,,,,,,,,,,,,,,,,,,,,,ピク　パツ　ムク　ドキ,right,16.792,,,,,,0,21,21,15,1,,,,,,,,,,,,,,,,,,,,,,,,,ピク　パツ　ムク　ドキ,パツ　ピク　ムク　ドキ,1
,,,,,,,,,R_erOjci0FTDxwfbH,2022-06-25_09h16.18.080,jpn_C01,2022.1.2,MacIntel,58.82352941,,,,,,,,,,,,,CartoonStims/boxer_kick_doctor_r_no.jpg,,,,,,,,,,,,,,,,,,,,,,,,,,,,,,,ピク　セル　ドキ　ピポ,right,11.315,,,,,,0,22,22,5,1,,,,,,,,,,,,,,,,,,,,,,,,,ピク　セル　ドキ　ピポ,セル　ピク　ドキ　ピポ,1
,,,,,,,,,R_erOjci0FTDxwfbH,2022-06-25_09h16.18.080,jpn_C01,2022.1.2,MacIntel,58.82352941,,,,,,,,,,,,,CartoonStims/chef_punch_boxer_r_no.jpg,,,,,,,,,,,,,,,,,,,,,,,,,,,,,,,ピク　パツ　,right,11.16,,,,,,0,23,23,20,1,,,,,,,,,,,,,,,,,,,,,,,,,ピク　プミ　ホレト　ドキ,プミ　ピク　ホレト　ドキ,1
,,,,,,,,,R_erOjci0FTDxwfbH,2022-06-25_09h16.18.080,jpn_C01,2022.1.2,MacIntel,58.82352941,,,,,,,,,,,,,CartoonStims/burglar_point_chef_r_no.jpg,,,,,,,,,,,,,,,,,,,,,,,,,,,,,,,ピク　トマ　ルピン　ホルト,right,8.192,,,,,,0,24,24,7,1,,,,,,,,,,,,,,,,,,,,,,,,,ピク　トマ　ルピン　ホレト,トマ　ピク　ルピン　ホレト,1
,,,,,,,,,R_erOjci0FTDxwfbH,2022-06-25_09h16.18.080,jpn_C01,2022.1.2,MacIntel,58.82352941,,,,,,,,,,,,,CartoonStims/boxer_shoot_burglar_r_no.jpg,,,,,,,,,,,,,,,,,,,,,,,,,,,,,,,ピク　パツ　ドキ　ルピン,right,13.858,,,,,,0,25,25,17,1,,,,,,,,,,,,,,,,,,,,,,,,,ピク　パツ　ドキ　ルピン,パツ　ピク　ドキ　ルピン,1
,,,,,,,,,R_erOjci0FTDxwfbH,2022-06-25_09h16.18.080,jpn_C01,2022.1.2,MacIntel,58.82352941,,,,,,,,,,,,,CartoonStims/burglar_kick_artist_r_no.jpg,,,,,,,,,,,,,,,,,,,,,,,,,,,,,,,ピク　セル　ルピン　シド,right,11.795,,,,,,0,26,26,1,1,,,,,,,,,,,,,,,,,,,,,,,,,ピク　セル　ルピン　シド,セル　ピク　ルピン　シド,1
,,,,,,,,,R_erOjci0FTDxwfbH,2022-06-25_09h16.18.080,jpn_C01,2022.1.2,MacIntel,58.82352941,,,,,,,,,,,,,CartoonStims/artist_punch_burglar_r.jpg,,,,,,,,,,,,,,,,,,,,,,,,,,,,,,,パツ　シド　ルピン,right,13.228,,,,,,0,27,27,33,1,,,,,,,,,,,,,,,,,,,,,,,,,プミ　シド　ルピン,プミ　シド　ルピン,0
,,,,,,,,,R_erOjci0FTDxwfbH,2022-06-25_09h16.18.080,jpn_C01,2022.1.2,MacIntel,58.82352941,,,,,,,,,,,,,CartoonStims/chef_kick_burglar_r_no.jpg,,,,,,,,,,,,,,,,,,,,,,,,,,,,,,,ピク　セル　ルホト　ルピン,right,11.076,,,,,,0,28,28,2,1,,,,,,,,,,,,,,,,,,,,,,,,,ピク　セル　ホレト　ルピン,セル　ピク　ホレト　ルピン,1
,,,,,,,,,R_erOjci0FTDxwfbH,2022-06-25_09h16.18.080,jpn_C01,2022.1.2,MacIntel,58.82352941,,,,,,,,,,,,,CartoonStims/artist_point_boxer_r.jpg,,,,,,,,,,,,,,,,,,,,,,,,,,,,,,,トマ　シド　ムク,right,8.195,,,,,,0,29,29,27,1,,,,,,,,,,,,,,,,,,,,,,,,,トマ　シド　ドキ,トマ　シド　ドキ,0
,,,,,,,,,R_erOjci0FTDxwfbH,2022-06-25_09h16.18.080,jpn_C01,2022.1.2,MacIntel,58.82352941,,,,,,,,,,,,,CartoonStims/doctor_kick_cowboy_r_no.jpg,,,,,,,,,,,,,,,,,,,,,,,,,,,,,,,ピク　セル　ピポ　ムク,right,13.498,,,,,,0,30,30,4,1,,,,,,,,,,,,,,,,,,,,,,,,,ピク　セル　ピポ　ムク,セル　ピク　ピポ　ムク,1
,,,,,,,,,R_erOjci0FTDxwfbH,2022-06-25_09h16.18.080,jpn_C01,2022.1.2,MacIntel,58.82352941,,,,,,,,,,,,,CartoonStims/artist_point_burglar_r_no.jpg,,,,,,,,,,,,,,,,,,,,,,,,,,,,,,,ピク　トマ　シド　ピポ,right,11.542,,,,,,0,31,31,6,1,,,,,,,,,,,,,,,,,,,,,,,,,ピク　トマ　シド　ルピン,トマ　ピク　シド　ルピン,1
,,,,,,,,,R_erOjci0FTDxwfbH,2022-06-25_09h16.18.080,jpn_C01,2022.1.2,MacIntel,58.82352941,,,,,,,,,,,,,CartoonStims/boxer_punch_artist_r.jpg,,,,,,,,,,,,,,,,,,,,,,,,,,,,,,,パツ　ムク　シド,right,6.941,,,,,,0,32,32,35,1,,,,,,,,,,,,,,,,,,,,,,,,,プミ　ドキ　シド,プミ　ドキ　シド,0
,,,,,,,,,R_erOjci0FTDxwfbH,2022-06-25_09h16.18.080,jpn_C01,2022.1.2,MacIntel,58.82352941,,,,,,,,,,,,,CartoonStims/doctor_kick_chef_r.jpg,,,,,,,,,,,,,,,,,,,,,,,,,,,,,,,セル　ピポ　ルホト,right,8.881,,,,,,0,33,33,25,1,,,,,,,,,,,,,,,,,,,,,,,,,セル　ピポ　ホレト,セル　ピポ　ホレト,0
,,,,,,,,,R_erOjci0FTDxwfbH,2022-06-25_09h16.18.080,jpn_C01,2022.1.2,MacIntel,58.82352941,,,,,,,,,,,,,CartoonStims/chef_shoot_doctor_r_no.jpg,,,,,,,,,,,,,,,,,,,,,,,,,,,,,,,ピク　パツ　ルホト,right,9.691,,,,,,0,34,34,14,1,,,,,,,,,,,,,,,,,,,,,,,,,ピク　パツ　ホレト　ピポ,パツ　ピク　ホレト　ピポ,1
,,,,,,,,,R_erOjci0FTDxwfbH,2022-06-25_09h16.18.080,jpn_C01,2022.1.2,MacIntel,58.82352941,,,,,,,,,,,,,CartoonStims/cowboy_kick_chef_r_no.jpg,,,,,,,,,,,,,,,,,,,,,,,,,,,,,,,ピク　セル　ムク　ルホト,right,18.348,,,,,,0,35,35,3,1,,,,,,,,,,,,,,,,,,,,,,,,,ピク　セル　ムク　ホレト,セル　ピク　ムク　ホレト,1
,,,,,,,,,R_erOjci0FTDxwfbH,2022-06-25_09h16.18.080,jpn_C01,2022.1.2,MacIntel,58.82352941,,,,,,,,,,,,,,,,,,,,,,,,,,,,,,,,,,,,,,,,,,,,,,,,,,,,,,,,,,,space,0.746,0,2,2,2,1,EquiprobableCondition.xlsx,"ここではこの言語における否定の文を学習していただきます。引き続き注意して、 聞こえた音を復唱してください。

スペースキーを押してください。",1,EquiFCT.xlsx,ここからクイズが始まります。 スクリーンに表示されるテキストに合うイメージを選んでください。,NegTest.xlsx,1,最後にここまで学んだことをアウトプットしていただきます。 テキストボックスにあるイメージを描写するテキストを入力してください。 このタスクでは、 答え合わせは行いません。,0,これですべての実験が終わりました。 お疲れさまです。 この後はアンケートに答えていただきます。,,,,,,,,