key_resp_instr_a.keys,key_resp_instr_a.rt,key_resp_instr_b.keys,key_resp_instr_b.rt,dummy.thisRepN,dummy.thisTrialN,dummy.thisN,dummy.thisIndex,dummy.ran,participant,date,expName,psychopyVersion,OS,frameRate,key_resp_instr1.keys,key_resp_instr1.rt,key_resp.keys,key_resp.rt,exp_loop.thisRepN,exp_loop.thisTrialN,exp_loop.thisN,exp_loop.thisIndex,exp_loop.ran,Word,English,Flip,Path,Audio,key_resp_instr2.keys,key_resp_instr2.rt,key_resp_fct.keys,key_resp_fct.corr,key_resp_fct.rt,trials.thisRepN,trials.thisTrialN,trials.thisN,trials.thisIndex,trials.ran,fct_loop.thisRepN,fct_loop.thisTrialN,fct_loop.thisN,fct_loop.thisIndex,fct_loop.ran,left_img,word,right_img,correctans,correct_img,audio,incorrect_feedback,trials_2.thisRepN,trials_2.thisTrialN,trials_2.thisN,trials_2.thisIndex,trials_2.ran,key_resp_instr3.keys,key_resp_instr3.rt,textbox.text,key_resp_2.keys,key_resp_2.rt,fb_yn.thisRepN,fb_yn.thisTrialN,fb_yn.thisN,fb_yn.thisIndex,fb_yn.ran,gather_loop.thisRepN,gather_loop.thisTrialN,gather_loop.thisN,gather_loop.thisIndex,gather_loop.ran,Text,Wordbank,key_resp_instr4.keys,key_resp_instr4.rt,master_loop.thisRepN,master_loop.thisTrialN,master_loop.thisN,master_loop.thisIndex,master_loop.ran,exposure_file,instr_1,exp_reps,fct_file,instr_2,gather_file,gather_reps,instr_3,fReps,instr_4,trials_3.thisRepN,trials_3.thisTrialN,trials_3.thisN,trials_3.thisIndex,trials_3.ran,NegVSentence,VNegSentence,NegTF
space,7.747,space,15.833,0,0,0,0,1,R_1Cawvb0JEdQ2WNQ,2022-09-02_14h25.08.228,jpn_C02,2022.1.2,MacIntel,30.3030303,,,,,,,,,,,,,,,,,,,,,,,,,,,,,,,,,,,,,,,,,,,,,,,,,,,,,,,,,,,,,,,,,,,,,,,,,,,,,,,,,,,
,,,,,,,,,R_1Cawvb0JEdQ2WNQ,2022-09-02_14h25.08.228,jpn_C02,2022.1.2,MacIntel,30.3030303,space,20.1,space,9.214,0,0,0,0,1,シド,artist,,CartoonStims/artist_r.jpg,audio/sido.mp3,,,,,,,,,,,,,,,,,,,,,,,,,,,,,,,,,,,,,,,,,,,,,,,,,,,,,,,,,,,,,,,,,,,,,
,,,,,,,,,R_1Cawvb0JEdQ2WNQ,2022-09-02_14h25.08.228,jpn_C02,2022.1.2,MacIntel,30.3030303,,,space,8.797,0,1,1,2,1,ホレト,chef,,CartoonStims/chef_r.jpg,audio/horeto.mp3,,,,,,,,,,,,,,,,,,,,,,,,,,,,,,,,,,,,,,,,,,,,,,,,,,,,,,,,,,,,,,,,,,,,,
,,,,,,,,,R_1Cawvb0JEdQ2WNQ,2022-09-02_14h25.08.228,jpn_C02,2022.1.2,MacIntel,30.3030303,,,space,12.685,0,2,2,5,1,ドキ,boxer,,CartoonStims/boxer_r.jpg,audio/doki.mp3,,,,,,,,,,,,,,,,,,,,,,,,,,,,,,,,,,,,,,,,,,,,,,,,,,,,,,,,,,,,,,,,,,,,,
,,,,,,,,,R_1Cawvb0JEdQ2WNQ,2022-09-02_14h25.08.228,jpn_C02,2022.1.2,MacIntel,30.3030303,,,space,25.534,0,3,3,4,1,ピポ,doctor,,CartoonStims/doctor_r.jpg,audio/pipo.mp3,,,,,,,,,,,,,,,,,,,,,,,,,,,,,,,,,,,,,,,,,,,,,,,,,,,,,,,,,,,,,,,,,,,,,
,,,,,,,,,R_1Cawvb0JEdQ2WNQ,2022-09-02_14h25.08.228,jpn_C02,2022.1.2,MacIntel,30.3030303,,,space,23.398,0,4,4,3,1,ムク,cowboy,,CartoonStims/cowboy_r.jpg,audio/muku.mp3,,,,,,,,,,,,,,,,,,,,,,,,,,,,,,,,,,,,,,,,,,,,,,,,,,,,,,,,,,,,,,,,,,,,,
,,,,,,,,,R_1Cawvb0JEdQ2WNQ,2022-09-02_14h25.08.228,jpn_C02,2022.1.2,MacIntel,30.3030303,,,space,28.342,0,5,5,1,1,ルピン,burglar,,CartoonStims/burglar_r.jpg,audio/lupin.mp3,,,,,,,,,,,,,,,,,,,,,,,,,,,,,,,,,,,,,,,,,,,,,,,,,,,,,,,,,,,,,,,,,,,,,
,,,,,,,,,R_1Cawvb0JEdQ2WNQ,2022-09-02_14h25.08.228,jpn_C02,2022.1.2,MacIntel,30.3030303,,,space,3.912,1,0,6,2,1,ホレト,chef,,CartoonStims/chef_r.jpg,audio/horeto.mp3,,,,,,,,,,,,,,,,,,,,,,,,,,,,,,,,,,,,,,,,,,,,,,,,,,,,,,,,,,,,,,,,,,,,,
,,,,,,,,,R_1Cawvb0JEdQ2WNQ,2022-09-02_14h25.08.228,jpn_C02,2022.1.2,MacIntel,30.3030303,,,space,19.612,1,1,7,0,1,シド,artist,,CartoonStims/artist_r.jpg,audio/sido.mp3,,,,,,,,,,,,,,,,,,,,,,,,,,,,,,,,,,,,,,,,,,,,,,,,,,,,,,,,,,,,,,,,,,,,,
,,,,,,,,,R_1Cawvb0JEdQ2WNQ,2022-09-02_14h25.08.228,jpn_C02,2022.1.2,MacIntel,30.3030303,,,space,18.569,1,2,8,3,1,ムク,cowboy,,CartoonStims/cowboy_r.jpg,audio/muku.mp3,,,,,,,,,,,,,,,,,,,,,,,,,,,,,,,,,,,,,,,,,,,,,,,,,,,,,,,,,,,,,,,,,,,,,
,,,,,,,,,R_1Cawvb0JEdQ2WNQ,2022-09-02_14h25.08.228,jpn_C02,2022.1.2,MacIntel,30.3030303,,,space,28.85,1,3,9,4,1,ピポ,doctor,,CartoonStims/doctor_r.jpg,audio/pipo.mp3,,,,,,,,,,,,,,,,,,,,,,,,,,,,,,,,,,,,,,,,,,,,,,,,,,,,,,,,,,,,,,,,,,,,,
,,,,,,,,,R_1Cawvb0JEdQ2WNQ,2022-09-02_14h25.08.228,jpn_C02,2022.1.2,MacIntel,30.3030303,,,space,4.705,1,4,10,5,1,ドキ,boxer,,CartoonStims/boxer_r.jpg,audio/doki.mp3,,,,,,,,,,,,,,,,,,,,,,,,,,,,,,,,,,,,,,,,,,,,,,,,,,,,,,,,,,,,,,,,,,,,,
,,,,,,,,,R_1Cawvb0JEdQ2WNQ,2022-09-02_14h25.08.228,jpn_C02,2022.1.2,MacIntel,30.3030303,,,space,1.878,1,5,11,1,1,ルピン,burglar,,CartoonStims/burglar_r.jpg,audio/lupin.mp3,,,,,,,,,,,,,,,,,,,,,,,,,,,,,,,,,,,,,,,,,,,,,,,,,,,,,,,,,,,,,,,,,,,,,
,,,,,,,,,R_1Cawvb0JEdQ2WNQ,2022-09-02_14h25.08.228,jpn_C02,2022.1.2,MacIntel,30.3030303,,,space,6.618,2,0,12,4,1,ピポ,doctor,,CartoonStims/doctor_r.jpg,audio/pipo.mp3,,,,,,,,,,,,,,,,,,,,,,,,,,,,,,,,,,,,,,,,,,,,,,,,,,,,,,,,,,,,,,,,,,,,,
,,,,,,,,,R_1Cawvb0JEdQ2WNQ,2022-09-02_14h25.08.228,jpn_C02,2022.1.2,MacIntel,30.3030303,,,space,3.667,2,1,13,3,1,ムク,cowboy,,CartoonStims/cowboy_r.jpg,audio/muku.mp3,,,,,,,,,,,,,,,,,,,,,,,,,,,,,,,,,,,,,,,,,,,,,,,,,,,,,,,,,,,,,,,,,,,,,
,,,,,,,,,R_1Cawvb0JEdQ2WNQ,2022-09-02_14h25.08.228,jpn_C02,2022.1.2,MacIntel,30.3030303,,,space,0.655,2,2,14,1,1,ルピン,burglar,,CartoonStims/burglar_r.jpg,audio/lupin.mp3,,,,,,,,,,,,,,,,,,,,,,,,,,,,,,,,,,,,,,,,,,,,,,,,,,,,,,,,,,,,,,,,,,,,,
,,,,,,,,,R_1Cawvb0JEdQ2WNQ,2022-09-02_14h25.08.228,jpn_C02,2022.1.2,MacIntel,30.3030303,,,space,3.427,2,3,15,5,1,ドキ,boxer,,CartoonStims/boxer_r.jpg,audio/doki.mp3,,,,,,,,,,,,,,,,,,,,,,,,,,,,,,,,,,,,,,,,,,,,,,,,,,,,,,,,,,,,,,,,,,,,,
,,,,,,,,,R_1Cawvb0JEdQ2WNQ,2022-09-02_14h25.08.228,jpn_C02,2022.1.2,MacIntel,30.3030303,,,space,1.765,2,4,16,2,1,ホレト,chef,,CartoonStims/chef_r.jpg,audio/horeto.mp3,,,,,,,,,,,,,,,,,,,,,,,,,,,,,,,,,,,,,,,,,,,,,,,,,,,,,,,,,,,,,,,,,,,,,
,,,,,,,,,R_1Cawvb0JEdQ2WNQ,2022-09-02_14h25.08.228,jpn_C02,2022.1.2,MacIntel,30.3030303,,,space,1.115,2,5,17,0,1,シド,artist,,CartoonStims/artist_r.jpg,audio/sido.mp3,,,,,,,,,,,,,,,,,,,,,,,,,,,,,,,,,,,,,,,,,,,,,,,,,,,,,,,,,,,,,,,,,,,,,
,,,,,,,,,R_1Cawvb0JEdQ2WNQ,2022-09-02_14h25.08.228,jpn_C02,2022.1.2,MacIntel,30.3030303,,,,,,,,,,,,,,,space,1.315,left,1,3.378,0,0,0,0,1,,,,,,,,,,,,,,,,,,,,,,,,,,,,,,,,,,,,,,,,,,,,,,,,,,,,,,,,,,,
,,,,,,,,,R_1Cawvb0JEdQ2WNQ,2022-09-02_14h25.08.228,jpn_C02,2022.1.2,MacIntel,30.3030303,,,,,,,,,,,,,,,,,,,,,,,,,0,0,0,2,1,CartoonStims/chef_r.jpg,ホレト,CartoonStims/cowboy_r.jpg,left,CartoonStims/chef_r.jpg,audio/horeto.mp3,残念！ こちらが正しい画像です。,,,,,,,,,,,,,,,,,,,,,,,,,,,,,,,,,,,,,,,,,,,,,,,
,,,,,,,,,R_1Cawvb0JEdQ2WNQ,2022-09-02_14h25.08.228,jpn_C02,2022.1.2,MacIntel,30.3030303,,,,,,,,,,,,,,,,,right,1,1.433,,,,,,,,,,,,,,,,,,0,0,0,0,1,,,,,,,,,,,,,,,,,,,,,,,,,,,,,,,,,,,,,,,,,,
,,,,,,,,,R_1Cawvb0JEdQ2WNQ,2022-09-02_14h25.08.228,jpn_C02,2022.1.2,MacIntel,30.3030303,,,,,,,,,,,,,,,,,,,,,,,,,0,1,1,9,1,CartoonStims/boxer_r.jpg,ムク,CartoonStims/cowboy_r.jpg,right,CartoonStims/cowboy_r.jpg,audio/muku.mp3,残念！ こちらが正しい画像です。,,,,,,,,,,,,,,,,,,,,,,,,,,,,,,,,,,,,,,,,,,,,,,,
,,,,,,,,,R_1Cawvb0JEdQ2WNQ,2022-09-02_14h25.08.228,jpn_C02,2022.1.2,MacIntel,30.3030303,,,,,,,,,,,,,,,,,right,1,0.681,,,,,,,,,,,,,,,,,,0,0,0,0,1,,,,,,,,,,,,,,,,,,,,,,,,,,,,,,,,,,,,,,,,,,
,,,,,,,,,R_1Cawvb0JEdQ2WNQ,2022-09-02_14h25.08.228,jpn_C02,2022.1.2,MacIntel,30.3030303,,,,,,,,,,,,,,,,,,,,,,,,,0,2,2,7,1,CartoonStims/cowboy_r.jpg,ルピン,CartoonStims/burglar_r.jpg,right,CartoonStims/burglar_r.jpg,audio/lupin.mp3,残念！ こちらが正しい画像です。,,,,,,,,,,,,,,,,,,,,,,,,,,,,,,,,,,,,,,,,,,,,,,,
,,,,,,,,,R_1Cawvb0JEdQ2WNQ,2022-09-02_14h25.08.228,jpn_C02,2022.1.2,MacIntel,30.3030303,,,,,,,,,,,,,,,,,left,1,3.986,0,0,0,0,1,,,,,,,,,,,,,,,,,,,,,,,,,,,,,,,,,,,,,,,,,,,,,,,,,,,,,,,,,,,
,,,,,,,,,R_1Cawvb0JEdQ2WNQ,2022-09-02_14h25.08.228,jpn_C02,2022.1.2,MacIntel,30.3030303,,,,,,,,,,,,,,,,,,,,,,,,,0,3,3,3,1,CartoonStims/cowboy_r.jpg,ムク,CartoonStims/doctor_r.jpg,left,CartoonStims/cowboy_r.jpg,audio/muku.mp3,残念！ こちらが正しい画像です。,,,,,,,,,,,,,,,,,,,,,,,,,,,,,,,,,,,,,,,,,,,,,,,
,,,,,,,,,R_1Cawvb0JEdQ2WNQ,2022-09-02_14h25.08.228,jpn_C02,2022.1.2,MacIntel,30.3030303,,,,,,,,,,,,,,,,,right,1,0.718,,,,,,,,,,,,,,,,,,0,0,0,0,1,,,,,,,,,,,,,,,,,,,,,,,,,,,,,,,,,,,,,,,,,,
,,,,,,,,,R_1Cawvb0JEdQ2WNQ,2022-09-02_14h25.08.228,jpn_C02,2022.1.2,MacIntel,30.3030303,,,,,,,,,,,,,,,,,,,,,,,,,0,4,4,11,1,CartoonStims/burglar_r.jpg,ドキ,CartoonStims/boxer_r.jpg,right,CartoonStims/boxer_r.jpg,audio/doki.mp3,残念！ こちらが正しい画像です。,,,,,,,,,,,,,,,,,,,,,,,,,,,,,,,,,,,,,,,,,,,,,,,
,,,,,,,,,R_1Cawvb0JEdQ2WNQ,2022-09-02_14h25.08.228,jpn_C02,2022.1.2,MacIntel,30.3030303,,,,,,,,,,,,,,,,,left,1,1.179,0,0,0,0,1,,,,,,,,,,,,,,,,,,,,,,,,,,,,,,,,,,,,,,,,,,,,,,,,,,,,,,,,,,,
,,,,,,,,,R_1Cawvb0JEdQ2WNQ,2022-09-02_14h25.08.228,jpn_C02,2022.1.2,MacIntel,30.3030303,,,,,,,,,,,,,,,,,,,,,,,,,0,5,5,5,1,CartoonStims/boxer_r.jpg,ドキ,CartoonStims/artist_r.jpg,left,CartoonStims/boxer_r.jpg,audio/doki.mp3,残念！ こちらが正しい画像です。,,,,,,,,,,,,,,,,,,,,,,,,,,,,,,,,,,,,,,,,,,,,,,,
,,,,,,,,,R_1Cawvb0JEdQ2WNQ,2022-09-02_14h25.08.228,jpn_C02,2022.1.2,MacIntel,30.3030303,,,,,,,,,,,,,,,,,left,1,0.99,0,0,0,0,1,,,,,,,,,,,,,,,,,,,,,,,,,,,,,,,,,,,,,,,,,,,,,,,,,,,,,,,,,,,
,,,,,,,,,R_1Cawvb0JEdQ2WNQ,2022-09-02_14h25.08.228,jpn_C02,2022.1.2,MacIntel,30.3030303,,,,,,,,,,,,,,,,,,,,,,,,,0,6,6,0,1,CartoonStims/artist_r.jpg,シド,CartoonStims/burglar_r.jpg,left,CartoonStims/artist_r.jpg,audio/sido.mp3,残念！ こちらが正しい画像です。,,,,,,,,,,,,,,,,,,,,,,,,,,,,,,,,,,,,,,,,,,,,,,,
,,,,,,,,,R_1Cawvb0JEdQ2WNQ,2022-09-02_14h25.08.228,jpn_C02,2022.1.2,MacIntel,30.3030303,,,,,,,,,,,,,,,,,right,1,2.576,,,,,,,,,,,,,,,,,,0,0,0,0,1,,,,,,,,,,,,,,,,,,,,,,,,,,,,,,,,,,,,,,,,,,
,,,,,,,,,R_1Cawvb0JEdQ2WNQ,2022-09-02_14h25.08.228,jpn_C02,2022.1.2,MacIntel,30.3030303,,,,,,,,,,,,,,,,,,,,,,,,,0,7,7,6,1,CartoonStims/chef_r.jpg,シド,CartoonStims/artist_r.jpg,right,CartoonStims/artist_r.jpg,audio/sido.mp3,残念！ こちらが正しい画像です。,,,,,,,,,,,,,,,,,,,,,,,,,,,,,,,,,,,,,,,,,,,,,,,
,,,,,,,,,R_1Cawvb0JEdQ2WNQ,2022-09-02_14h25.08.228,jpn_C02,2022.1.2,MacIntel,30.3030303,,,,,,,,,,,,,,,,,left,1,0.223,0,0,0,0,1,,,,,,,,,,,,,,,,,,,,,,,,,,,,,,,,,,,,,,,,,,,,,,,,,,,,,,,,,,,
,,,,,,,,,R_1Cawvb0JEdQ2WNQ,2022-09-02_14h25.08.228,jpn_C02,2022.1.2,MacIntel,30.3030303,,,,,,,,,,,,,,,,,,,,,,,,,0,8,8,1,1,CartoonStims/burglar_r.jpg,ルピン,CartoonStims/chef_r.jpg,left,CartoonStims/burglar_r.jpg,audio/lupin.mp3,残念！ こちらが正しい画像です。,,,,,,,,,,,,,,,,,,,,,,,,,,,,,,,,,,,,,,,,,,,,,,,
,,,,,,,,,R_1Cawvb0JEdQ2WNQ,2022-09-02_14h25.08.228,jpn_C02,2022.1.2,MacIntel,30.3030303,,,,,,,,,,,,,,,,,right,1,2.439,,,,,,,,,,,,,,,,,,0,0,0,0,1,,,,,,,,,,,,,,,,,,,,,,,,,,,,,,,,,,,,,,,,,,
,,,,,,,,,R_1Cawvb0JEdQ2WNQ,2022-09-02_14h25.08.228,jpn_C02,2022.1.2,MacIntel,30.3030303,,,,,,,,,,,,,,,,,,,,,,,,,0,9,9,10,1,CartoonStims/artist_r.jpg,ピポ,CartoonStims/doctor_r.jpg,right,CartoonStims/doctor_r.jpg,audio/pipo.mp3,残念！ こちらが正しい画像です。,,,,,,,,,,,,,,,,,,,,,,,,,,,,,,,,,,,,,,,,,,,,,,,
,,,,,,,,,R_1Cawvb0JEdQ2WNQ,2022-09-02_14h25.08.228,jpn_C02,2022.1.2,MacIntel,30.3030303,,,,,,,,,,,,,,,,,right,1,1.744,,,,,,,,,,,,,,,,,,0,0,0,0,1,,,,,,,,,,,,,,,,,,,,,,,,,,,,,,,,,,,,,,,,,,
,,,,,,,,,R_1Cawvb0JEdQ2WNQ,2022-09-02_14h25.08.228,jpn_C02,2022.1.2,MacIntel,30.3030303,,,,,,,,,,,,,,,,,,,,,,,,,0,10,10,8,1,CartoonStims/doctor_r.jpg,ホレト,CartoonStims/chef_r.jpg,right,CartoonStims/chef_r.jpg,audio/horeto.mp3,残念！ こちらが正しい画像です。,,,,,,,,,,,,,,,,,,,,,,,,,,,,,,,,,,,,,,,,,,,,,,,
,,,,,,,,,R_1Cawvb0JEdQ2WNQ,2022-09-02_14h25.08.228,jpn_C02,2022.1.2,MacIntel,30.3030303,,,,,,,,,,,,,,,,,left,1,0.899,0,0,0,0,1,,,,,,,,,,,,,,,,,,,,,,,,,,,,,,,,,,,,,,,,,,,,,,,,,,,,,,,,,,,
,,,,,,,,,R_1Cawvb0JEdQ2WNQ,2022-09-02_14h25.08.228,jpn_C02,2022.1.2,MacIntel,30.3030303,,,,,,,,,,,,,,,,,,,,,,,,,0,11,11,4,1,CartoonStims/doctor_r.jpg,ピポ,CartoonStims/boxer_r.jpg,left,CartoonStims/doctor_r.jpg,audio/pipo.mp3,残念！ こちらが正しい画像です。,,,,,,,,,,,,,,,,,,,,,,,,,,,,,,,,,,,,,,,,,,,,,,,
,,,,,,,,,R_1Cawvb0JEdQ2WNQ,2022-09-02_14h25.08.228,jpn_C02,2022.1.2,MacIntel,30.3030303,,,,,,,,,,,,,,,,,,,,,,,,,,,,,,,,,,,,,,,,,,space,9.647,シド,right,16.202,0,0,0,0,1,,,,,,,,,,,,,,,,,,,,,,,,,,,,,,,,
,,,,,,,,,R_1Cawvb0JEdQ2WNQ,2022-09-02_14h25.08.228,jpn_C02,2022.1.2,MacIntel,30.3030303,,,,,,,,,,,,,CartoonStims/artist_r.jpg,audio/sido.mp3,,,,,,,,,,,,,,,,,,,,,,,,,,,,,,,,,,,,,,0,0,0,0,1,シド,,,,,,,,,,,,,,,,,,,,,,,,,,
,,,,,,,,,R_1Cawvb0JEdQ2WNQ,2022-09-02_14h25.08.228,jpn_C02,2022.1.2,MacIntel,30.3030303,,,,,,,,,,,,,,,,,,,,,,,,,,,,,,,,,,,,,,,,,,,,ムク,right,14.192,0,0,0,0,1,,,,,,,,,,,,,,,,,,,,,,,,,,,,,,,,
,,,,,,,,,R_1Cawvb0JEdQ2WNQ,2022-09-02_14h25.08.228,jpn_C02,2022.1.2,MacIntel,30.3030303,,,,,,,,,,,,,CartoonStims/cowboy_r.jpg,audio/muku.mp3,,,,,,,,,,,,,,,,,,,,,,,,,,,,,,,,,,,,,,0,1,1,3,1,ムク,,,,,,,,,,,,,,,,,,,,,,,,,,
,,,,,,,,,R_1Cawvb0JEdQ2WNQ,2022-09-02_14h25.08.228,jpn_C02,2022.1.2,MacIntel,30.3030303,,,,,,,,,,,,,,,,,,,,,,,,,,,,,,,,,,,,,,,,,,,,ピポ,right,4.799,0,0,0,0,1,,,,,,,,,,,,,,,,,,,,,,,,,,,,,,,,
,,,,,,,,,R_1Cawvb0JEdQ2WNQ,2022-09-02_14h25.08.228,jpn_C02,2022.1.2,MacIntel,30.3030303,,,,,,,,,,,,,CartoonStims/doctor_r.jpg,audio/pipo.mp3,,,,,,,,,,,,,,,,,,,,,,,,,,,,,,,,,,,,,,0,2,2,4,1,ピポ,,,,,,,,,,,,,,,,,,,,,,,,,,
,,,,,,,,,R_1Cawvb0JEdQ2WNQ,2022-09-02_14h25.08.228,jpn_C02,2022.1.2,MacIntel,30.3030303,,,,,,,,,,,,,,,,,,,,,,,,,,,,,,,,,,,,,,,,,,,,ドキ,right,6.427,0,0,0,0,1,,,,,,,,,,,,,,,,,,,,,,,,,,,,,,,,
,,,,,,,,,R_1Cawvb0JEdQ2WNQ,2022-09-02_14h25.08.228,jpn_C02,2022.1.2,MacIntel,30.3030303,,,,,,,,,,,,,CartoonStims/boxer_r.jpg,audio/doki.mp3,,,,,,,,,,,,,,,,,,,,,,,,,,,,,,,,,,,,,,0,3,3,5,1,ドキ,,,,,,,,,,,,,,,,,,,,,,,,,,
,,,,,,,,,R_1Cawvb0JEdQ2WNQ,2022-09-02_14h25.08.228,jpn_C02,2022.1.2,MacIntel,30.3030303,,,,,,,,,,,,,,,,,,,,,,,,,,,,,,,,,,,,,,,,,,,,ルピン,right,9.735,0,0,0,0,1,,,,,,,,,,,,,,,,,,,,,,,,,,,,,,,,
,,,,,,,,,R_1Cawvb0JEdQ2WNQ,2022-09-02_14h25.08.228,jpn_C02,2022.1.2,MacIntel,30.3030303,,,,,,,,,,,,,CartoonStims/burglar_r.jpg,audio/lupin.mp3,,,,,,,,,,,,,,,,,,,,,,,,,,,,,,,,,,,,,,0,4,4,1,1,ルピン,,,,,,,,,,,,,,,,,,,,,,,,,,
,,,,,,,,,R_1Cawvb0JEdQ2WNQ,2022-09-02_14h25.08.228,jpn_C02,2022.1.2,MacIntel,30.3030303,,,,,,,,,,,,,,,,,,,,,,,,,,,,,,,,,,,,,,,,,,,,ホレト,right,11.913,0,0,0,0,1,,,,,,,,,,,,,,,,,,,,,,,,,,,,,,,,
,,,,,,,,,R_1Cawvb0JEdQ2WNQ,2022-09-02_14h25.08.228,jpn_C02,2022.1.2,MacIntel,30.3030303,,,,,,,,,,,,,CartoonStims/chef_r.jpg,audio/horeto.mp3,,,,,,,,,,,,,,,,,,,,,,,,,,,,,,,,,,,,,,0,5,5,2,1,ホレト,,,,,,,,,,,,,,,,,,,,,,,,,,
,,,,,,,,,R_1Cawvb0JEdQ2WNQ,2022-09-02_14h25.08.228,jpn_C02,2022.1.2,MacIntel,30.3030303,,,,,,,,,,,,,,,,,,,,,,,,,,,,,,,,,,,,,,,,,,,,ピポ,right,9.081,0,0,0,0,1,,,,,,,,,,,,,,,,,,,,,,,,,,,,,,,,
,,,,,,,,,R_1Cawvb0JEdQ2WNQ,2022-09-02_14h25.08.228,jpn_C02,2022.1.2,MacIntel,30.3030303,,,,,,,,,,,,,CartoonStims/doctor_r.jpg,audio/pipo.mp3,,,,,,,,,,,,,,,,,,,,,,,,,,,,,,,,,,,,,,1,0,6,4,1,ピポ,,,,,,,,,,,,,,,,,,,,,,,,,,
,,,,,,,,,R_1Cawvb0JEdQ2WNQ,2022-09-02_14h25.08.228,jpn_C02,2022.1.2,MacIntel,30.3030303,,,,,,,,,,,,,,,,,,,,,,,,,,,,,,,,,,,,,,,,,,,,ルピン,right,6.561,0,0,0,0,1,,,,,,,,,,,,,,,,,,,,,,,,,,,,,,,,
,,,,,,,,,R_1Cawvb0JEdQ2WNQ,2022-09-02_14h25.08.228,jpn_C02,2022.1.2,MacIntel,30.3030303,,,,,,,,,,,,,CartoonStims/burglar_r.jpg,audio/lupin.mp3,,,,,,,,,,,,,,,,,,,,,,,,,,,,,,,,,,,,,,1,1,7,1,1,ルピン,,,,,,,,,,,,,,,,,,,,,,,,,,
,,,,,,,,,R_1Cawvb0JEdQ2WNQ,2022-09-02_14h25.08.228,jpn_C02,2022.1.2,MacIntel,30.3030303,,,,,,,,,,,,,,,,,,,,,,,,,,,,,,,,,,,,,,,,,,,,ドキ,right,3.498,0,0,0,0,1,,,,,,,,,,,,,,,,,,,,,,,,,,,,,,,,
,,,,,,,,,R_1Cawvb0JEdQ2WNQ,2022-09-02_14h25.08.228,jpn_C02,2022.1.2,MacIntel,30.3030303,,,,,,,,,,,,,CartoonStims/boxer_r.jpg,audio/doki.mp3,,,,,,,,,,,,,,,,,,,,,,,,,,,,,,,,,,,,,,1,2,8,5,1,ドキ,,,,,,,,,,,,,,,,,,,,,,,,,,
,,,,,,,,,R_1Cawvb0JEdQ2WNQ,2022-09-02_14h25.08.228,jpn_C02,2022.1.2,MacIntel,30.3030303,,,,,,,,,,,,,,,,,,,,,,,,,,,,,,,,,,,,,,,,,,,,ムク,right,6.682,0,0,0,0,1,,,,,,,,,,,,,,,,,,,,,,,,,,,,,,,,
,,,,,,,,,R_1Cawvb0JEdQ2WNQ,2022-09-02_14h25.08.228,jpn_C02,2022.1.2,MacIntel,30.3030303,,,,,,,,,,,,,CartoonStims/cowboy_r.jpg,audio/muku.mp3,,,,,,,,,,,,,,,,,,,,,,,,,,,,,,,,,,,,,,1,3,9,3,1,ムク,,,,,,,,,,,,,,,,,,,,,,,,,,
,,,,,,,,,R_1Cawvb0JEdQ2WNQ,2022-09-02_14h25.08.228,jpn_C02,2022.1.2,MacIntel,30.3030303,,,,,,,,,,,,,,,,,,,,,,,,,,,,,,,,,,,,,,,,,,,,ホレト,right,6.703,0,0,0,0,1,,,,,,,,,,,,,,,,,,,,,,,,,,,,,,,,
,,,,,,,,,R_1Cawvb0JEdQ2WNQ,2022-09-02_14h25.08.228,jpn_C02,2022.1.2,MacIntel,30.3030303,,,,,,,,,,,,,CartoonStims/chef_r.jpg,audio/horeto.mp3,,,,,,,,,,,,,,,,,,,,,,,,,,,,,,,,,,,,,,1,4,10,2,1,ホレト,,,,,,,,,,,,,,,,,,,,,,,,,,
,,,,,,,,,R_1Cawvb0JEdQ2WNQ,2022-09-02_14h25.08.228,jpn_C02,2022.1.2,MacIntel,30.3030303,,,,,,,,,,,,,,,,,,,,,,,,,,,,,,,,,,,,,,,,,,,,シド,right,7.685,0,0,0,0,1,,,,,,,,,,,,,,,,,,,,,,,,,,,,,,,,
,,,,,,,,,R_1Cawvb0JEdQ2WNQ,2022-09-02_14h25.08.228,jpn_C02,2022.1.2,MacIntel,30.3030303,,,,,,,,,,,,,CartoonStims/artist_r.jpg,audio/sido.mp3,,,,,,,,,,,,,,,,,,,,,,,,,,,,,,,,,,,,,,1,5,11,0,1,シド,,,,,,,,,,,,,,,,,,,,,,,,,,
,,,,,,,,,R_1Cawvb0JEdQ2WNQ,2022-09-02_14h25.08.228,jpn_C02,2022.1.2,MacIntel,30.3030303,,,,,,,,,,,,,,,,,,,,,,,,,,,,,,,,,,,,,,,,,,,,,,,,,,,,,,,,,,,space,58.687,0,0,0,0,1,NounExposure.xlsx,"最初のトライアルでは、 画像が表示され、 その画像の下に単語が出てきます。 またこの単語の音も聞くことができます。 この音を大きな声で復唱してください。 そしてこの画像がどのような単語を示しているのか, 考えてみてください。 その後、 続きのボタンを押すと次の単語の学習が始まります。

スペースキーを押して、学習を始めましょう。",3,NounFCT.xlsx,ここから語彙のクイズが始まります。スクリーンに表示される単語に合う画像をキーボードの右と左の矢印キーを使って選択してください。,NounTest.xlsx,2,次に、これまで学習してきたことをアウトプットしていただきます。 表示される画像を描写していると思う単語を、テキストボックスにタイプしてください。,1,"ここまでが最初のトライアルです。ここで休憩をとっても構いません。

休憩が済みましたら、スペースキーを押して続きを始めましょう。",,,,,,,,
,,,,,,,,,R_1Cawvb0JEdQ2WNQ,2022-09-02_14h25.08.228,jpn_C02,2022.1.2,MacIntel,30.3030303,space,4.642,space,30.966,0,0,0,11,1,セル　ドキ　ルピン,,,CartoonStims/boxer_kick_burglar_r.jpg,audio/serudokilupin.mp3,,,,,,,,,,,,,,,,,,,,,,,,,,,,,,,,,,,,,,,,,,,,,,,,,,,,,,,,,,,,,,,,,,,,,
,,,,,,,,,R_1Cawvb0JEdQ2WNQ,2022-09-02_14h25.08.228,jpn_C02,2022.1.2,MacIntel,30.3030303,,,space,28.817,0,1,1,37,1,プミ　シド　ドキ,,,CartoonStims/artist_punch_boxer_r.jpg,audio/pumisidodoki.mp3,,,,,,,,,,,,,,,,,,,,,,,,,,,,,,,,,,,,,,,,,,,,,,,,,,,,,,,,,,,,,,,,,,,,,
,,,,,,,,,R_1Cawvb0JEdQ2WNQ,2022-09-02_14h25.08.228,jpn_C02,2022.1.2,MacIntel,30.3030303,,,space,35.821,0,2,2,19,1,トマ　ムク　シド,,,CartoonStims/cowboy_point_artist_r.jpg,audio/tomamukusido.mp3,,,,,,,,,,,,,,,,,,,,,,,,,,,,,,,,,,,,,,,,,,,,,,,,,,,,,,,,,,,,,,,,,,,,,
,,,,,,,,,R_1Cawvb0JEdQ2WNQ,2022-09-02_14h25.08.228,jpn_C02,2022.1.2,MacIntel,30.3030303,,,space,11.186,0,3,3,13,1,トマ　シド　ムク,,,CartoonStims/artist_point_cowboy_r.jpg,audio/tomasidomuku.mp3,,,,,,,,,,,,,,,,,,,,,,,,,,,,,,,,,,,,,,,,,,,,,,,,,,,,,,,,,,,,,,,,,,,,,
,,,,,,,,,R_1Cawvb0JEdQ2WNQ,2022-09-02_14h25.08.228,jpn_C02,2022.1.2,MacIntel,30.3030303,,,space,30.521,0,4,4,40,1,プミ　ホレト　シド,,,CartoonStims/chef_punch_artist_r.jpg,audio/pumihoretosido.mp3,,,,,,,,,,,,,,,,,,,,,,,,,,,,,,,,,,,,,,,,,,,,,,,,,,,,,,,,,,,,,,,,,,,,,
,,,,,,,,,R_1Cawvb0JEdQ2WNQ,2022-09-02_14h25.08.228,jpn_C02,2022.1.2,MacIntel,30.3030303,,,space,5.681,0,5,5,46,1,プミ　ドキ　ムク,,,CartoonStims/boxer_punch_cowboy_r.jpg,audio/pumidokimuku.mp3,,,,,,,,,,,,,,,,,,,,,,,,,,,,,,,,,,,,,,,,,,,,,,,,,,,,,,,,,,,,,,,,,,,,,
,,,,,,,,,R_1Cawvb0JEdQ2WNQ,2022-09-02_14h25.08.228,jpn_C02,2022.1.2,MacIntel,30.3030303,,,space,5.3,0,6,6,10,1,セル　ドキ　シド,,,CartoonStims/boxer_kick_artist_r.jpg,audio/serudokisido.mp3,,,,,,,,,,,,,,,,,,,,,,,,,,,,,,,,,,,,,,,,,,,,,,,,,,,,,,,,,,,,,,,,,,,,,
,,,,,,,,,R_1Cawvb0JEdQ2WNQ,2022-09-02_14h25.08.228,jpn_C02,2022.1.2,MacIntel,30.3030303,,,space,4.633,0,7,7,6,1,セル　ムク　ピポ,,,CartoonStims/cowboy_kick_doctor_r.jpg,audio/serumukupipo.mp3,,,,,,,,,,,,,,,,,,,,,,,,,,,,,,,,,,,,,,,,,,,,,,,,,,,,,,,,,,,,,,,,,,,,,
,,,,,,,,,R_1Cawvb0JEdQ2WNQ,2022-09-02_14h25.08.228,jpn_C02,2022.1.2,MacIntel,30.3030303,,,space,4.86,0,8,8,43,1,プミ　ムク　ホレト,,,CartoonStims/cowboy_punch_chef_r.jpg,audio/pumimukuhoreto.mp3,,,,,,,,,,,,,,,,,,,,,,,,,,,,,,,,,,,,,,,,,,,,,,,,,,,,,,,,,,,,,,,,,,,,,
,,,,,,,,,R_1Cawvb0JEdQ2WNQ,2022-09-02_14h25.08.228,jpn_C02,2022.1.2,MacIntel,30.3030303,,,space,9.937,0,9,9,45,1,プミ　ピポ　ムク,,,CartoonStims/doctor_punch_cowboy_r.jpg,audio/pumipipomuku.mp3,,,,,,,,,,,,,,,,,,,,,,,,,,,,,,,,,,,,,,,,,,,,,,,,,,,,,,,,,,,,,,,,,,,,,
,,,,,,,,,R_1Cawvb0JEdQ2WNQ,2022-09-02_14h25.08.228,jpn_C02,2022.1.2,MacIntel,30.3030303,,,space,4.285,0,10,10,41,1,プミ　ホレト　ルピン,,,CartoonStims/chef_punch_burglar_r.jpg,audio/pumihoretolupin.mp3,,,,,,,,,,,,,,,,,,,,,,,,,,,,,,,,,,,,,,,,,,,,,,,,,,,,,,,,,,,,,,,,,,,,,
,,,,,,,,,R_1Cawvb0JEdQ2WNQ,2022-09-02_14h25.08.228,jpn_C02,2022.1.2,MacIntel,30.3030303,,,space,9.066,0,11,11,23,1,トマ　ドキ　ホレト,,,CartoonStims/boxer_point_chef_r.jpg,audio/tomadokihoreto.mp3,,,,,,,,,,,,,,,,,,,,,,,,,,,,,,,,,,,,,,,,,,,,,,,,,,,,,,,,,,,,,,,,,,,,,
,,,,,,,,,R_1Cawvb0JEdQ2WNQ,2022-09-02_14h25.08.228,jpn_C02,2022.1.2,MacIntel,30.3030303,,,space,2.71,0,12,12,22,1,トマ　ドキ　ルピン,,,CartoonStims/boxer_point_burglar_r.jpg,audio/tomadokilupin.mp3,,,,,,,,,,,,,,,,,,,,,,,,,,,,,,,,,,,,,,,,,,,,,,,,,,,,,,,,,,,,,,,,,,,,,
,,,,,,,,,R_1Cawvb0JEdQ2WNQ,2022-09-02_14h25.08.228,jpn_C02,2022.1.2,MacIntel,30.3030303,,,space,7.847,0,13,13,4,1,セル　ホレト　ムク,,,CartoonStims/chef_kick_cowboy_r.jpg,audio/seruhoretomuku.mp3,,,,,,,,,,,,,,,,,,,,,,,,,,,,,,,,,,,,,,,,,,,,,,,,,,,,,,,,,,,,,,,,,,,,,
,,,,,,,,,R_1Cawvb0JEdQ2WNQ,2022-09-02_14h25.08.228,jpn_C02,2022.1.2,MacIntel,30.3030303,,,space,2.268,0,14,14,3,1,セル　ルピン　ムク,,,CartoonStims/burglar_kick_cowboy_r.jpg,audio/serulupinmuku.mp3,,,,,,,,,,,,,,,,,,,,,,,,,,,,,,,,,,,,,,,,,,,,,,,,,,,,,,,,,,,,,,,,,,,,,
,,,,,,,,,R_1Cawvb0JEdQ2WNQ,2022-09-02_14h25.08.228,jpn_C02,2022.1.2,MacIntel,30.3030303,,,space,29.335,0,15,15,30,1,パツ　ムク　シド,,,CartoonStims/cowboy_shoot_artist_r.jpg,audio/patsumukusido.mp3,,,,,,,,,,,,,,,,,,,,,,,,,,,,,,,,,,,,,,,,,,,,,,,,,,,,,,,,,,,,,,,,,,,,,
,,,,,,,,,R_1Cawvb0JEdQ2WNQ,2022-09-02_14h25.08.228,jpn_C02,2022.1.2,MacIntel,30.3030303,,,space,6.291,0,16,16,12,1,トマ　シド　ホレト,,,CartoonStims/artist_point_chef_r.jpg,audio/tomasidohoreto.mp3,,,,,,,,,,,,,,,,,,,,,,,,,,,,,,,,,,,,,,,,,,,,,,,,,,,,,,,,,,,,,,,,,,,,,
,,,,,,,,,R_1Cawvb0JEdQ2WNQ,2022-09-02_14h25.08.228,jpn_C02,2022.1.2,MacIntel,30.3030303,,,space,3.627,0,17,17,9,1,セル　ピポ　シド,,,CartoonStims/doctor_kick_artist_r.jpg,audio/serupiposido.mp3,,,,,,,,,,,,,,,,,,,,,,,,,,,,,,,,,,,,,,,,,,,,,,,,,,,,,,,,,,,,,,,,,,,,,
,,,,,,,,,R_1Cawvb0JEdQ2WNQ,2022-09-02_14h25.08.228,jpn_C02,2022.1.2,MacIntel,30.3030303,,,space,2.379,0,18,18,17,1,トマ　ホレト　ドキ,,,CartoonStims/chef_point_boxer_r.jpg,audio/tomahoretodoki.mp3,,,,,,,,,,,,,,,,,,,,,,,,,,,,,,,,,,,,,,,,,,,,,,,,,,,,,,,,,,,,,,,,,,,,,
,,,,,,,,,R_1Cawvb0JEdQ2WNQ,2022-09-02_14h25.08.228,jpn_C02,2022.1.2,MacIntel,30.3030303,,,space,1.8,0,19,19,18,1,トマ　ムク　ドキ,,,CartoonStims/cowboy_point_boxer_r.jpg,audio/tomamukudoki.mp3,,,,,,,,,,,,,,,,,,,,,,,,,,,,,,,,,,,,,,,,,,,,,,,,,,,,,,,,,,,,,,,,,,,,,
,,,,,,,,,R_1Cawvb0JEdQ2WNQ,2022-09-02_14h25.08.228,jpn_C02,2022.1.2,MacIntel,30.3030303,,,space,7.808,0,20,20,24,1,パツ　シド　ムク,,,CartoonStims/artist_shoot_cowboy_r.jpg,audio/patsusidomuku.mp3,,,,,,,,,,,,,,,,,,,,,,,,,,,,,,,,,,,,,,,,,,,,,,,,,,,,,,,,,,,,,,,,,,,,,
,,,,,,,,,R_1Cawvb0JEdQ2WNQ,2022-09-02_14h25.08.228,jpn_C02,2022.1.2,MacIntel,30.3030303,,,space,8.733,0,21,21,44,1,プミ　ピポ　ホレト,,,CartoonStims/doctor_punch_chef_r.jpg,audio/pumipipohoreto.mp3,,,,,,,,,,,,,,,,,,,,,,,,,,,,,,,,,,,,,,,,,,,,,,,,,,,,,,,,,,,,,,,,,,,,,
,,,,,,,,,R_1Cawvb0JEdQ2WNQ,2022-09-02_14h25.08.228,jpn_C02,2022.1.2,MacIntel,30.3030303,,,space,3.067,0,22,22,14,1,トマ　ルピン　ムク,,,CartoonStims/burglar_point_cowboy_r.jpg,audio/tomalupinmuku.mp3,,,,,,,,,,,,,,,,,,,,,,,,,,,,,,,,,,,,,,,,,,,,,,,,,,,,,,,,,,,,,,,,,,,,,
,,,,,,,,,R_1Cawvb0JEdQ2WNQ,2022-09-02_14h25.08.228,jpn_C02,2022.1.2,MacIntel,30.3030303,,,space,6.232,0,23,23,7,1,セル　ムク　ドキ,,,CartoonStims/cowboy_kick_boxer_r.jpg,audio/serumukudoki.mp3,,,,,,,,,,,,,,,,,,,,,,,,,,,,,,,,,,,,,,,,,,,,,,,,,,,,,,,,,,,,,,,,,,,,,
,,,,,,,,,R_1Cawvb0JEdQ2WNQ,2022-09-02_14h25.08.228,jpn_C02,2022.1.2,MacIntel,30.3030303,,,space,4.617,0,24,24,35,1,パツ　ドキ　ムク,,,CartoonStims/boxer_shoot_cowboy_r.jpg,audio/patsudokimuku.mp3,,,,,,,,,,,,,,,,,,,,,,,,,,,,,,,,,,,,,,,,,,,,,,,,,,,,,,,,,,,,,,,,,,,,,
,,,,,,,,,R_1Cawvb0JEdQ2WNQ,2022-09-02_14h25.08.228,jpn_C02,2022.1.2,MacIntel,30.3030303,,,space,3.449,0,25,25,8,1,セル　ピポ　ドキ,,,CartoonStims/doctor_kick_boxer_r.jpg,audio/serupipodoki.mp3,,,,,,,,,,,,,,,,,,,,,,,,,,,,,,,,,,,,,,,,,,,,,,,,,,,,,,,,,,,,,,,,,,,,,
,,,,,,,,,R_1Cawvb0JEdQ2WNQ,2022-09-02_14h25.08.228,jpn_C02,2022.1.2,MacIntel,30.3030303,,,space,4.386,0,26,26,38,1,プミ　ルピン　ドキ,,,CartoonStims/burglar_punch_boxer_r.jpg,audio/pumilupindoki.mp3,,,,,,,,,,,,,,,,,,,,,,,,,,,,,,,,,,,,,,,,,,,,,,,,,,,,,,,,,,,,,,,,,,,,,
,,,,,,,,,R_1Cawvb0JEdQ2WNQ,2022-09-02_14h25.08.228,jpn_C02,2022.1.2,MacIntel,30.3030303,,,space,5.052,0,27,27,16,1,トマ　ホレト　ピポ,,,CartoonStims/chef_point_doctor_r.jpg,audio/tomahoretopipo.mp3,,,,,,,,,,,,,,,,,,,,,,,,,,,,,,,,,,,,,,,,,,,,,,,,,,,,,,,,,,,,,,,,,,,,,
,,,,,,,,,R_1Cawvb0JEdQ2WNQ,2022-09-02_14h25.08.228,jpn_C02,2022.1.2,MacIntel,30.3030303,,,space,2.308,0,28,28,26,1,パツ　ルピン　ピポ,,,CartoonStims/burglar_shoot_doctor_r.jpg,audio/patsulupinpipo.mp3,,,,,,,,,,,,,,,,,,,,,,,,,,,,,,,,,,,,,,,,,,,,,,,,,,,,,,,,,,,,,,,,,,,,,
,,,,,,,,,R_1Cawvb0JEdQ2WNQ,2022-09-02_14h25.08.228,jpn_C02,2022.1.2,MacIntel,30.3030303,,,space,4.299,0,29,29,2,1,セル 　ルピン 　ホレト,,,CartoonStims/burglar_kick_chef_r.jpg,audio/serulupinhoreto.mp3,,,,,,,,,,,,,,,,,,,,,,,,,,,,,,,,,,,,,,,,,,,,,,,,,,,,,,,,,,,,,,,,,,,,,
,,,,,,,,,R_1Cawvb0JEdQ2WNQ,2022-09-02_14h25.08.228,jpn_C02,2022.1.2,MacIntel,30.3030303,,,space,7.354,0,30,30,5,1,セル　ホレト　ピポ,,,CartoonStims/chef_kick_doctor_r.jpg,audio/seruhoretopipo.mp3,,,,,,,,,,,,,,,,,,,,,,,,,,,,,,,,,,,,,,,,,,,,,,,,,,,,,,,,,,,,,,,,,,,,,
,,,,,,,,,R_1Cawvb0JEdQ2WNQ,2022-09-02_14h25.08.228,jpn_C02,2022.1.2,MacIntel,30.3030303,,,space,3.544,0,31,31,39,1,プミ　ルピン　シド,,,CartoonStims/burglar_punch_artist_r.jpg,audio/pumilupinsido.mp3,,,,,,,,,,,,,,,,,,,,,,,,,,,,,,,,,,,,,,,,,,,,,,,,,,,,,,,,,,,,,,,,,,,,,
,,,,,,,,,R_1Cawvb0JEdQ2WNQ,2022-09-02_14h25.08.228,jpn_C02,2022.1.2,MacIntel,30.3030303,,,space,4.012,0,32,32,21,1,トマ　ピポ　ルピン,,,CartoonStims/doctor_point_burglar_r.jpg,audio/tomapipolupin.mp3,,,,,,,,,,,,,,,,,,,,,,,,,,,,,,,,,,,,,,,,,,,,,,,,,,,,,,,,,,,,,,,,,,,,,
,,,,,,,,,R_1Cawvb0JEdQ2WNQ,2022-09-02_14h25.08.228,jpn_C02,2022.1.2,MacIntel,30.3030303,,,space,2.66,0,33,33,0,1,セル　シド　ルピン,,,CartoonStims/artist_kick_burglar_r.jpg,audio/serusidolupin.mp3,,,,,,,,,,,,,,,,,,,,,,,,,,,,,,,,,,,,,,,,,,,,,,,,,,,,,,,,,,,,,,,,,,,,,
,,,,,,,,,R_1Cawvb0JEdQ2WNQ,2022-09-02_14h25.08.228,jpn_C02,2022.1.2,MacIntel,30.3030303,,,space,5.478,0,34,34,47,1,プミ　ドキ　ピポ,,,CartoonStims/boxer_punch_doctor_r.jpg,audio/pumidokipipo.mp3,,,,,,,,,,,,,,,,,,,,,,,,,,,,,,,,,,,,,,,,,,,,,,,,,,,,,,,,,,,,,,,,,,,,,
,,,,,,,,,R_1Cawvb0JEdQ2WNQ,2022-09-02_14h25.08.228,jpn_C02,2022.1.2,MacIntel,30.3030303,,,space,2.637,0,35,35,33,1,パツ　ピポ　ホレト,,,CartoonStims/doctor_shoot_chef_r.jpg,audio/patsupipohoreto.mp3,,,,,,,,,,,,,,,,,,,,,,,,,,,,,,,,,,,,,,,,,,,,,,,,,,,,,,,,,,,,,,,,,,,,,
,,,,,,,,,R_1Cawvb0JEdQ2WNQ,2022-09-02_14h25.08.228,jpn_C02,2022.1.2,MacIntel,30.3030303,,,space,3.201,0,36,36,28,1,パツ　ホレト　ドキ,,,CartoonStims/chef_shoot_boxer_r.jpg,audio/patsuhoretodoki.mp3,,,,,,,,,,,,,,,,,,,,,,,,,,,,,,,,,,,,,,,,,,,,,,,,,,,,,,,,,,,,,,,,,,,,,
,,,,,,,,,R_1Cawvb0JEdQ2WNQ,2022-09-02_14h25.08.228,jpn_C02,2022.1.2,MacIntel,30.3030303,,,space,3.857,0,37,37,42,1,プミ　ムク　ルピン,,,CartoonStims/cowboy_punch_burglar_r.jpg,audio/pumimukulupin.mp3,,,,,,,,,,,,,,,,,,,,,,,,,,,,,,,,,,,,,,,,,,,,,,,,,,,,,,,,,,,,,,,,,,,,,
,,,,,,,,,R_1Cawvb0JEdQ2WNQ,2022-09-02_14h25.08.228,jpn_C02,2022.1.2,MacIntel,30.3030303,,,space,3.453,0,38,38,1,1,セル 　シド 　ホレト,,,CartoonStims/artist_kick_chef_r.jpg,audio/serusidohoreto.mp3,,,,,,,,,,,,,,,,,,,,,,,,,,,,,,,,,,,,,,,,,,,,,,,,,,,,,,,,,,,,,,,,,,,,,
,,,,,,,,,R_1Cawvb0JEdQ2WNQ,2022-09-02_14h25.08.228,jpn_C02,2022.1.2,MacIntel,30.3030303,,,space,2.366,0,39,39,15,1,トマ　ルピン　ピポ,,,CartoonStims/burglar_point_doctor_r.jpg,audio/tomalupinpipo.mp3,,,,,,,,,,,,,,,,,,,,,,,,,,,,,,,,,,,,,,,,,,,,,,,,,,,,,,,,,,,,,,,,,,,,,
,,,,,,,,,R_1Cawvb0JEdQ2WNQ,2022-09-02_14h25.08.228,jpn_C02,2022.1.2,MacIntel,30.3030303,,,space,2.57,0,40,40,32,1,パツ　ピポ　ルピン,,,CartoonStims/doctor_shoot_burglar_r.jpg,audio/patsupipolupin.mp3,,,,,,,,,,,,,,,,,,,,,,,,,,,,,,,,,,,,,,,,,,,,,,,,,,,,,,,,,,,,,,,,,,,,,
,,,,,,,,,R_1Cawvb0JEdQ2WNQ,2022-09-02_14h25.08.228,jpn_C02,2022.1.2,MacIntel,30.3030303,,,space,2.633,0,41,41,34,1,パツ　ドキ　ホレト,,,CartoonStims/boxer_shoot_chef_r.jpg,audio/patsudokihoreto.mp3,,,,,,,,,,,,,,,,,,,,,,,,,,,,,,,,,,,,,,,,,,,,,,,,,,,,,,,,,,,,,,,,,,,,,
,,,,,,,,,R_1Cawvb0JEdQ2WNQ,2022-09-02_14h25.08.228,jpn_C02,2022.1.2,MacIntel,30.3030303,,,space,2.099,0,42,42,31,1,パツ　ムク　ルピン,,,CartoonStims/cowboy_shoot_burglar_r.jpg,audio/patsumukulupin.mp3,,,,,,,,,,,,,,,,,,,,,,,,,,,,,,,,,,,,,,,,,,,,,,,,,,,,,,,,,,,,,,,,,,,,,
,,,,,,,,,R_1Cawvb0JEdQ2WNQ,2022-09-02_14h25.08.228,jpn_C02,2022.1.2,MacIntel,30.3030303,,,space,2.933,0,43,43,29,1,パツ　ホレト　シド,,,CartoonStims/chef_shoot_artist_r.jpg,audio/patsuhoretosido.mp3,,,,,,,,,,,,,,,,,,,,,,,,,,,,,,,,,,,,,,,,,,,,,,,,,,,,,,,,,,,,,,,,,,,,,
,,,,,,,,,R_1Cawvb0JEdQ2WNQ,2022-09-02_14h25.08.228,jpn_C02,2022.1.2,MacIntel,30.3030303,,,space,5.024,0,44,44,20,1,トマ　ピポ　シド,,,CartoonStims/doctor_point_artist_r.jpg,audio/tomapiposido.mp3,,,,,,,,,,,,,,,,,,,,,,,,,,,,,,,,,,,,,,,,,,,,,,,,,,,,,,,,,,,,,,,,,,,,,
,,,,,,,,,R_1Cawvb0JEdQ2WNQ,2022-09-02_14h25.08.228,jpn_C02,2022.1.2,MacIntel,30.3030303,,,space,2.519,0,45,45,25,1,パツ　シド　ピポ,,,CartoonStims/artist_shoot_doctor_r.jpg,audio/patsusidopipo.mp3,,,,,,,,,,,,,,,,,,,,,,,,,,,,,,,,,,,,,,,,,,,,,,,,,,,,,,,,,,,,,,,,,,,,,
,,,,,,,,,R_1Cawvb0JEdQ2WNQ,2022-09-02_14h25.08.228,jpn_C02,2022.1.2,MacIntel,30.3030303,,,space,2.742,0,46,46,27,1,パツ　ルピン　ドキ,,,CartoonStims/burglar_shoot_boxer_r.jpg,audio/patsulupindoki.mp3,,,,,,,,,,,,,,,,,,,,,,,,,,,,,,,,,,,,,,,,,,,,,,,,,,,,,,,,,,,,,,,,,,,,,
,,,,,,,,,R_1Cawvb0JEdQ2WNQ,2022-09-02_14h25.08.228,jpn_C02,2022.1.2,MacIntel,30.3030303,,,space,2.808,0,47,47,36,1,プミ　シド　ピポ,,,CartoonStims/artist_punch_doctor_r.jpg,audio/pumisidopipo.mp3,,,,,,,,,,,,,,,,,,,,,,,,,,,,,,,,,,,,,,,,,,,,,,,,,,,,,,,,,,,,,,,,,,,,,
,,,,,,,,,R_1Cawvb0JEdQ2WNQ,2022-09-02_14h25.08.228,jpn_C02,2022.1.2,MacIntel,30.3030303,,,,,,,,,,,,,,,space,0.452,left,1,9.99,0,0,0,0,1,,,,,,,,,,,,,,,,,,,,,,,,,,,,,,,,,,,,,,,,,,,,,,,,,,,,,,,,,,,
,,,,,,,,,R_1Cawvb0JEdQ2WNQ,2022-09-02_14h25.08.228,jpn_C02,2022.1.2,MacIntel,30.3030303,,,,,,,,,,,,,,,,,,,,,,,,,0,0,0,0,1,CartoonStims/doctor_kick_burglar_r.jpg,セル　ピポ　ルピン,CartoonStims/doctor_kick_chef_r.jpg,left,CartoonStims/doctor_kick_burglar_r.jpg,audio/serupipolupin.mp3,残念！ こちらが正しい画像です。,,,,,,,,,,,,,,,,,,,,,,,,,,,,,,,,,,,,,,,,,,,,,,,
,,,,,,,,,R_1Cawvb0JEdQ2WNQ,2022-09-02_14h25.08.228,jpn_C02,2022.1.2,MacIntel,30.3030303,,,,,,,,,,,,,,,,,right,1,5.418,,,,,,,,,,,,,,,,,,0,0,0,0,1,,,,,,,,,,,,,,,,,,,,,,,,,,,,,,,,,,,,,,,,,,
,,,,,,,,,R_1Cawvb0JEdQ2WNQ,2022-09-02_14h25.08.228,jpn_C02,2022.1.2,MacIntel,30.3030303,,,,,,,,,,,,,,,,,,,,,,,,,0,1,1,3,1,CartoonStims/cowboy_punch_doctor_r.jpg,プミ　ムク　ドキ,CartoonStims/cowboy_punch_boxer_r.jpg,right,CartoonStims/cowboy_punch_boxer_r.jpg,audio/pumimukudoki.mp3,残念！ こちらが正しい画像です。,,,,,,,,,,,,,,,,,,,,,,,,,,,,,,,,,,,,,,,,,,,,,,,
,,,,,,,,,R_1Cawvb0JEdQ2WNQ,2022-09-02_14h25.08.228,jpn_C02,2022.1.2,MacIntel,30.3030303,,,,,,,,,,,,,,,,,right,1,5.114,,,,,,,,,,,,,,,,,,0,0,0,0,1,,,,,,,,,,,,,,,,,,,,,,,,,,,,,,,,,,,,,,,,,,
,,,,,,,,,R_1Cawvb0JEdQ2WNQ,2022-09-02_14h25.08.228,jpn_C02,2022.1.2,MacIntel,30.3030303,,,,,,,,,,,,,,,,,,,,,,,,,0,2,2,1,1,CartoonStims/chef_point_burglar_r.jpg,トマ　ホレト　シド,CartoonStims/chef_point_artist_r.jpg,right,CartoonStims/chef_point_artist_r.jpg,audio/tomahoretosido.mp3,残念！ こちらが正しい画像です。,,,,,,,,,,,,,,,,,,,,,,,,,,,,,,,,,,,,,,,,,,,,,,,
,,,,,,,,,R_1Cawvb0JEdQ2WNQ,2022-09-02_14h25.08.228,jpn_C02,2022.1.2,MacIntel,30.3030303,,,,,,,,,,,,,,,,,right,1,4.511,,,,,,,,,,,,,,,,,,0,0,0,0,1,,,,,,,,,,,,,,,,,,,,,,,,,,,,,,,,,,,,,,,,,,
,,,,,,,,,R_1Cawvb0JEdQ2WNQ,2022-09-02_14h25.08.228,jpn_C02,2022.1.2,MacIntel,30.3030303,,,,,,,,,,,,,,,,,,,,,,,,,0,3,3,7,1,CartoonStims/artist_punch_cowboy_r.jpg,セル　シド　ムク,CartoonStims/artist_kick_cowboy_r.jpg,right,CartoonStims/artist_kick_cowboy_r.jpg,audio/serusidomuku.mp3,残念！ こちらが正しい画像です。,,,,,,,,,,,,,,,,,,,,,,,,,,,,,,,,,,,,,,,,,,,,,,,
,,,,,,,,,R_1Cawvb0JEdQ2WNQ,2022-09-02_14h25.08.228,jpn_C02,2022.1.2,MacIntel,30.3030303,,,,,,,,,,,,,,,,,left,1,2.758,0,0,0,0,1,,,,,,,,,,,,,,,,,,,,,,,,,,,,,,,,,,,,,,,,,,,,,,,,,,,,,,,,,,,
,,,,,,,,,R_1Cawvb0JEdQ2WNQ,2022-09-02_14h25.08.228,jpn_C02,2022.1.2,MacIntel,30.3030303,,,,,,,,,,,,,,,,,,,,,,,,,0,4,4,10,1,CartoonStims/artist_shoot_burglar_r.jpg,パツ　シド　ルピン,CartoonStims/chef_shoot_burglar_r.jpg,left,CartoonStims/artist_shoot_burglar_r.jpg,audio/patsusidolupin.mp3,残念！ こちらが正しい画像です。,,,,,,,,,,,,,,,,,,,,,,,,,,,,,,,,,,,,,,,,,,,,,,,
,,,,,,,,,R_1Cawvb0JEdQ2WNQ,2022-09-02_14h25.08.228,jpn_C02,2022.1.2,MacIntel,30.3030303,,,,,,,,,,,,,,,,,left,1,2.669,0,0,0,0,1,,,,,,,,,,,,,,,,,,,,,,,,,,,,,,,,,,,,,,,,,,,,,,,,,,,,,,,,,,,
,,,,,,,,,R_1Cawvb0JEdQ2WNQ,2022-09-02_14h25.08.228,jpn_C02,2022.1.2,MacIntel,30.3030303,,,,,,,,,,,,,,,,,,,,,,,,,0,5,5,8,1,CartoonStims/doctor_point_cowboy_r.jpg,トマ　ピポ　ムク,CartoonStims/boxer_point_cowboy_r.jpg,left,CartoonStims/doctor_point_cowboy_r.jpg,audio/tomapipomuku.mp3,残念！ こちらが正しい画像です。,,,,,,,,,,,,,,,,,,,,,,,,,,,,,,,,,,,,,,,,,,,,,,,
,,,,,,,,,R_1Cawvb0JEdQ2WNQ,2022-09-02_14h25.08.228,jpn_C02,2022.1.2,MacIntel,30.3030303,,,,,,,,,,,,,,,,,left,1,2.61,0,0,0,0,1,,,,,,,,,,,,,,,,,,,,,,,,,,,,,,,,,,,,,,,,,,,,,,,,,,,,,,,,,,,
,,,,,,,,,R_1Cawvb0JEdQ2WNQ,2022-09-02_14h25.08.228,jpn_C02,2022.1.2,MacIntel,30.3030303,,,,,,,,,,,,,,,,,,,,,,,,,0,6,6,4,1,CartoonStims/burglar_point_boxer_r.jpg,トマ　ルピン　ドキ,CartoonStims/burglar_kick_boxer_r.jpg,left,CartoonStims/burglar_point_boxer_r.jpg,audio/tomalupindoki.mp3,残念！ こちらが正しい画像です。,,,,,,,,,,,,,,,,,,,,,,,,,,,,,,,,,,,,,,,,,,,,,,,
,,,,,,,,,R_1Cawvb0JEdQ2WNQ,2022-09-02_14h25.08.228,jpn_C02,2022.1.2,MacIntel,30.3030303,,,,,,,,,,,,,,,,,right,1,3.676,,,,,,,,,,,,,,,,,,0,0,0,0,1,,,,,,,,,,,,,,,,,,,,,,,,,,,,,,,,,,,,,,,,,,
,,,,,,,,,R_1Cawvb0JEdQ2WNQ,2022-09-02_14h25.08.228,jpn_C02,2022.1.2,MacIntel,30.3030303,,,,,,,,,,,,,,,,,,,,,,,,,0,7,7,11,1,CartoonStims/burglar_punch_cowboy_r.jpg,プミ　ホレト　ムク,CartoonStims/chef_punch_cowboy_r.jpg,right,CartoonStims/chef_punch_cowboy_r.jpg,audio/pumihoretomuku.mp3,残念！ こちらが正しい画像です。,,,,,,,,,,,,,,,,,,,,,,,,,,,,,,,,,,,,,,,,,,,,,,,
,,,,,,,,,R_1Cawvb0JEdQ2WNQ,2022-09-02_14h25.08.228,jpn_C02,2022.1.2,MacIntel,30.3030303,,,,,,,,,,,,,,,,,left,1,5.647,0,0,0,0,1,,,,,,,,,,,,,,,,,,,,,,,,,,,,,,,,,,,,,,,,,,,,,,,,,,,,,,,,,,,
,,,,,,,,,R_1Cawvb0JEdQ2WNQ,2022-09-02_14h25.08.228,jpn_C02,2022.1.2,MacIntel,30.3030303,,,,,,,,,,,,,,,,,,,,,,,,,0,8,8,2,1,CartoonStims/boxer_shoot_doctor_r.jpg,パツ　ドキ　ピポ,CartoonStims/boxer_shoot_artist_r.jpg,left,CartoonStims/boxer_shoot_doctor_r.jpg,audio/patsudokipipo.mp3,残念！ こちらが正しい画像です。,,,,,,,,,,,,,,,,,,,,,,,,,,,,,,,,,,,,,,,,,,,,,,,
,,,,,,,,,R_1Cawvb0JEdQ2WNQ,2022-09-02_14h25.08.228,jpn_C02,2022.1.2,MacIntel,30.3030303,,,,,,,,,,,,,,,,,right,1,5.166,,,,,,,,,,,,,,,,,,0,0,0,0,1,,,,,,,,,,,,,,,,,,,,,,,,,,,,,,,,,,,,,,,,,,
,,,,,,,,,R_1Cawvb0JEdQ2WNQ,2022-09-02_14h25.08.228,jpn_C02,2022.1.2,MacIntel,30.3030303,,,,,,,,,,,,,,,,,,,,,,,,,0,9,9,9,1,CartoonStims/chef_kick_artist_r.jpg,セル　ムク　シド,CartoonStims/cowboy_kick_artist_r.jpg,right,CartoonStims/cowboy_kick_artist_r.jpg,audio/serumukusido.mp3,残念！ こちらが正しい画像です。,,,,,,,,,,,,,,,,,,,,,,,,,,,,,,,,,,,,,,,,,,,,,,,
,,,,,,,,,R_1Cawvb0JEdQ2WNQ,2022-09-02_14h25.08.228,jpn_C02,2022.1.2,MacIntel,30.3030303,,,,,,,,,,,,,,,,,right,1,3.75,,,,,,,,,,,,,,,,,,0,0,0,0,1,,,,,,,,,,,,,,,,,,,,,,,,,,,,,,,,,,,,,,,,,,
,,,,,,,,,R_1Cawvb0JEdQ2WNQ,2022-09-02_14h25.08.228,jpn_C02,2022.1.2,MacIntel,30.3030303,,,,,,,,,,,,,,,,,,,,,,,,,0,10,10,5,1,CartoonStims/cowboy_point_chef_r.jpg,パツ　ムク　ホレト,CartoonStims/cowboy_shoot_chef_r.jpg,right,CartoonStims/cowboy_shoot_chef_r.jpg,audio/patsumukuhoreto.mp3,残念！ こちらが正しい画像です。,,,,,,,,,,,,,,,,,,,,,,,,,,,,,,,,,,,,,,,,,,,,,,,
,,,,,,,,,R_1Cawvb0JEdQ2WNQ,2022-09-02_14h25.08.228,jpn_C02,2022.1.2,MacIntel,30.3030303,,,,,,,,,,,,,,,,,left,1,8.898,0,0,0,0,1,,,,,,,,,,,,,,,,,,,,,,,,,,,,,,,,,,,,,,,,,,,,,,,,,,,,,,,,,,,
,,,,,,,,,R_1Cawvb0JEdQ2WNQ,2022-09-02_14h25.08.228,jpn_C02,2022.1.2,MacIntel,30.3030303,,,,,,,,,,,,,,,,,,,,,,,,,0,11,11,6,1,CartoonStims/doctor_punch_boxer_r.jpg,プミ　ピポ　ドキ,CartoonStims/doctor_shoot_boxer_r.jpg,left,CartoonStims/doctor_punch_boxer_r.jpg,audio/pumipipodoki.mp3,残念！ こちらが正しい画像です。,,,,,,,,,,,,,,,,,,,,,,,,,,,,,,,,,,,,,,,,,,,,,,,
,,,,,,,,,R_1Cawvb0JEdQ2WNQ,2022-09-02_14h25.08.228,jpn_C02,2022.1.2,MacIntel,30.3030303,,,,,,,,,,,,,,,,,,,,,,,,,,,,,,,,,,,,,,,,,,space,4.147,プミ　ドキ　シド,right,27.719,0,0,0,0,1,,,,,,,,,,,,,,,,,,,,,,,,,,,,,,,,
,,,,,,,,,R_1Cawvb0JEdQ2WNQ,2022-09-02_14h25.08.228,jpn_C02,2022.1.2,MacIntel,30.3030303,,,,,,,,,,,,,CartoonStims/boxer_punch_artist_r.jpg,audio/pumidokisido.mp3,,,,,,,,,,,,,,,,,,,,,,,,,,,,,,,,,,,,,,0,0,0,11,1,プミ　ドキ　シド,,,,,,,,,,,,,,,,,,,,,,,,,,
,,,,,,,,,R_1Cawvb0JEdQ2WNQ,2022-09-02_14h25.08.228,jpn_C02,2022.1.2,MacIntel,30.3030303,,,,,,,,,,,,,,,,,,,,,,,,,,,,,,,,,,,,,,,,,,,,パツ　ルピン　ホレト,right,32.792,0,0,0,0,1,,,,,,,,,,,,,,,,,,,,,,,,,,,,,,,,
,,,,,,,,,R_1Cawvb0JEdQ2WNQ,2022-09-02_14h25.08.228,jpn_C02,2022.1.2,MacIntel,30.3030303,,,,,,,,,,,,,CartoonStims/burglar_shoot_chef_r.jpg,audio/patsulupinhoreto.mp3,,,,,,,,,,,,,,,,,,,,,,,,,,,,,,,,,,,,,,0,1,1,6,1,パツ　ルピン　ホレト,,,,,,,,,,,,,,,,,,,,,,,,,,
,,,,,,,,,R_1Cawvb0JEdQ2WNQ,2022-09-02_14h25.08.228,jpn_C02,2022.1.2,MacIntel,30.3030303,,,,,,,,,,,,,,,,,,,,,,,,,,,,,,,,,,,,,,,,,,,,パツ　ホレト　ムク,right,24.837,0,0,0,0,1,,,,,,,,,,,,,,,,,,,,,,,,,,,,,,,,
,,,,,,,,,R_1Cawvb0JEdQ2WNQ,2022-09-02_14h25.08.228,jpn_C02,2022.1.2,MacIntel,30.3030303,,,,,,,,,,,,,CartoonStims/chef_shoot_cowboy_r.jpg,audio/patsuhoretomuku.mp3,,,,,,,,,,,,,,,,,,,,,,,,,,,,,,,,,,,,,,0,2,2,7,1,パツ　ホレト　ムク,,,,,,,,,,,,,,,,,,,,,,,,,,
,,,,,,,,,R_1Cawvb0JEdQ2WNQ,2022-09-02_14h25.08.228,jpn_C02,2022.1.2,MacIntel,30.3030303,,,,,,,,,,,,,,,,,,,,,,,,,,,,,,,,,,,,,,,,,,,,プミ　ピポ　ドキ,right,27.905,0,0,0,0,1,,,,,,,,,,,,,,,,,,,,,,,,,,,,,,,,
,,,,,,,,,R_1Cawvb0JEdQ2WNQ,2022-09-02_14h25.08.228,jpn_C02,2022.1.2,MacIntel,30.3030303,,,,,,,,,,,,,CartoonStims/doctor_punch_boxer_r.jpg,audio/pumipipodoki.mp3,,,,,,,,,,,,,,,,,,,,,,,,,,,,,,,,,,,,,,0,3,3,10,1,プミ　ピポ　ドキ,,,,,,,,,,,,,,,,,,,,,,,,,,
,,,,,,,,,R_1Cawvb0JEdQ2WNQ,2022-09-02_14h25.08.228,jpn_C02,2022.1.2,MacIntel,30.3030303,,,,,,,,,,,,,,,,,,,,,,,,,,,,,,,,,,,,,,,,,,,,トマ　ルピン　シド,right,24.114,0,0,0,0,1,,,,,,,,,,,,,,,,,,,,,,,,,,,,,,,,
,,,,,,,,,R_1Cawvb0JEdQ2WNQ,2022-09-02_14h25.08.228,jpn_C02,2022.1.2,MacIntel,30.3030303,,,,,,,,,,,,,CartoonStims/burglar_point_artist_r.jpg,audio/tomalupinsido.mp3,,,,,,,,,,,,,,,,,,,,,,,,,,,,,,,,,,,,,,0,4,4,4,1,トマ　ルピン　シド,,,,,,,,,,,,,,,,,,,,,,,,,,
,,,,,,,,,R_1Cawvb0JEdQ2WNQ,2022-09-02_14h25.08.228,jpn_C02,2022.1.2,MacIntel,30.3030303,,,,,,,,,,,,,,,,,,,,,,,,,,,,,,,,,,,,,,,,,,,,トマ　シド　ドキ,right,19.16,0,0,0,0,1,,,,,,,,,,,,,,,,,,,,,,,,,,,,,,,,
,,,,,,,,,R_1Cawvb0JEdQ2WNQ,2022-09-02_14h25.08.228,jpn_C02,2022.1.2,MacIntel,30.3030303,,,,,,,,,,,,,CartoonStims/artist_point_boxer_r.jpg,audio/tomasidodoki.mp3,,,,,,,,,,,,,,,,,,,,,,,,,,,,,,,,,,,,,,0,5,5,3,1,トマ　シド　ドキ,,,,,,,,,,,,,,,,,,,,,,,,,,
,,,,,,,,,R_1Cawvb0JEdQ2WNQ,2022-09-02_14h25.08.228,jpn_C02,2022.1.2,MacIntel,30.3030303,,,,,,,,,,,,,,,,,,,,,,,,,,,,,,,,,,,,,,,,,,,,セル　ムク　ルピン,right,27.642,0,0,0,0,1,,,,,,,,,,,,,,,,,,,,,,,,,,,,,,,,
,,,,,,,,,R_1Cawvb0JEdQ2WNQ,2022-09-02_14h25.08.228,jpn_C02,2022.1.2,MacIntel,30.3030303,,,,,,,,,,,,,CartoonStims/cowboy_kick_burglar_r.jpg,audio/serumukulupin.mp3,,,,,,,,,,,,,,,,,,,,,,,,,,,,,,,,,,,,,,0,6,6,0,1,セル　ムク　ルピン,,,,,,,,,,,,,,,,,,,,,,,,,,
,,,,,,,,,R_1Cawvb0JEdQ2WNQ,2022-09-02_14h25.08.228,jpn_C02,2022.1.2,MacIntel,30.3030303,,,,,,,,,,,,,,,,,,,,,,,,,,,,,,,,,,,,,,,,,,,,トマ　ホレト　ルピン,right,25.298,0,0,0,0,1,,,,,,,,,,,,,,,,,,,,,,,,,,,,,,,,
,,,,,,,,,R_1Cawvb0JEdQ2WNQ,2022-09-02_14h25.08.228,jpn_C02,2022.1.2,MacIntel,30.3030303,,,,,,,,,,,,,CartoonStims/chef_point_burglar_r.jpg,audio/tomahoretolupin.mp3,,,,,,,,,,,,,,,,,,,,,,,,,,,,,,,,,,,,,,0,7,7,5,1,トマ　ホレト　ルピン,,,,,,,,,,,,,,,,,,,,,,,,,,
,,,,,,,,,R_1Cawvb0JEdQ2WNQ,2022-09-02_14h25.08.228,jpn_C02,2022.1.2,MacIntel,30.3030303,,,,,,,,,,,,,,,,,,,,,,,,,,,,,,,,,,,,,,,,,,,,プミ　シド　ルピン,right,23.475,0,0,0,0,1,,,,,,,,,,,,,,,,,,,,,,,,,,,,,,,,
,,,,,,,,,R_1Cawvb0JEdQ2WNQ,2022-09-02_14h25.08.228,jpn_C02,2022.1.2,MacIntel,30.3030303,,,,,,,,,,,,,CartoonStims/artist_punch_burglar_r.jpg,audio/pumisidolupin.mp3,,,,,,,,,,,,,,,,,,,,,,,,,,,,,,,,,,,,,,0,8,8,9,1,プミ　シド　ルピン,,,,,,,,,,,,,,,,,,,,,,,,,,
,,,,,,,,,R_1Cawvb0JEdQ2WNQ,2022-09-02_14h25.08.228,jpn_C02,2022.1.2,MacIntel,30.3030303,,,,,,,,,,,,,,,,,,,,,,,,,,,,,,,,,,,,,,,,,,,,セル　ピポ　ホレト,right,22.161,0,0,0,0,1,,,,,,,,,,,,,,,,,,,,,,,,,,,,,,,,
,,,,,,,,,R_1Cawvb0JEdQ2WNQ,2022-09-02_14h25.08.228,jpn_C02,2022.1.2,MacIntel,30.3030303,,,,,,,,,,,,,CartoonStims/doctor_kick_chef_r.jpg,audio/serupipohoreto.mp3,,,,,,,,,,,,,,,,,,,,,,,,,,,,,,,,,,,,,,0,9,9,1,1,セル　ピポ　ホレト,,,,,,,,,,,,,,,,,,,,,,,,,,
,,,,,,,,,R_1Cawvb0JEdQ2WNQ,2022-09-02_14h25.08.228,jpn_C02,2022.1.2,MacIntel,30.3030303,,,,,,,,,,,,,,,,,,,,,,,,,,,,,,,,,,,,,,,,,,,,パツ　ムク　ピポ,right,23.295,0,0,0,0,1,,,,,,,,,,,,,,,,,,,,,,,,,,,,,,,,
,,,,,,,,,R_1Cawvb0JEdQ2WNQ,2022-09-02_14h25.08.228,jpn_C02,2022.1.2,MacIntel,30.3030303,,,,,,,,,,,,,CartoonStims/cowboy_shoot_doctor_r.jpg,audio/patsumukupipo.mp3,,,,,,,,,,,,,,,,,,,,,,,,,,,,,,,,,,,,,,0,10,10,8,1,パツ　ムク　ピポ,,,,,,,,,,,,,,,,,,,,,,,,,,
,,,,,,,,,R_1Cawvb0JEdQ2WNQ,2022-09-02_14h25.08.228,jpn_C02,2022.1.2,MacIntel,30.3030303,,,,,,,,,,,,,,,,,,,,,,,,,,,,,,,,,,,,,,,,,,,,セル　ドキ　ムク,right,16.238,0,0,0,0,1,,,,,,,,,,,,,,,,,,,,,,,,,,,,,,,,
,,,,,,,,,R_1Cawvb0JEdQ2WNQ,2022-09-02_14h25.08.228,jpn_C02,2022.1.2,MacIntel,30.3030303,,,,,,,,,,,,,CartoonStims/boxer_kick_cowboy_r.jpg,audio/serudokimuku.mp3,,,,,,,,,,,,,,,,,,,,,,,,,,,,,,,,,,,,,,0,11,11,2,1,セル　ドキ　ムク,,,,,,,,,,,,,,,,,,,,,,,,,,
,,,,,,,,,R_1Cawvb0JEdQ2WNQ,2022-09-02_14h25.08.228,jpn_C02,2022.1.2,MacIntel,30.3030303,,,,,,,,,,,,,,,,,,,,,,,,,,,,,,,,,,,,,,,,,,,,,,,,,,,,,,,,,,,space,59.865,0,1,1,1,1,AffExposure.xlsx,"第二のトライアルの学習では、この言語で書かれた文を見ていただきます。引き続き注意して、 聞こえた音を復唱してください。


スペースキーを押してください。",1,AffFCT.xlsx,ここからクイズが始まります。 スクリーンに表示されるテキストに合う画像を選んでください。,AffTest.xlsx,1,次にここまで学んだことをアウトプットしていただきます。 表示される画像を描写していると思う単語を、テキストボックスにタイプしてください。 答えを提出したあとに正しい正解が少しの間画面に写ります。,1,"これで第二のトライアルが終了しました。 ここで休憩をとっていただいても構いません。

休憩が終わりましたら、 スペースキーを押して続きの学習を行いましょう。",,,,,,,,
,,,,,,,,,R_1Cawvb0JEdQ2WNQ,2022-09-02_14h25.08.228,jpn_C02,2022.1.2,MacIntel,30.3030303,space,3.325,space,22.742,0,0,0,1,1,ピク　セル　シド　ホレト,,,CartoonStims/artist_kick_chef_r_no.jpg,audio/pikuserusidohoreto.mp3,,,,,,,,,,,,,,,,,,,,,,,,,,,,,,,,,,,,,,,,,,,,,,,,,,,,,,,,,,,,,,,,,,,,,
,,,,,,,,,R_1Cawvb0JEdQ2WNQ,2022-09-02_14h25.08.228,jpn_C02,2022.1.2,MacIntel,30.3030303,,,space,26.299,0,1,1,29,1,パツ　ピク　ホレト　シド,,,CartoonStims/chef_shoot_artist_r_no.jpg,audio/patsupikuhoretosido.mp3,,,,,,,,,,,,,,,,,,,,,,,,,,,,,,,,,,,,,,,,,,,,,,,,,,,,,,,,,,,,,,,,,,,,,
,,,,,,,,,R_1Cawvb0JEdQ2WNQ,2022-09-02_14h25.08.228,jpn_C02,2022.1.2,MacIntel,30.3030303,,,space,24.333,0,2,2,47,1,ピク　プミ　ドキ　ピポ,,,CartoonStims/boxer_punch_doctor_r_no.jpg,audio/pikupumidokipipo.mp3,,,,,,,,,,,,,,,,,,,,,,,,,,,,,,,,,,,,,,,,,,,,,,,,,,,,,,,,,,,,,,,,,,,,,
,,,,,,,,,R_1Cawvb0JEdQ2WNQ,2022-09-02_14h25.08.228,jpn_C02,2022.1.2,MacIntel,30.3030303,,,space,69.366,0,3,3,4,1,セル　ピク　ホレト　ムク,,,CartoonStims/chef_kick_cowboy_r_no.jpg,audio/serupikuhoretomuku.mp3,,,,,,,,,,,,,,,,,,,,,,,,,,,,,,,,,,,,,,,,,,,,,,,,,,,,,,,,,,,,,,,,,,,,,
,,,,,,,,,R_1Cawvb0JEdQ2WNQ,2022-09-02_14h25.08.228,jpn_C02,2022.1.2,MacIntel,30.3030303,,,space,129.742,0,4,4,6,1,ピク　セル　ムク　ピポ,,,CartoonStims/cowboy_kick_doctor_r_no.jpg,audio/pikuserumukupipo.mp3,,,,,,,,,,,,,,,,,,,,,,,,,,,,,,,,,,,,,,,,,,,,,,,,,,,,,,,,,,,,,,,,,,,,,
,,,,,,,,,R_1Cawvb0JEdQ2WNQ,2022-09-02_14h25.08.228,jpn_C02,2022.1.2,MacIntel,30.3030303,,,space,62.409,0,5,5,0,1,セル　ピク　シド　ルピン,,,CartoonStims/artist_kick_burglar_r_no.jpg,audio/serupikusidolupin.mp3,,,,,,,,,,,,,,,,,,,,,,,,,,,,,,,,,,,,,,,,,,,,,,,,,,,,,,,,,,,,,,,,,,,,,
,,,,,,,,,R_1Cawvb0JEdQ2WNQ,2022-09-02_14h25.08.228,jpn_C02,2022.1.2,MacIntel,30.3030303,,,space,44.743,0,6,6,35,1,ピク　パツ　ドキ　ムク,,,CartoonStims/boxer_shoot_cowboy_r_no.jpg,audio/pikupatsudokimuku.mp3,,,,,,,,,,,,,,,,,,,,,,,,,,,,,,,,,,,,,,,,,,,,,,,,,,,,,,,,,,,,,,,,,,,,,
,,,,,,,,,R_1Cawvb0JEdQ2WNQ,2022-09-02_14h25.08.228,jpn_C02,2022.1.2,MacIntel,30.3030303,,,space,31.213,0,7,7,21,1,ピク　トマ　ピポ　ルピン,,,CartoonStims/doctor_point_burglar_r_no.jpg,audio/pikutomapipolupin.mp3,,,,,,,,,,,,,,,,,,,,,,,,,,,,,,,,,,,,,,,,,,,,,,,,,,,,,,,,,,,,,,,,,,,,,
,,,,,,,,,R_1Cawvb0JEdQ2WNQ,2022-09-02_14h25.08.228,jpn_C02,2022.1.2,MacIntel,30.3030303,,,space,28.649,0,8,8,15,1,トマ　ピク　ルピン　ピポ,,,CartoonStims/burglar_point_doctor_r_no.jpg,audio/tomapikulupinpipo.mp3,,,,,,,,,,,,,,,,,,,,,,,,,,,,,,,,,,,,,,,,,,,,,,,,,,,,,,,,,,,,,,,,,,,,,
,,,,,,,,,R_1Cawvb0JEdQ2WNQ,2022-09-02_14h25.08.228,jpn_C02,2022.1.2,MacIntel,30.3030303,,,space,34.443,0,9,9,26,1,ピク　パツ　ルピン　ピポ,,,CartoonStims/burglar_shoot_doctor_r_no.jpg,audio/pikupatsulupinpipo.mp3,,,,,,,,,,,,,,,,,,,,,,,,,,,,,,,,,,,,,,,,,,,,,,,,,,,,,,,,,,,,,,,,,,,,,
,,,,,,,,,R_1Cawvb0JEdQ2WNQ,2022-09-02_14h25.08.228,jpn_C02,2022.1.2,MacIntel,30.3030303,,,space,11.266,0,10,10,22,1,ピク　トマ　ドキ　ルピン,,,CartoonStims/boxer_point_burglar_r_no.jpg,audio/pikutomadokilupin.mp3,,,,,,,,,,,,,,,,,,,,,,,,,,,,,,,,,,,,,,,,,,,,,,,,,,,,,,,,,,,,,,,,,,,,,
,,,,,,,,,R_1Cawvb0JEdQ2WNQ,2022-09-02_14h25.08.228,jpn_C02,2022.1.2,MacIntel,30.3030303,,,space,5.799,0,11,11,28,1,ピク　パツ　ホレト　ドキ,,,CartoonStims/chef_shoot_boxer_r_no.jpg,audio/pikupatsuhoretodoki.mp3,,,,,,,,,,,,,,,,,,,,,,,,,,,,,,,,,,,,,,,,,,,,,,,,,,,,,,,,,,,,,,,,,,,,,
,,,,,,,,,R_1Cawvb0JEdQ2WNQ,2022-09-02_14h25.08.228,jpn_C02,2022.1.2,MacIntel,30.3030303,,,space,11.25,0,12,12,9,1,ピク　セル　ピポ　シド,,,CartoonStims/doctor_kick_artist_r_no.jpg,audio/pikuserupiposido.mp3,,,,,,,,,,,,,,,,,,,,,,,,,,,,,,,,,,,,,,,,,,,,,,,,,,,,,,,,,,,,,,,,,,,,,
,,,,,,,,,R_1Cawvb0JEdQ2WNQ,2022-09-02_14h25.08.228,jpn_C02,2022.1.2,MacIntel,30.3030303,,,space,26.504,0,13,13,16,1,ピク　トマ　ホレト　ピポ,,,CartoonStims/chef_point_doctor_r_no.jpg,audio/pikutomahoretopipo.mp3,,,,,,,,,,,,,,,,,,,,,,,,,,,,,,,,,,,,,,,,,,,,,,,,,,,,,,,,,,,,,,,,,,,,,
,,,,,,,,,R_1Cawvb0JEdQ2WNQ,2022-09-02_14h25.08.228,jpn_C02,2022.1.2,MacIntel,30.3030303,,,space,5.455,0,14,14,41,1,ピク　プミ　ホレト　ルピン,,,CartoonStims/chef_punch_burglar_r_no.jpg,audio/pikupumihoretolupin.mp3,,,,,,,,,,,,,,,,,,,,,,,,,,,,,,,,,,,,,,,,,,,,,,,,,,,,,,,,,,,,,,,,,,,,,
,,,,,,,,,R_1Cawvb0JEdQ2WNQ,2022-09-02_14h25.08.228,jpn_C02,2022.1.2,MacIntel,30.3030303,,,space,9.645,0,15,15,23,1,トマ　ピク　ドキ　ホレト,,,CartoonStims/boxer_point_chef_r_no.jpg,audio/tomapikudokihoreto.mp3,,,,,,,,,,,,,,,,,,,,,,,,,,,,,,,,,,,,,,,,,,,,,,,,,,,,,,,,,,,,,,,,,,,,,
,,,,,,,,,R_1Cawvb0JEdQ2WNQ,2022-09-02_14h25.08.228,jpn_C02,2022.1.2,MacIntel,30.3030303,,,space,5.181,0,16,16,20,1,ピク　トマ　ピポ　シド,,,CartoonStims/doctor_point_artist_r_no.jpg,audio/pikutomapiposido.mp3,,,,,,,,,,,,,,,,,,,,,,,,,,,,,,,,,,,,,,,,,,,,,,,,,,,,,,,,,,,,,,,,,,,,,
,,,,,,,,,R_1Cawvb0JEdQ2WNQ,2022-09-02_14h25.08.228,jpn_C02,2022.1.2,MacIntel,30.3030303,,,space,76.765,0,17,17,7,1,ピク　セル　ムク　ドキ,,,CartoonStims/cowboy_kick_boxer_r_no.jpg,audio/pikuserumukudoki.mp3,,,,,,,,,,,,,,,,,,,,,,,,,,,,,,,,,,,,,,,,,,,,,,,,,,,,,,,,,,,,,,,,,,,,,
,,,,,,,,,R_1Cawvb0JEdQ2WNQ,2022-09-02_14h25.08.228,jpn_C02,2022.1.2,MacIntel,30.3030303,,,space,192.764,0,18,18,32,1,ピク　パツ　ピポ　ルピン,,,CartoonStims/doctor_shoot_burglar_r_no.jpg,audio/pikupatsupipolupin.mp3,,,,,,,,,,,,,,,,,,,,,,,,,,,,,,,,,,,,,,,,,,,,,,,,,,,,,,,,,,,,,,,,,,,,,
,,,,,,,,,R_1Cawvb0JEdQ2WNQ,2022-09-02_14h25.08.228,jpn_C02,2022.1.2,MacIntel,30.3030303,,,space,35.652,0,19,19,37,1,ピク　プミ　シド　ドキ,,,CartoonStims/artist_punch_boxer_r_no.jpg,audio/pikupumisidodoki.mp3,,,,,,,,,,,,,,,,,,,,,,,,,,,,,,,,,,,,,,,,,,,,,,,,,,,,,,,,,,,,,,,,,,,,,
,,,,,,,,,R_1Cawvb0JEdQ2WNQ,2022-09-02_14h25.08.228,jpn_C02,2022.1.2,MacIntel,30.3030303,,,space,23.356,0,20,20,13,1,ピク　トマ　シド　ムク,,,CartoonStims/artist_point_cowboy_r_no.jpg,audio/pikutomasidomuku.mp3,,,,,,,,,,,,,,,,,,,,,,,,,,,,,,,,,,,,,,,,,,,,,,,,,,,,,,,,,,,,,,,,,,,,,
,,,,,,,,,R_1Cawvb0JEdQ2WNQ,2022-09-02_14h25.08.228,jpn_C02,2022.1.2,MacIntel,30.3030303,,,space,20.553,0,21,21,25,1,パツ　ピク　シド　ピポ,,,CartoonStims/artist_shoot_doctor_r_no.jpg,audio/patsupikusidopipo.mp3,,,,,,,,,,,,,,,,,,,,,,,,,,,,,,,,,,,,,,,,,,,,,,,,,,,,,,,,,,,,,,,,,,,,,
,,,,,,,,,R_1Cawvb0JEdQ2WNQ,2022-09-02_14h25.08.228,jpn_C02,2022.1.2,MacIntel,30.3030303,,,space,40.084,0,22,22,27,1,パツ　ピク　ルピン　ドキ,,,CartoonStims/burglar_shoot_boxer_r_no.jpg,audio/patsupikulupindoki.mp3,,,,,,,,,,,,,,,,,,,,,,,,,,,,,,,,,,,,,,,,,,,,,,,,,,,,,,,,,,,,,,,,,,,,,
,,,,,,,,,R_1Cawvb0JEdQ2WNQ,2022-09-02_14h25.08.228,jpn_C02,2022.1.2,MacIntel,30.3030303,,,space,84.654,0,23,23,38,1,ピク　プミ　ルピン　ドキ,,,CartoonStims/burglar_punch_boxer_r_no.jpg,audio/pikupumilupindoki.mp3,,,,,,,,,,,,,,,,,,,,,,,,,,,,,,,,,,,,,,,,,,,,,,,,,,,,,,,,,,,,,,,,,,,,,
,,,,,,,,,R_1Cawvb0JEdQ2WNQ,2022-09-02_14h25.08.228,jpn_C02,2022.1.2,MacIntel,30.3030303,,,space,1.853,0,24,24,45,1,ピク　プミ　ピポ　ムク,,,CartoonStims/doctor_punch_cowboy_r_no.jpg,audio/pikupumipipomuku.mp3,,,,,,,,,,,,,,,,,,,,,,,,,,,,,,,,,,,,,,,,,,,,,,,,,,,,,,,,,,,,,,,,,,,,,
,,,,,,,,,R_1Cawvb0JEdQ2WNQ,2022-09-02_14h25.08.228,jpn_C02,2022.1.2,MacIntel,30.3030303,,,space,3.119,0,25,25,14,1,ピク　トマ　ルピン　ムク,,,CartoonStims/burglar_point_cowboy_r_no.jpg,audio/pikutomalupinmuku.mp3,,,,,,,,,,,,,,,,,,,,,,,,,,,,,,,,,,,,,,,,,,,,,,,,,,,,,,,,,,,,,,,,,,,,,
,,,,,,,,,R_1Cawvb0JEdQ2WNQ,2022-09-02_14h25.08.228,jpn_C02,2022.1.2,MacIntel,30.3030303,,,space,40.998,0,26,26,19,1,トマ　ピク　ムク　シド,,,CartoonStims/cowboy_point_artist_r_no.jpg,audio/tomapikumukusido.mp3,,,,,,,,,,,,,,,,,,,,,,,,,,,,,,,,,,,,,,,,,,,,,,,,,,,,,,,,,,,,,,,,,,,,,
,,,,,,,,,R_1Cawvb0JEdQ2WNQ,2022-09-02_14h25.08.228,jpn_C02,2022.1.2,MacIntel,30.3030303,,,space,2.437,0,27,27,10,1,ピク　セル　ドキ　シド,,,CartoonStims/boxer_kick_artist_r_no.jpg,audio/pikuserudokisido.mp3,,,,,,,,,,,,,,,,,,,,,,,,,,,,,,,,,,,,,,,,,,,,,,,,,,,,,,,,,,,,,,,,,,,,,
,,,,,,,,,R_1Cawvb0JEdQ2WNQ,2022-09-02_14h25.08.228,jpn_C02,2022.1.2,MacIntel,30.3030303,,,space,0.088,0,28,28,43,1,ピク　プミ　ムク　ホレト,,,CartoonStims/cowboy_punch_chef_r_no.jpg,audio/pikupumimukuhoreto.mp3,,,,,,,,,,,,,,,,,,,,,,,,,,,,,,,,,,,,,,,,,,,,,,,,,,,,,,,,,,,,,,,,,,,,,
,,,,,,,,,R_1Cawvb0JEdQ2WNQ,2022-09-02_14h25.08.228,jpn_C02,2022.1.2,MacIntel,30.3030303,,,space,48.658,0,29,29,8,1,セル　ピク　ピポ　ドキ,,,CartoonStims/doctor_kick_boxer_r_no.jpg,audio/serupikupipodoki.mp3,,,,,,,,,,,,,,,,,,,,,,,,,,,,,,,,,,,,,,,,,,,,,,,,,,,,,,,,,,,,,,,,,,,,,
,,,,,,,,,R_1Cawvb0JEdQ2WNQ,2022-09-02_14h25.08.228,jpn_C02,2022.1.2,MacIntel,30.3030303,,,space,2.076,0,30,30,11,1,ピク　セル　ドキ　ルピン,,,CartoonStims/boxer_kick_burglar_r_no.jpg,audio/pikuserudokilupin.mp3,,,,,,,,,,,,,,,,,,,,,,,,,,,,,,,,,,,,,,,,,,,,,,,,,,,,,,,,,,,,,,,,,,,,,
,,,,,,,,,R_1Cawvb0JEdQ2WNQ,2022-09-02_14h25.08.228,jpn_C02,2022.1.2,MacIntel,30.3030303,,,space,0.911,0,31,31,31,1,ピク　パツ　ムク　ルピン,,,CartoonStims/cowboy_shoot_burglar_r_no.jpg,audio/pikupatsumukulupin.mp3,,,,,,,,,,,,,,,,,,,,,,,,,,,,,,,,,,,,,,,,,,,,,,,,,,,,,,,,,,,,,,,,,,,,,
,,,,,,,,,R_1Cawvb0JEdQ2WNQ,2022-09-02_14h25.08.228,jpn_C02,2022.1.2,MacIntel,30.3030303,,,space,0.052,0,32,32,30,1,ピク　パツ　ムク　シド,,,CartoonStims/cowboy_shoot_artist_r_no.jpg,audio/pikupatsumukusido.mp3,,,,,,,,,,,,,,,,,,,,,,,,,,,,,,,,,,,,,,,,,,,,,,,,,,,,,,,,,,,,,,,,,,,,,
,,,,,,,,,R_1Cawvb0JEdQ2WNQ,2022-09-02_14h25.08.228,jpn_C02,2022.1.2,MacIntel,30.3030303,,,space,0.099,0,33,33,33,1,ピク　パツ　ピポ　ホレト,,,CartoonStims/doctor_shoot_chef_r_no.jpg,audio/pikupatsupipohoreto.mp3,,,,,,,,,,,,,,,,,,,,,,,,,,,,,,,,,,,,,,,,,,,,,,,,,,,,,,,,,,,,,,,,,,,,,
,,,,,,,,,R_1Cawvb0JEdQ2WNQ,2022-09-02_14h25.08.228,jpn_C02,2022.1.2,MacIntel,30.3030303,,,space,0.023,0,34,34,5,1,ピク　セル　ホレト　ピポ,,,CartoonStims/chef_kick_doctor_r_no.jpg,audio/pikuseruhoretopipo.mp3,,,,,,,,,,,,,,,,,,,,,,,,,,,,,,,,,,,,,,,,,,,,,,,,,,,,,,,,,,,,,,,,,,,,,
,,,,,,,,,R_1Cawvb0JEdQ2WNQ,2022-09-02_14h25.08.228,jpn_C02,2022.1.2,MacIntel,30.3030303,,,space,0.042,0,35,35,34,1,ピク　パツ　ドキ　ホレト,,,CartoonStims/boxer_shoot_chef_r_no.jpg,audio/pikupatsudokihoreto.mp3,,,,,,,,,,,,,,,,,,,,,,,,,,,,,,,,,,,,,,,,,,,,,,,,,,,,,,,,,,,,,,,,,,,,,
,,,,,,,,,R_1Cawvb0JEdQ2WNQ,2022-09-02_14h25.08.228,jpn_C02,2022.1.2,MacIntel,30.3030303,,,space,1.976,0,36,36,17,1,ピク　トマ　ホレト　ドキ,,,CartoonStims/chef_point_boxer_r_no.jpg,audio/pikutomahoretodoki.mp3,,,,,,,,,,,,,,,,,,,,,,,,,,,,,,,,,,,,,,,,,,,,,,,,,,,,,,,,,,,,,,,,,,,,,
,,,,,,,,,R_1Cawvb0JEdQ2WNQ,2022-09-02_14h25.08.228,jpn_C02,2022.1.2,MacIntel,30.3030303,,,space,105.425,0,37,37,42,1,プミ　ピク　ムク　ルピン,,,CartoonStims/cowboy_punch_burglar_r_no.jpg,audio/pumipikumukulupin.mp3,,,,,,,,,,,,,,,,,,,,,,,,,,,,,,,,,,,,,,,,,,,,,,,,,,,,,,,,,,,,,,,,,,,,,
,,,,,,,,,R_1Cawvb0JEdQ2WNQ,2022-09-02_14h25.08.228,jpn_C02,2022.1.2,MacIntel,30.3030303,,,space,2.556,0,38,38,39,1,ピク　プミ　ルピン　シド,,,CartoonStims/burglar_punch_artist_r_no.jpg,audio/pikupumilupinsido.mp3,,,,,,,,,,,,,,,,,,,,,,,,,,,,,,,,,,,,,,,,,,,,,,,,,,,,,,,,,,,,,,,,,,,,,
,,,,,,,,,R_1Cawvb0JEdQ2WNQ,2022-09-02_14h25.08.228,jpn_C02,2022.1.2,MacIntel,30.3030303,,,space,0.582,0,39,39,24,1,ピク　パツ　シド　ムク,,,CartoonStims/artist_shoot_cowboy_r_no.jpg,audio/pikupatsusidomuku.mp3,,,,,,,,,,,,,,,,,,,,,,,,,,,,,,,,,,,,,,,,,,,,,,,,,,,,,,,,,,,,,,,,,,,,,
,,,,,,,,,R_1Cawvb0JEdQ2WNQ,2022-09-02_14h25.08.228,jpn_C02,2022.1.2,MacIntel,30.3030303,,,space,0.466,0,40,40,3,1,ピク　セル　ルピン　ムク,,,CartoonStims/burglar_kick_cowboy_r_no.jpg,audio/pikuserulupinmuku.mp3,,,,,,,,,,,,,,,,,,,,,,,,,,,,,,,,,,,,,,,,,,,,,,,,,,,,,,,,,,,,,,,,,,,,,
,,,,,,,,,R_1Cawvb0JEdQ2WNQ,2022-09-02_14h25.08.228,jpn_C02,2022.1.2,MacIntel,30.3030303,,,space,0.348,0,41,41,40,1,ピク　プミ　ホレト　シド,,,CartoonStims/chef_punch_artist_r_no.jpg,audio/pikupumihoretosido.mp3,,,,,,,,,,,,,,,,,,,,,,,,,,,,,,,,,,,,,,,,,,,,,,,,,,,,,,,,,,,,,,,,,,,,,
,,,,,,,,,R_1Cawvb0JEdQ2WNQ,2022-09-02_14h25.08.228,jpn_C02,2022.1.2,MacIntel,30.3030303,,,space,0.259,0,42,42,12,1,ピク　トマ　シド　ホレト,,,CartoonStims/artist_point_chef_r_no.jpg,audio/pikutomasidohoreto.mp3,,,,,,,,,,,,,,,,,,,,,,,,,,,,,,,,,,,,,,,,,,,,,,,,,,,,,,,,,,,,,,,,,,,,,
,,,,,,,,,R_1Cawvb0JEdQ2WNQ,2022-09-02_14h25.08.228,jpn_C02,2022.1.2,MacIntel,30.3030303,,,space,128.115,0,43,43,46,1,プミ　ピク　ドキ　ムク,,,CartoonStims/boxer_punch_cowboy_r_no.jpg,audio/pumipikudokimuku.mp3,,,,,,,,,,,,,,,,,,,,,,,,,,,,,,,,,,,,,,,,,,,,,,,,,,,,,,,,,,,,,,,,,,,,,
,,,,,,,,,R_1Cawvb0JEdQ2WNQ,2022-09-02_14h25.08.228,jpn_C02,2022.1.2,MacIntel,30.3030303,,,space,1.383,0,44,44,2,1,ピク　セル　ルピン　ホレト,,,CartoonStims/burglar_kick_chef_r_no.jpg,audio/pikuserulupinhoreto.mp3,,,,,,,,,,,,,,,,,,,,,,,,,,,,,,,,,,,,,,,,,,,,,,,,,,,,,,,,,,,,,,,,,,,,,
,,,,,,,,,R_1Cawvb0JEdQ2WNQ,2022-09-02_14h25.08.228,jpn_C02,2022.1.2,MacIntel,30.3030303,,,space,0.147,0,45,45,36,1,ピク　プミ　シド　ピポ,,,CartoonStims/artist_punch_doctor_r_no.jpg,audio/pikupumisidopipo.mp3,,,,,,,,,,,,,,,,,,,,,,,,,,,,,,,,,,,,,,,,,,,,,,,,,,,,,,,,,,,,,,,,,,,,,
,,,,,,,,,R_1Cawvb0JEdQ2WNQ,2022-09-02_14h25.08.228,jpn_C02,2022.1.2,MacIntel,30.3030303,,,space,53.853,0,46,46,44,1,プミ　ピク　ピポ　ホレト,,,CartoonStims/doctor_punch_chef_r_no.jpg,audio/pumipikupipohoreto.mp3,,,,,,,,,,,,,,,,,,,,,,,,,,,,,,,,,,,,,,,,,,,,,,,,,,,,,,,,,,,,,,,,,,,,,
,,,,,,,,,R_1Cawvb0JEdQ2WNQ,2022-09-02_14h25.08.228,jpn_C02,2022.1.2,MacIntel,30.3030303,,,space,0.533,0,47,47,18,1,ピク　トマ　ムク　ドキ,,,CartoonStims/cowboy_point_boxer_r_no.jpg,audio/pikutomamukudoki.mp3,,,,,,,,,,,,,,,,,,,,,,,,,,,,,,,,,,,,,,,,,,,,,,,,,,,,,,,,,,,,,,,,,,,,,
,,,,,,,,,R_1Cawvb0JEdQ2WNQ,2022-09-02_14h25.08.228,jpn_C02,2022.1.2,MacIntel,30.3030303,,,,,,,,,,,,,,,space,0.145,right,0,11.822,,,,,,,,,,,,,,,,,,,,,,,,,,,,,,,,,,,,,,,,,,,,,,,,,,,,,,,,,0,0,0,0,1,,,
,,,,,,,,,R_1Cawvb0JEdQ2WNQ,2022-09-02_14h25.08.228,jpn_C02,2022.1.2,MacIntel,30.3030303,,,,,,,,,,,,,,,,,,,,,,,,,0,0,0,8,1,CartoonStims/burglar_punch_artist_r.jpg,ピク　トマ　ルピン　シド,CartoonStims/burglar_point_artist_r.jpg,left,CartoonStims/burglar_punch_artist_r.jpg,audio/pikutomalupinsido.mp3,"残念！ こちらが正しい画像です。

否定文は起きていないことを示しているのを思い出してください。",,,,,,,,,,,,,,,,,,,,,,,,,,,,,,,,,,,,,,,,,,,,,,,
,,,,,,,,,R_1Cawvb0JEdQ2WNQ,2022-09-02_14h25.08.228,jpn_C02,2022.1.2,MacIntel,30.3030303,,,,,,,,,,,,,,,,,left,1,5.516,0,0,0,0,1,,,,,,,,,,,,,,,,,,,,,,,,,,,,,,,,,,,,,,,,,,,,,,,,,,,,,,,,,,,
,,,,,,,,,R_1Cawvb0JEdQ2WNQ,2022-09-02_14h25.08.228,jpn_C02,2022.1.2,MacIntel,30.3030303,,,,,,,,,,,,,,,,,,,,,,,,,0,1,1,2,1,CartoonStims/doctor_point_boxer_r.jpg,ピク　プミ　ピポ　ドキ,CartoonStims/doctor_punch_boxer_r.jpg,left,CartoonStims/doctor_point_boxer_r.jpg,audio/pikupumipipodoki.mp3,"残念！ こちらが正しい画像です。

否定文は起きていないことを示しているのを思い出してください。",,,,,,,,,,,,,,,,,,,,,,,,,,,,,,,,,,,,,,,,,,,,,,,
,,,,,,,,,R_1Cawvb0JEdQ2WNQ,2022-09-02_14h25.08.228,jpn_C02,2022.1.2,MacIntel,30.3030303,,,,,,,,,,,,,,,,,left,1,3.147,0,0,0,0,1,,,,,,,,,,,,,,,,,,,,,,,,,,,,,,,,,,,,,,,,,,,,,,,,,,,,,,,,,,,
,,,,,,,,,R_1Cawvb0JEdQ2WNQ,2022-09-02_14h25.08.228,jpn_C02,2022.1.2,MacIntel,30.3030303,,,,,,,,,,,,,,,,,,,,,,,,,0,2,2,4,1,CartoonStims/burglar_shoot_doctor_r.jpg,ピク　セル　ルピン　ピポ,CartoonStims/burglar_kick_doctor_r.jpg,left,CartoonStims/burglar_shoot_doctor_r.jpg,audio/pikuserulupinpipo.mp3,"残念！ こちらが正しい画像です。

否定文は起きていないことを示しているのを思い出してください。",,,,,,,,,,,,,,,,,,,,,,,,,,,,,,,,,,,,,,,,,,,,,,,
,,,,,,,,,R_1Cawvb0JEdQ2WNQ,2022-09-02_14h25.08.228,jpn_C02,2022.1.2,MacIntel,30.3030303,,,,,,,,,,,,,,,,,left,1,2.226,0,0,0,0,1,,,,,,,,,,,,,,,,,,,,,,,,,,,,,,,,,,,,,,,,,,,,,,,,,,,,,,,,,,,
,,,,,,,,,R_1Cawvb0JEdQ2WNQ,2022-09-02_14h25.08.228,jpn_C02,2022.1.2,MacIntel,30.3030303,,,,,,,,,,,,,,,,,,,,,,,,,0,3,3,6,1,CartoonStims/artist_shoot_boxer_r.jpg,ピク　トマ　シド　ドキ,CartoonStims/artist_point_boxer_r.jpg,left,CartoonStims/artist_shoot_boxer_r.jpg,audio/pikutomasidodoki.mp3,"残念！ こちらが正しい画像です。

否定文は起きていないことを示しているのを思い出してください。",,,,,,,,,,,,,,,,,,,,,,,,,,,,,,,,,,,,,,,,,,,,,,,
,,,,,,,,,R_1Cawvb0JEdQ2WNQ,2022-09-02_14h25.08.228,jpn_C02,2022.1.2,MacIntel,30.3030303,,,,,,,,,,,,,,,,,right,1,7.425,,,,,,,,,,,,,,,,,,0,0,0,0,1,,,,,,,,,,,,,,,,,,,,,,,,,,,,,,,,,,,,,,,,,,
,,,,,,,,,R_1Cawvb0JEdQ2WNQ,2022-09-02_14h25.08.228,jpn_C02,2022.1.2,MacIntel,30.3030303,,,,,,,,,,,,,,,,,,,,,,,,,0,4,4,3,1,CartoonStims/chef_kick_artist_r.jpg,セル　ピク　ホレト　シド,CartoonStims/chef_point_artist_r.jpg,right,CartoonStims/chef_point_artist_r.jpg,audio/serupikuhoretosido.mp3,"残念！ こちらが正しい画像です。

否定文は起きていないことを示しているのを思い出してください。",,,,,,,,,,,,,,,,,,,,,,,,,,,,,,,,,,,,,,,,,,,,,,,
,,,,,,,,,R_1Cawvb0JEdQ2WNQ,2022-09-02_14h25.08.228,jpn_C02,2022.1.2,MacIntel,30.3030303,,,,,,,,,,,,,,,,,left,1,16.005,0,0,0,0,1,,,,,,,,,,,,,,,,,,,,,,,,,,,,,,,,,,,,,,,,,,,,,,,,,,,,,,,,,,,
,,,,,,,,,R_1Cawvb0JEdQ2WNQ,2022-09-02_14h25.08.228,jpn_C02,2022.1.2,MacIntel,30.3030303,,,,,,,,,,,,,,,,,,,,,,,,,0,5,5,0,1,CartoonStims/artist_shoot_burglar_r.jpg,プミ　ピク　シド　ルピン,CartoonStims/artist_punch_burglar_r.jpg,left,CartoonStims/artist_shoot_burglar_r.jpg,audio/pumipikusidolupin.mp3,"残念！ こちらが正しい画像です。

否定文は起きていないことを示しているのを思い出してください。",,,,,,,,,,,,,,,,,,,,,,,,,,,,,,,,,,,,,,,,,,,,,,,
,,,,,,,,,R_1Cawvb0JEdQ2WNQ,2022-09-02_14h25.08.228,jpn_C02,2022.1.2,MacIntel,30.3030303,,,,,,,,,,,,,,,,,right,1,1.466,,,,,,,,,,,,,,,,,,0,0,0,0,1,,,,,,,,,,,,,,,,,,,,,,,,,,,,,,,,,,,,,,,,,,
,,,,,,,,,R_1Cawvb0JEdQ2WNQ,2022-09-02_14h25.08.228,jpn_C02,2022.1.2,MacIntel,30.3030303,,,,,,,,,,,,,,,,,,,,,,,,,0,6,6,5,1,CartoonStims/boxer_kick_cowboy_r.jpg,ピク　セル　ドキ　ムク,CartoonStims/boxer_punch_cowboy_r.jpg,right,CartoonStims/boxer_punch_cowboy_r.jpg,audio/pikuserudokimuku.mp3,"残念！ こちらが正しい画像です。

否定文は起きていないことを示しているのを思い出してください。",,,,,,,,,,,,,,,,,,,,,,,,,,,,,,,,,,,,,,,,,,,,,,,
,,,,,,,,,R_1Cawvb0JEdQ2WNQ,2022-09-02_14h25.08.228,jpn_C02,2022.1.2,MacIntel,30.3030303,,,,,,,,,,,,,,,,,right,1,1.309,,,,,,,,,,,,,,,,,,0,0,0,0,1,,,,,,,,,,,,,,,,,,,,,,,,,,,,,,,,,,,,,,,,,,
,,,,,,,,,R_1Cawvb0JEdQ2WNQ,2022-09-02_14h25.08.228,jpn_C02,2022.1.2,MacIntel,30.3030303,,,,,,,,,,,,,,,,,,,,,,,,,0,7,7,9,1,CartoonStims/boxer_shoot_doctor_r.jpg,ピク　パツ　ドキ　ピポ,CartoonStims/boxer_point_doctor_r.jpg,right,CartoonStims/boxer_point_doctor_r.jpg,audio/pikupatsudokipipo.mp3,"残念！ こちらが正しい画像です。

否定文は起きていないことを示しているのを思い出してください。",,,,,,,,,,,,,,,,,,,,,,,,,,,,,,,,,,,,,,,,,,,,,,,
,,,,,,,,,R_1Cawvb0JEdQ2WNQ,2022-09-02_14h25.08.228,jpn_C02,2022.1.2,MacIntel,30.3030303,,,,,,,,,,,,,,,,,right,1,4.205,,,,,,,,,,,,,,,,,,0,0,0,0,1,,,,,,,,,,,,,,,,,,,,,,,,,,,,,,,,,,,,,,,,,,
,,,,,,,,,R_1Cawvb0JEdQ2WNQ,2022-09-02_14h25.08.228,jpn_C02,2022.1.2,MacIntel,30.3030303,,,,,,,,,,,,,,,,,,,,,,,,,0,8,8,7,1,CartoonStims/cowboy_point_chef_r.jpg,トマ　ピク　ムク　ホレト,CartoonStims/cowboy_kick_chef_r.jpg,right,CartoonStims/cowboy_kick_chef_r.jpg,audio/tomapikumukuhoreto.mp3,"残念！ こちらが正しい画像です。

否定文は起きていないことを示しているのを思い出してください。",,,,,,,,,,,,,,,,,,,,,,,,,,,,,,,,,,,,,,,,,,,,,,,
,,,,,,,,,R_1Cawvb0JEdQ2WNQ,2022-09-02_14h25.08.228,jpn_C02,2022.1.2,MacIntel,30.3030303,,,,,,,,,,,,,,,,,right,1,0.968,,,,,,,,,,,,,,,,,,0,0,0,0,1,,,,,,,,,,,,,,,,,,,,,,,,,,,,,,,,,,,,,,,,,,
,,,,,,,,,R_1Cawvb0JEdQ2WNQ,2022-09-02_14h25.08.228,jpn_C02,2022.1.2,MacIntel,30.3030303,,,,,,,,,,,,,,,,,,,,,,,,,0,9,9,11,1,CartoonStims/chef_shoot_burglar_r.jpg,ピク　パツ　ホレト　ルピン,CartoonStims/chef_kick_burglar_r.jpg,right,CartoonStims/chef_kick_burglar_r.jpg,audio/pikupatsuhoretolupin.mp3,"残念！ こちらが正しい画像です。

否定文は起きていないことを示しているのを思い出してください。",,,,,,,,,,,,,,,,,,,,,,,,,,,,,,,,,,,,,,,,,,,,,,,
,,,,,,,,,R_1Cawvb0JEdQ2WNQ,2022-09-02_14h25.08.228,jpn_C02,2022.1.2,MacIntel,30.3030303,,,,,,,,,,,,,,,,,right,1,2.424,,,,,,,,,,,,,,,,,,0,0,0,0,1,,,,,,,,,,,,,,,,,,,,,,,,,,,,,,,,,,,,,,,,,,
,,,,,,,,,R_1Cawvb0JEdQ2WNQ,2022-09-02_14h25.08.228,jpn_C02,2022.1.2,MacIntel,30.3030303,,,,,,,,,,,,,,,,,,,,,,,,,0,10,10,1,1,CartoonStims/chef_punch_cowboy_r.jpg,ピク　プミ　ホレト　ムク,CartoonStims/chef_kick_cowboy_r.jpg,right,CartoonStims/chef_kick_cowboy_r.jpg,audio/pikupumihoretomuku.mp3,"残念！ こちらが正しい画像です。

否定文は起きていないことを示しているのを思い出してください。",,,,,,,,,,,,,,,,,,,,,,,,,,,,,,,,,,,,,,,,,,,,,,,
,,,,,,,,,R_1Cawvb0JEdQ2WNQ,2022-09-02_14h25.08.228,jpn_C02,2022.1.2,MacIntel,30.3030303,,,,,,,,,,,,,,,,,left,1,4.267,0,0,0,0,1,,,,,,,,,,,,,,,,,,,,,,,,,,,,,,,,,,,,,,,,,,,,,,,,,,,,,,,,,,,
,,,,,,,,,R_1Cawvb0JEdQ2WNQ,2022-09-02_14h25.08.228,jpn_C02,2022.1.2,MacIntel,30.3030303,,,,,,,,,,,,,,,,,,,,,,,,,0,11,11,10,1,CartoonStims/doctor_punch_cowboy_r.jpg,パツ　ピク　ピポ　ムク,CartoonStims/doctor_shoot_cowboy_r.jpg,left,CartoonStims/doctor_punch_cowboy_r.jpg,audio/patsupikupipomuku.mp3,"残念！ こちらが正しい画像です。

否定文は起きていないことを示しているのを思い出してください。",,,,,,,,,,,,,,,,,,,,,,,,,,,,,,,,,,,,,,,,,,,,,,,
,,,,,,,,,R_1Cawvb0JEdQ2WNQ,2022-09-02_14h25.08.228,jpn_C02,2022.1.2,MacIntel,30.3030303,,,,,,,,,,,,,CartoonStims/boxer_punch_chef_r_no.jpg,,,,,,,,,,,,,,,,,,,,,,,,,,,,,space,4.643,ピク　プミ　ドキ　ホレト,right,59.755,,,,,,0,0,0,23,1,,,,,,,,,,,,,,,,,,,,,,,,,ピク　プミ　ドキ　ホレト,プミ　ピク　ドキ　ホレト,1
,,,,,,,,,R_1Cawvb0JEdQ2WNQ,2022-09-02_14h25.08.228,jpn_C02,2022.1.2,MacIntel,30.3030303,,,,,,,,,,,,,CartoonStims/doctor_shoot_artist_r_no.jpg,,,,,,,,,,,,,,,,,,,,,,,,,,,,,,,ピク　パツ　ピポ　シド,right,43.657,,,,,,0,1,1,16,1,,,,,,,,,,,,,,,,,,,,,,,,,ピク　パツ　ピポ　シド,パツ　ピク　ピポ　シド,1
,,,,,,,,,R_1Cawvb0JEdQ2WNQ,2022-09-02_14h25.08.228,jpn_C02,2022.1.2,MacIntel,30.3030303,,,,,,,,,,,,,CartoonStims/burglar_point_chef_r_no.jpg,,,,,,,,,,,,,,,,,,,,,,,,,,,,,,,ピク　トマ　ルピン　ホレト,right,43.042,,,,,,0,2,2,7,1,,,,,,,,,,,,,,,,,,,,,,,,,ピク　トマ　ルピン　ホレト,トマ　ピク　ルピン　ホレト,1
,,,,,,,,,R_1Cawvb0JEdQ2WNQ,2022-09-02_14h25.08.228,jpn_C02,2022.1.2,MacIntel,30.3030303,,,,,,,,,,,,,CartoonStims/artist_punch_cowboy_r_no.jpg,,,,,,,,,,,,,,,,,,,,,,,,,,,,,,,ピク　プミ　シド　ムク,right,48.696,,,,,,0,3,3,18,1,,,,,,,,,,,,,,,,,,,,,,,,,ピク　プミ　シド　ムク,プミ　ピク　シド　ムク,1
,,,,,,,,,R_1Cawvb0JEdQ2WNQ,2022-09-02_14h25.08.228,jpn_C02,2022.1.2,MacIntel,30.3030303,,,,,,,,,,,,,CartoonStims/artist_point_burglar_r_no.jpg,,,,,,,,,,,,,,,,,,,,,,,,,,,,,,,ピク　トマ　シド,right,18.973,,,,,,0,4,4,6,1,,,,,,,,,,,,,,,,,,,,,,,,,ピク　トマ　シド　ルピン,トマ　ピク　シド　ルピン,1
,,,,,,,,,R_1Cawvb0JEdQ2WNQ,2022-09-02_14h25.08.228,jpn_C02,2022.1.2,MacIntel,30.3030303,,,,,,,,,,,,,CartoonStims/boxer_kick_doctor_r_no.jpg,,,,,,,,,,,,,,,,,,,,,,,,,,,,,,,ピク　セル　ドキ　ピポ,right,40.759,,,,,,0,5,5,5,1,,,,,,,,,,,,,,,,,,,,,,,,,ピク　セル　ドキ　ピポ,セル　ピク　ドキ　ピポ,1
,,,,,,,,,R_1Cawvb0JEdQ2WNQ,2022-09-02_14h25.08.228,jpn_C02,2022.1.2,MacIntel,30.3030303,,,,,,,,,,,,,CartoonStims/cowboy_shoot_boxer_r_no.jpg,,,,,,,,,,,,,,,,,,,,,,,,,,,,,,,ピク　パツ　ムク　ドキ,right,49.001,,,,,,0,6,6,15,1,,,,,,,,,,,,,,,,,,,,,,,,,ピク　パツ　ムク　ドキ,パツ　ピク　ムク　ドキ,1
,,,,,,,,,R_1Cawvb0JEdQ2WNQ,2022-09-02_14h25.08.228,jpn_C02,2022.1.2,MacIntel,30.3030303,,,,,,,,,,,,,CartoonStims/boxer_punch_artist_r.jpg,,,,,,,,,,,,,,,,,,,,,,,,,,,,,,,プミ　ドキ　シド,right,19.366,,,,,,0,7,7,35,1,,,,,,,,,,,,,,,,,,,,,,,,,プミ　ドキ　シド,プミ　ドキ　シド,0
,,,,,,,,,R_1Cawvb0JEdQ2WNQ,2022-09-02_14h25.08.228,jpn_C02,2022.1.2,MacIntel,30.3030303,,,,,,,,,,,,,CartoonStims/artist_shoot_chef_r_no.jpg,,,,,,,,,,,,,,,,,,,,,,,,,,,,,,,ピク　パツ　シド　ホレト,right,38.691,,,,,,0,8,8,12,1,,,,,,,,,,,,,,,,,,,,,,,,,ピク　パツ　シド　ホレト,パツ　ピク　シド　ホレト,1
,,,,,,,,,R_1Cawvb0JEdQ2WNQ,2022-09-02_14h25.08.228,jpn_C02,2022.1.2,MacIntel,30.3030303,,,,,,,,,,,,,CartoonStims/burglar_punch_doctor_r_no.jpg,,,,,,,,,,,,,,,,,,,,,,,,,,,,,,,ピク　プミ　ルピン　ピポ,right,35.04,,,,,,0,9,9,19,1,,,,,,,,,,,,,,,,,,,,,,,,,ピク　プミ　ルピン　ピポ,プミ　ピク　ルピン　ピポ,1
,,,,,,,,,R_1Cawvb0JEdQ2WNQ,2022-09-02_14h25.08.228,jpn_C02,2022.1.2,MacIntel,30.3030303,,,,,,,,,,,,,CartoonStims/cowboy_kick_chef_r_no.jpg,,,,,,,,,,,,,,,,,,,,,,,,,,,,,,,ピポ　セル　ムク　ホレト,right,37.309,,,,,,0,10,10,3,1,,,,,,,,,,,,,,,,,,,,,,,,,ピク　セル　ムク　ホレト,セル　ピク　ムク　ホレト,1
,,,,,,,,,R_1Cawvb0JEdQ2WNQ,2022-09-02_14h25.08.228,jpn_C02,2022.1.2,MacIntel,30.3030303,,,,,,,,,,,,,CartoonStims/boxer_shoot_burglar_r_no.jpg,,,,,,,,,,,,,,,,,,,,,,,,,,,,,,,ピク　パツ　ドキ　ルピン,right,41.354,,,,,,0,11,11,17,1,,,,,,,,,,,,,,,,,,,,,,,,,ピク　パツ　ドキ　ルピン,パツ　ピク　ドキ　ルピン,1
,,,,,,,,,R_1Cawvb0JEdQ2WNQ,2022-09-02_14h25.08.228,jpn_C02,2022.1.2,MacIntel,30.3030303,,,,,,,,,,,,,CartoonStims/cowboy_shoot_doctor_r.jpg,,,,,,,,,,,,,,,,,,,,,,,,,,,,,,,パツ　ムク　ピポ,right,16.677,,,,,,0,12,12,32,1,,,,,,,,,,,,,,,,,,,,,,,,,パツ　ムク　ピポ,パツ　ムク　ピポ,0
,,,,,,,,,R_1Cawvb0JEdQ2WNQ,2022-09-02_14h25.08.228,jpn_C02,2022.1.2,MacIntel,30.3030303,,,,,,,,,,,,,CartoonStims/chef_kick_burglar_r_no.jpg,,,,,,,,,,,,,,,,,,,,,,,,,,,,,,,ピク　セル　ホレト　ルピン,right,45.915,,,,,,0,13,13,2,1,,,,,,,,,,,,,,,,,,,,,,,,,ピク　セル　ホレト　ルピン,セル　ピク　ホレト　ルピン,1
,,,,,,,,,R_1Cawvb0JEdQ2WNQ,2022-09-02_14h25.08.228,jpn_C02,2022.1.2,MacIntel,30.3030303,,,,,,,,,,,,,CartoonStims/chef_point_cowboy_r_no.jpg,,,,,,,,,,,,,,,,,,,,,,,,,,,,,,,ピク　トマ　ホレト　ムク,right,22.626,,,,,,0,14,14,8,1,,,,,,,,,,,,,,,,,,,,,,,,,ピク　トマ　ホレト　ムク,トマ　ピク　ホレト　ムク,1
,,,,,,,,,R_1Cawvb0JEdQ2WNQ,2022-09-02_14h25.08.228,jpn_C02,2022.1.2,MacIntel,30.3030303,,,,,,,,,,,,,CartoonStims/boxer_point_artist_r_no.jpg,,,,,,,,,,,,,,,,,,,,,,,,,,,,,,,ピク　トマ　ドキ　シド,right,18.81,,,,,,0,15,15,11,1,,,,,,,,,,,,,,,,,,,,,,,,,ピク　トマ　ドキ　シド,トマ　ピク　ドキ　シド,1
,,,,,,,,,R_1Cawvb0JEdQ2WNQ,2022-09-02_14h25.08.228,jpn_C02,2022.1.2,MacIntel,30.3030303,,,,,,,,,,,,,CartoonStims/burglar_shoot_cowboy_r_no.jpg,,,,,,,,,,,,,,,,,,,,,,,,,,,,,,,ピク　パツ　ルピン　ムク,right,20.341,,,,,,0,16,16,13,1,,,,,,,,,,,,,,,,,,,,,,,,,ピク　パツ　ルピン　ムク,パツ　ピク　ルピン　ムク,1
,,,,,,,,,R_1Cawvb0JEdQ2WNQ,2022-09-02_14h25.08.228,jpn_C02,2022.1.2,MacIntel,30.3030303,,,,,,,,,,,,,CartoonStims/burglar_shoot_chef_r.jpg,,,,,,,,,,,,,,,,,,,,,,,,,,,,,,,パツ　ルピン　ホレト,right,21.497,,,,,,0,17,17,30,1,,,,,,,,,,,,,,,,,,,,,,,,,パツ　ルピン　ホレト,パツ　ルピン　ホレト,0
,,,,,,,,,R_1Cawvb0JEdQ2WNQ,2022-09-02_14h25.08.228,jpn_C02,2022.1.2,MacIntel,30.3030303,,,,,,,,,,,,,CartoonStims/cowboy_punch_artist_r_no.jpg,,,,,,,,,,,,,,,,,,,,,,,,,,,,,,,ピク　プミ　ムク　シド,right,34.124,,,,,,0,18,18,21,1,,,,,,,,,,,,,,,,,,,,,,,,,ピク　プミ　ムク　シド,プミ　ピク　ムク　シド,1
,,,,,,,,,R_1Cawvb0JEdQ2WNQ,2022-09-02_14h25.08.228,jpn_C02,2022.1.2,MacIntel,30.3030303,,,,,,,,,,,,,CartoonStims/cowboy_point_doctor_r_no.jpg,,,,,,,,,,,,,,,,,,,,,,,,,,,,,,,ピク　トマ　ムク　ピポ,right,32.159,,,,,,0,19,19,9,1,,,,,,,,,,,,,,,,,,,,,,,,,ピク　トマ　ムク　ピポ,トマ　ピク　ムク　ピポ,1
,,,,,,,,,R_1Cawvb0JEdQ2WNQ,2022-09-02_14h25.08.228,jpn_C02,2022.1.2,MacIntel,30.3030303,,,,,,,,,,,,,CartoonStims/cowboy_kick_burglar_r.jpg,,,,,,,,,,,,,,,,,,,,,,,,,,,,,,,セル　ムク　ルピン,right,17.902,,,,,,0,20,20,24,1,,,,,,,,,,,,,,,,,,,,,,,,,セル　ムク　ルピン,セル　ムク　ルピン,0
,,,,,,,,,R_1Cawvb0JEdQ2WNQ,2022-09-02_14h25.08.228,jpn_C02,2022.1.2,MacIntel,30.3030303,,,,,,,,,,,,,CartoonStims/boxer_kick_cowboy_r.jpg,,,,,,,,,,,,,,,,,,,,,,,,,,,,,,,セル　ドキ　ムク,right,15.617,,,,,,0,21,21,26,1,,,,,,,,,,,,,,,,,,,,,,,,,セル　ドキ　ムク,セル　ドキ　ムク,0
,,,,,,,,,R_1Cawvb0JEdQ2WNQ,2022-09-02_14h25.08.228,jpn_C02,2022.1.2,MacIntel,30.3030303,,,,,,,,,,,,,CartoonStims/chef_punch_boxer_r_no.jpg,,,,,,,,,,,,,,,,,,,,,,,,,,,,,,,ピク　プミ　ホレト　ドキ,right,32.204,,,,,,0,22,22,20,1,,,,,,,,,,,,,,,,,,,,,,,,,ピク　プミ　ホレト　ドキ,プミ　ピク　ホレト　ドキ,1
,,,,,,,,,R_1Cawvb0JEdQ2WNQ,2022-09-02_14h25.08.228,jpn_C02,2022.1.2,MacIntel,30.3030303,,,,,,,,,,,,,CartoonStims/artist_kick_boxer_r_no.jpg,,,,,,,,,,,,,,,,,,,,,,,,,,,,,,,ピク　セル　シド　ドキ,right,41.231,,,,,,0,23,23,0,1,,,,,,,,,,,,,,,,,,,,,,,,,ピク　セル　シド　ドキ,セル　ピク　シド　ドキ,1
,,,,,,,,,R_1Cawvb0JEdQ2WNQ,2022-09-02_14h25.08.228,jpn_C02,2022.1.2,MacIntel,30.3030303,,,,,,,,,,,,,CartoonStims/artist_punch_burglar_r.jpg,,,,,,,,,,,,,,,,,,,,,,,,,,,,,,,プミ　シド　ルピン,right,23.667,,,,,,0,24,24,33,1,,,,,,,,,,,,,,,,,,,,,,,,,プミ　シド　ルピン,プミ　シド　ルピン,0
,,,,,,,,,R_1Cawvb0JEdQ2WNQ,2022-09-02_14h25.08.228,jpn_C02,2022.1.2,MacIntel,30.3030303,,,,,,,,,,,,,CartoonStims/doctor_punch_burglar_r_no.jpg,,,,,,,,,,,,,,,,,,,,,,,,,,,,,,,ピク　プミ　ピポ,right,36.736,,,,,,0,25,25,22,1,,,,,,,,,,,,,,,,,,,,,,,,,ピク　プミ　ピポ　ルピン,プミ　ピク　ピポ　ルピン,1
,,,,,,,,,R_1Cawvb0JEdQ2WNQ,2022-09-02_14h25.08.228,jpn_C02,2022.1.2,MacIntel,30.3030303,,,,,,,,,,,,,CartoonStims/chef_shoot_cowboy_r.jpg,,,,,,,,,,,,,,,,,,,,,,,,,,,,,,,パツ　ホレト　ムク,right,26.536,,,,,,0,26,26,31,1,,,,,,,,,,,,,,,,,,,,,,,,,パツ　ホレト　ムク,パツ　ホレト　ムク,0
,,,,,,,,,R_1Cawvb0JEdQ2WNQ,2022-09-02_14h25.08.228,jpn_C02,2022.1.2,MacIntel,30.3030303,,,,,,,,,,,,,CartoonStims/burglar_point_artist_r.jpg,,,,,,,,,,,,,,,,,,,,,,,,,,,,,,,トマ　ルピン　シド,right,13.895,,,,,,0,27,27,28,1,,,,,,,,,,,,,,,,,,,,,,,,,トマ　ルピン　シド,トマ　ルピン　シド,0
,,,,,,,,,R_1Cawvb0JEdQ2WNQ,2022-09-02_14h25.08.228,jpn_C02,2022.1.2,MacIntel,30.3030303,,,,,,,,,,,,,CartoonStims/chef_shoot_doctor_r_no.jpg,,,,,,,,,,,,,,,,,,,,,,,,,,,,,,,ピク　パツ　,right,15.943,,,,,,0,28,28,14,1,,,,,,,,,,,,,,,,,,,,,,,,,ピク　パツ　ホレト　ピポ,パツ　ピク　ホレト　ピポ,1
,,,,,,,,,R_1Cawvb0JEdQ2WNQ,2022-09-02_14h25.08.228,jpn_C02,2022.1.2,MacIntel,30.3030303,,,,,,,,,,,,,CartoonStims/doctor_kick_chef_r.jpg,,,,,,,,,,,,,,,,,,,,,,,,,,,,,,,,right,0.195,,,,,,0,29,29,25,1,,,,,,,,,,,,,,,,,,,,,,,,,セル　ピポ　ホレト,セル　ピポ　ホレト,0
,,,,,,,,,R_1Cawvb0JEdQ2WNQ,2022-09-02_14h25.08.228,jpn_C02,2022.1.2,MacIntel,30.3030303,,,,,,,,,,,,,CartoonStims/burglar_kick_artist_r_no.jpg,,,,,,,,,,,,,,,,,,,,,,,,,,,,,,,ピク　セル　ルピン　シド,right,33.311,,,,,,0,30,30,1,1,,,,,,,,,,,,,,,,,,,,,,,,,ピク　セル　ルピン　シド,セル　ピク　ルピン　シド,1
,,,,,,,,,R_1Cawvb0JEdQ2WNQ,2022-09-02_14h25.08.228,jpn_C02,2022.1.2,MacIntel,30.3030303,,,,,,,,,,,,,CartoonStims/artist_point_boxer_r.jpg,,,,,,,,,,,,,,,,,,,,,,,,,,,,,,,トマ,right,3.913,,,,,,0,31,31,27,1,,,,,,,,,,,,,,,,,,,,,,,,,トマ　シド　ドキ,トマ　シド　ドキ,0
,,,,,,,,,R_1Cawvb0JEdQ2WNQ,2022-09-02_14h25.08.228,jpn_C02,2022.1.2,MacIntel,30.3030303,,,,,,,,,,,,,CartoonStims/chef_point_burglar_r.jpg,,,,,,,,,,,,,,,,,,,,,,,,,,,,,,,トマ　ホレト　ルピン,right,31.559,,,,,,0,32,32,29,1,,,,,,,,,,,,,,,,,,,,,,,,,トマ　ホレト　ルピン,トマ　ホレト　ルピン,0
,,,,,,,,,R_1Cawvb0JEdQ2WNQ,2022-09-02_14h25.08.228,jpn_C02,2022.1.2,MacIntel,30.3030303,,,,,,,,,,,,,CartoonStims/doctor_punch_boxer_r.jpg,,,,,,,,,,,,,,,,,,,,,,,,,,,,,,,パツ　ピポ　ドキ,right,18.36,,,,,,0,33,33,34,1,,,,,,,,,,,,,,,,,,,,,,,,,プミ　ピポ　ドキ,プミ　ピポ　ドキ,0
,,,,,,,,,R_1Cawvb0JEdQ2WNQ,2022-09-02_14h25.08.228,jpn_C02,2022.1.2,MacIntel,30.3030303,,,,,,,,,,,,,CartoonStims/doctor_point_boxer_r_no.jpg,,,,,,,,,,,,,,,,,,,,,,,,,,,,,,,ピク　トマ　ピポ　ドキ,right,30.334,,,,,,0,34,34,10,1,,,,,,,,,,,,,,,,,,,,,,,,,ピク　トマ　ピポ　ドキ,トマ　ピク　ピポ　ドキ,1
,,,,,,,,,R_1Cawvb0JEdQ2WNQ,2022-09-02_14h25.08.228,jpn_C02,2022.1.2,MacIntel,30.3030303,,,,,,,,,,,,,CartoonStims/doctor_kick_cowboy_r_no.jpg,,,,,,,,,,,,,,,,,,,,,,,,,,,,,,,ピク　セル　ピポ　ムク,right,27.425,,,,,,0,35,35,4,1,,,,,,,,,,,,,,,,,,,,,,,,,ピク　セル　ピポ　ムク,セル　ピク　ピポ　ムク,1
,,,,,,,,,R_1Cawvb0JEdQ2WNQ,2022-09-02_14h25.08.228,jpn_C02,2022.1.2,MacIntel,30.3030303,,,,,,,,,,,,,,,,,,,,,,,,,,,,,,,,,,,,,,,,,,,,,,,,,,,,,,,,,,,space,98.864,0,2,2,2,1,NegVCondition.xlsx,"ここではこの言語における否定の文を学習していただきます。引き続き注意して、 聞こえた音を復唱してください。

スペースキーを押してください。",1,NegVFCT.xlsx,ここからクイズが始まります。 スクリーンに表示されるテキストに合うイメージを選んでください。,NegTest.xlsx,1,最後にここまで学んだことをアウトプットしていただきます。 テキストボックスにあるイメージを描写するテキストを入力してください。 このタスクでは、 答え合わせは行いません。,0,これですべての実験が終わりました。 お疲れさまです。 この後はアンケートに答えていただきます。,,,,,,,,