key_resp_instr_a.keys,key_resp_instr_a.rt,key_resp_instr_b.keys,key_resp_instr_b.rt,dummy.thisRepN,dummy.thisTrialN,dummy.thisN,dummy.thisIndex,dummy.ran,participant,date,expName,psychopyVersion,OS,frameRate,key_resp_instr1.keys,key_resp_instr1.rt,key_resp.keys,key_resp.rt,exp_loop.thisRepN,exp_loop.thisTrialN,exp_loop.thisN,exp_loop.thisIndex,exp_loop.ran,Word,English,Flip,Path,Audio,key_resp_instr2.keys,key_resp_instr2.rt,key_resp_fct.keys,key_resp_fct.corr,key_resp_fct.rt,trials.thisRepN,trials.thisTrialN,trials.thisN,trials.thisIndex,trials.ran,fct_loop.thisRepN,fct_loop.thisTrialN,fct_loop.thisN,fct_loop.thisIndex,fct_loop.ran,left_img,word,right_img,correctans,correct_img,audio,incorrect_feedback,trials_2.thisRepN,trials_2.thisTrialN,trials_2.thisN,trials_2.thisIndex,trials_2.ran,key_resp_instr3.keys,key_resp_instr3.rt,textbox.text,key_resp_2.keys,key_resp_2.rt,fb_yn.thisRepN,fb_yn.thisTrialN,fb_yn.thisN,fb_yn.thisIndex,fb_yn.ran,gather_loop.thisRepN,gather_loop.thisTrialN,gather_loop.thisN,gather_loop.thisIndex,gather_loop.ran,Text,Wordbank,key_resp_instr4.keys,key_resp_instr4.rt,master_loop.thisRepN,master_loop.thisTrialN,master_loop.thisN,master_loop.thisIndex,master_loop.ran,exposure_file,instr_1,exp_reps,fct_file,instr_2,gather_file,gather_reps,instr_3,fReps,instr_4,trials_4.thisRepN,trials_4.thisTrialN,trials_4.thisN,trials_4.thisIndex,trials_4.ran,NegVSentence,VNegSentence,NegTF
space,6.0915,space,10.5832,0,0,0,0,1,R_OexgaNi8xz4AXPX,2022-07-03_14h27.55.707,jpn_C01,2022.1.2,Win32,60.14675809,,,,,,,,,,,,,,,,,,,,,,,,,,,,,,,,,,,,,,,,,,,,,,,,,,,,,,,,,,,,,,,,,,,,,,,,,,,,,,,,,,,
,,,,,,,,,R_OexgaNi8xz4AXPX,2022-07-03_14h27.55.707,jpn_C01,2022.1.2,Win32,60.14675809,space,16.8652,space,3.6351,0,0,0,3,1,ムク,cowboy,,CartoonStims/cowboy_r.jpg,audio/muku.mp3,,,,,,,,,,,,,,,,,,,,,,,,,,,,,,,,,,,,,,,,,,,,,,,,,,,,,,,,,,,,,,,,,,,,,
,,,,,,,,,R_OexgaNi8xz4AXPX,2022-07-03_14h27.55.707,jpn_C01,2022.1.2,Win32,60.14675809,,,space,3.6832,0,1,1,1,1,ルピン,burglar,,CartoonStims/burglar_r.jpg,audio/lupin.mp3,,,,,,,,,,,,,,,,,,,,,,,,,,,,,,,,,,,,,,,,,,,,,,,,,,,,,,,,,,,,,,,,,,,,,
,,,,,,,,,R_OexgaNi8xz4AXPX,2022-07-03_14h27.55.707,jpn_C01,2022.1.2,Win32,60.14675809,,,space,3.7242,0,2,2,5,1,ドキ,boxer,,CartoonStims/boxer_r.jpg,audio/doki.mp3,,,,,,,,,,,,,,,,,,,,,,,,,,,,,,,,,,,,,,,,,,,,,,,,,,,,,,,,,,,,,,,,,,,,,
,,,,,,,,,R_OexgaNi8xz4AXPX,2022-07-03_14h27.55.707,jpn_C01,2022.1.2,Win32,60.14675809,,,space,5.538,0,3,3,2,1,ホレト,chef,,CartoonStims/chef_r.jpg,audio/horeto.mp3,,,,,,,,,,,,,,,,,,,,,,,,,,,,,,,,,,,,,,,,,,,,,,,,,,,,,,,,,,,,,,,,,,,,,
,,,,,,,,,R_OexgaNi8xz4AXPX,2022-07-03_14h27.55.707,jpn_C01,2022.1.2,Win32,60.14675809,,,space,7.3191,0,4,4,0,1,シド,artist,,CartoonStims/artist_r.jpg,audio/sido.mp3,,,,,,,,,,,,,,,,,,,,,,,,,,,,,,,,,,,,,,,,,,,,,,,,,,,,,,,,,,,,,,,,,,,,,
,,,,,,,,,R_OexgaNi8xz4AXPX,2022-07-03_14h27.55.707,jpn_C01,2022.1.2,Win32,60.14675809,,,space,2.0622,0,5,5,4,1,ピポ,doctor,,CartoonStims/doctor_r.jpg,audio/pipo.mp3,,,,,,,,,,,,,,,,,,,,,,,,,,,,,,,,,,,,,,,,,,,,,,,,,,,,,,,,,,,,,,,,,,,,,
,,,,,,,,,R_OexgaNi8xz4AXPX,2022-07-03_14h27.55.707,jpn_C01,2022.1.2,Win32,60.14675809,,,space,2.5395,1,0,6,2,1,ホレト,chef,,CartoonStims/chef_r.jpg,audio/horeto.mp3,,,,,,,,,,,,,,,,,,,,,,,,,,,,,,,,,,,,,,,,,,,,,,,,,,,,,,,,,,,,,,,,,,,,,
,,,,,,,,,R_OexgaNi8xz4AXPX,2022-07-03_14h27.55.707,jpn_C01,2022.1.2,Win32,60.14675809,,,space,1.6786,1,1,7,0,1,シド,artist,,CartoonStims/artist_r.jpg,audio/sido.mp3,,,,,,,,,,,,,,,,,,,,,,,,,,,,,,,,,,,,,,,,,,,,,,,,,,,,,,,,,,,,,,,,,,,,,
,,,,,,,,,R_OexgaNi8xz4AXPX,2022-07-03_14h27.55.707,jpn_C01,2022.1.2,Win32,60.14675809,,,space,0.3612,1,2,8,4,1,ピポ,doctor,,CartoonStims/doctor_r.jpg,audio/pipo.mp3,,,,,,,,,,,,,,,,,,,,,,,,,,,,,,,,,,,,,,,,,,,,,,,,,,,,,,,,,,,,,,,,,,,,,
,,,,,,,,,R_OexgaNi8xz4AXPX,2022-07-03_14h27.55.707,jpn_C01,2022.1.2,Win32,60.14675809,,,space,1.2525,1,3,9,5,1,ドキ,boxer,,CartoonStims/boxer_r.jpg,audio/doki.mp3,,,,,,,,,,,,,,,,,,,,,,,,,,,,,,,,,,,,,,,,,,,,,,,,,,,,,,,,,,,,,,,,,,,,,
,,,,,,,,,R_OexgaNi8xz4AXPX,2022-07-03_14h27.55.707,jpn_C01,2022.1.2,Win32,60.14675809,,,space,12.2252,1,4,10,3,1,ムク,cowboy,,CartoonStims/cowboy_r.jpg,audio/muku.mp3,,,,,,,,,,,,,,,,,,,,,,,,,,,,,,,,,,,,,,,,,,,,,,,,,,,,,,,,,,,,,,,,,,,,,
,,,,,,,,,R_OexgaNi8xz4AXPX,2022-07-03_14h27.55.707,jpn_C01,2022.1.2,Win32,60.14675809,,,space,0.3341,1,5,11,1,1,ルピン,burglar,,CartoonStims/burglar_r.jpg,audio/lupin.mp3,,,,,,,,,,,,,,,,,,,,,,,,,,,,,,,,,,,,,,,,,,,,,,,,,,,,,,,,,,,,,,,,,,,,,
,,,,,,,,,R_OexgaNi8xz4AXPX,2022-07-03_14h27.55.707,jpn_C01,2022.1.2,Win32,60.14675809,,,space,0.5901,2,0,12,2,1,ホレト,chef,,CartoonStims/chef_r.jpg,audio/horeto.mp3,,,,,,,,,,,,,,,,,,,,,,,,,,,,,,,,,,,,,,,,,,,,,,,,,,,,,,,,,,,,,,,,,,,,,
,,,,,,,,,R_OexgaNi8xz4AXPX,2022-07-03_14h27.55.707,jpn_C01,2022.1.2,Win32,60.14675809,,,space,0.1792,2,1,13,4,1,ピポ,doctor,,CartoonStims/doctor_r.jpg,audio/pipo.mp3,,,,,,,,,,,,,,,,,,,,,,,,,,,,,,,,,,,,,,,,,,,,,,,,,,,,,,,,,,,,,,,,,,,,,
,,,,,,,,,R_OexgaNi8xz4AXPX,2022-07-03_14h27.55.707,jpn_C01,2022.1.2,Win32,60.14675809,,,space,0.8886,2,2,14,0,1,シド,artist,,CartoonStims/artist_r.jpg,audio/sido.mp3,,,,,,,,,,,,,,,,,,,,,,,,,,,,,,,,,,,,,,,,,,,,,,,,,,,,,,,,,,,,,,,,,,,,,
,,,,,,,,,R_OexgaNi8xz4AXPX,2022-07-03_14h27.55.707,jpn_C01,2022.1.2,Win32,60.14675809,,,space,0.3005,2,3,15,3,1,ムク,cowboy,,CartoonStims/cowboy_r.jpg,audio/muku.mp3,,,,,,,,,,,,,,,,,,,,,,,,,,,,,,,,,,,,,,,,,,,,,,,,,,,,,,,,,,,,,,,,,,,,,
,,,,,,,,,R_OexgaNi8xz4AXPX,2022-07-03_14h27.55.707,jpn_C01,2022.1.2,Win32,60.14675809,,,space,0.1896,2,4,16,1,1,ルピン,burglar,,CartoonStims/burglar_r.jpg,audio/lupin.mp3,,,,,,,,,,,,,,,,,,,,,,,,,,,,,,,,,,,,,,,,,,,,,,,,,,,,,,,,,,,,,,,,,,,,,
,,,,,,,,,R_OexgaNi8xz4AXPX,2022-07-03_14h27.55.707,jpn_C01,2022.1.2,Win32,60.14675809,,,space,0.3331,2,5,17,5,1,ドキ,boxer,,CartoonStims/boxer_r.jpg,audio/doki.mp3,,,,,,,,,,,,,,,,,,,,,,,,,,,,,,,,,,,,,,,,,,,,,,,,,,,,,,,,,,,,,,,,,,,,,
,,,,,,,,,R_OexgaNi8xz4AXPX,2022-07-03_14h27.55.707,jpn_C01,2022.1.2,Win32,60.14675809,,,,,,,,,,,,,,,space,2.7533,left,1,1.5244,0,0,0,0,1,,,,,,,,,,,,,,,,,,,,,,,,,,,,,,,,,,,,,,,,,,,,,,,,,,,,,,,,,,,
,,,,,,,,,R_OexgaNi8xz4AXPX,2022-07-03_14h27.55.707,jpn_C01,2022.1.2,Win32,60.14675809,,,,,,,,,,,,,,,,,,,,,,,,,0,0,0,2,1,CartoonStims/chef_r.jpg,ホレト,CartoonStims/cowboy_r.jpg,left,CartoonStims/chef_r.jpg,audio/horeto.mp3,残念！ こちらが正しい画像です。,,,,,,,,,,,,,,,,,,,,,,,,,,,,,,,,,,,,,,,,,,,,,,,
,,,,,,,,,R_OexgaNi8xz4AXPX,2022-07-03_14h27.55.707,jpn_C01,2022.1.2,Win32,60.14675809,,,,,,,,,,,,,,,,,right,1,2.6031,,,,,,,,,,,,,,,,,,0,0,0,0,1,,,,,,,,,,,,,,,,,,,,,,,,,,,,,,,,,,,,,,,,,,
,,,,,,,,,R_OexgaNi8xz4AXPX,2022-07-03_14h27.55.707,jpn_C01,2022.1.2,Win32,60.14675809,,,,,,,,,,,,,,,,,,,,,,,,,0,1,1,9,1,CartoonStims/boxer_r.jpg,ムク,CartoonStims/cowboy_r.jpg,right,CartoonStims/cowboy_r.jpg,audio/muku.mp3,残念！ こちらが正しい画像です。,,,,,,,,,,,,,,,,,,,,,,,,,,,,,,,,,,,,,,,,,,,,,,,
,,,,,,,,,R_OexgaNi8xz4AXPX,2022-07-03_14h27.55.707,jpn_C01,2022.1.2,Win32,60.14675809,,,,,,,,,,,,,,,,,left,1,0.5537,0,0,0,0,1,,,,,,,,,,,,,,,,,,,,,,,,,,,,,,,,,,,,,,,,,,,,,,,,,,,,,,,,,,,
,,,,,,,,,R_OexgaNi8xz4AXPX,2022-07-03_14h27.55.707,jpn_C01,2022.1.2,Win32,60.14675809,,,,,,,,,,,,,,,,,,,,,,,,,0,2,2,5,1,CartoonStims/boxer_r.jpg,ドキ,CartoonStims/artist_r.jpg,left,CartoonStims/boxer_r.jpg,audio/doki.mp3,残念！ こちらが正しい画像です。,,,,,,,,,,,,,,,,,,,,,,,,,,,,,,,,,,,,,,,,,,,,,,,
,,,,,,,,,R_OexgaNi8xz4AXPX,2022-07-03_14h27.55.707,jpn_C01,2022.1.2,Win32,60.14675809,,,,,,,,,,,,,,,,,left,1,0.4011,0,0,0,0,1,,,,,,,,,,,,,,,,,,,,,,,,,,,,,,,,,,,,,,,,,,,,,,,,,,,,,,,,,,,
,,,,,,,,,R_OexgaNi8xz4AXPX,2022-07-03_14h27.55.707,jpn_C01,2022.1.2,Win32,60.14675809,,,,,,,,,,,,,,,,,,,,,,,,,0,3,3,1,1,CartoonStims/burglar_r.jpg,ルピン,CartoonStims/chef_r.jpg,left,CartoonStims/burglar_r.jpg,audio/lupin.mp3,残念！ こちらが正しい画像です。,,,,,,,,,,,,,,,,,,,,,,,,,,,,,,,,,,,,,,,,,,,,,,,
,,,,,,,,,R_OexgaNi8xz4AXPX,2022-07-03_14h27.55.707,jpn_C01,2022.1.2,Win32,60.14675809,,,,,,,,,,,,,,,,,left,1,0.818,0,0,0,0,1,,,,,,,,,,,,,,,,,,,,,,,,,,,,,,,,,,,,,,,,,,,,,,,,,,,,,,,,,,,
,,,,,,,,,R_OexgaNi8xz4AXPX,2022-07-03_14h27.55.707,jpn_C01,2022.1.2,Win32,60.14675809,,,,,,,,,,,,,,,,,,,,,,,,,0,4,4,0,1,CartoonStims/artist_r.jpg,シド,CartoonStims/burglar_r.jpg,left,CartoonStims/artist_r.jpg,audio/sido.mp3,残念！ こちらが正しい画像です。,,,,,,,,,,,,,,,,,,,,,,,,,,,,,,,,,,,,,,,,,,,,,,,
,,,,,,,,,R_OexgaNi8xz4AXPX,2022-07-03_14h27.55.707,jpn_C01,2022.1.2,Win32,60.14675809,,,,,,,,,,,,,,,,,right,1,2.1494,,,,,,,,,,,,,,,,,,0,0,0,0,1,,,,,,,,,,,,,,,,,,,,,,,,,,,,,,,,,,,,,,,,,,
,,,,,,,,,R_OexgaNi8xz4AXPX,2022-07-03_14h27.55.707,jpn_C01,2022.1.2,Win32,60.14675809,,,,,,,,,,,,,,,,,,,,,,,,,0,5,5,8,1,CartoonStims/doctor_r.jpg,ホレト,CartoonStims/chef_r.jpg,right,CartoonStims/chef_r.jpg,audio/horeto.mp3,残念！ こちらが正しい画像です。,,,,,,,,,,,,,,,,,,,,,,,,,,,,,,,,,,,,,,,,,,,,,,,
,,,,,,,,,R_OexgaNi8xz4AXPX,2022-07-03_14h27.55.707,jpn_C01,2022.1.2,Win32,60.14675809,,,,,,,,,,,,,,,,,right,1,1.0003,,,,,,,,,,,,,,,,,,0,0,0,0,1,,,,,,,,,,,,,,,,,,,,,,,,,,,,,,,,,,,,,,,,,,
,,,,,,,,,R_OexgaNi8xz4AXPX,2022-07-03_14h27.55.707,jpn_C01,2022.1.2,Win32,60.14675809,,,,,,,,,,,,,,,,,,,,,,,,,0,6,6,10,1,CartoonStims/artist_r.jpg,ピポ,CartoonStims/doctor_r.jpg,right,CartoonStims/doctor_r.jpg,audio/pipo.mp3,残念！ こちらが正しい画像です。,,,,,,,,,,,,,,,,,,,,,,,,,,,,,,,,,,,,,,,,,,,,,,,
,,,,,,,,,R_OexgaNi8xz4AXPX,2022-07-03_14h27.55.707,jpn_C01,2022.1.2,Win32,60.14675809,,,,,,,,,,,,,,,,,right,1,0.7864,,,,,,,,,,,,,,,,,,0,0,0,0,1,,,,,,,,,,,,,,,,,,,,,,,,,,,,,,,,,,,,,,,,,,
,,,,,,,,,R_OexgaNi8xz4AXPX,2022-07-03_14h27.55.707,jpn_C01,2022.1.2,Win32,60.14675809,,,,,,,,,,,,,,,,,,,,,,,,,0,7,7,11,1,CartoonStims/burglar_r.jpg,ドキ,CartoonStims/boxer_r.jpg,right,CartoonStims/boxer_r.jpg,audio/doki.mp3,残念！ こちらが正しい画像です。,,,,,,,,,,,,,,,,,,,,,,,,,,,,,,,,,,,,,,,,,,,,,,,
,,,,,,,,,R_OexgaNi8xz4AXPX,2022-07-03_14h27.55.707,jpn_C01,2022.1.2,Win32,60.14675809,,,,,,,,,,,,,,,,,right,1,1.5007,,,,,,,,,,,,,,,,,,0,0,0,0,1,,,,,,,,,,,,,,,,,,,,,,,,,,,,,,,,,,,,,,,,,,
,,,,,,,,,R_OexgaNi8xz4AXPX,2022-07-03_14h27.55.707,jpn_C01,2022.1.2,Win32,60.14675809,,,,,,,,,,,,,,,,,,,,,,,,,0,8,8,6,1,CartoonStims/chef_r.jpg,シド,CartoonStims/artist_r.jpg,right,CartoonStims/artist_r.jpg,audio/sido.mp3,残念！ こちらが正しい画像です。,,,,,,,,,,,,,,,,,,,,,,,,,,,,,,,,,,,,,,,,,,,,,,,
,,,,,,,,,R_OexgaNi8xz4AXPX,2022-07-03_14h27.55.707,jpn_C01,2022.1.2,Win32,60.14675809,,,,,,,,,,,,,,,,,right,1,0.9497,,,,,,,,,,,,,,,,,,0,0,0,0,1,,,,,,,,,,,,,,,,,,,,,,,,,,,,,,,,,,,,,,,,,,
,,,,,,,,,R_OexgaNi8xz4AXPX,2022-07-03_14h27.55.707,jpn_C01,2022.1.2,Win32,60.14675809,,,,,,,,,,,,,,,,,,,,,,,,,0,9,9,7,1,CartoonStims/cowboy_r.jpg,ルピン,CartoonStims/burglar_r.jpg,right,CartoonStims/burglar_r.jpg,audio/lupin.mp3,残念！ こちらが正しい画像です。,,,,,,,,,,,,,,,,,,,,,,,,,,,,,,,,,,,,,,,,,,,,,,,
,,,,,,,,,R_OexgaNi8xz4AXPX,2022-07-03_14h27.55.707,jpn_C01,2022.1.2,Win32,60.14675809,,,,,,,,,,,,,,,,,left,1,1.7729,0,0,0,0,1,,,,,,,,,,,,,,,,,,,,,,,,,,,,,,,,,,,,,,,,,,,,,,,,,,,,,,,,,,,
,,,,,,,,,R_OexgaNi8xz4AXPX,2022-07-03_14h27.55.707,jpn_C01,2022.1.2,Win32,60.14675809,,,,,,,,,,,,,,,,,,,,,,,,,0,10,10,3,1,CartoonStims/cowboy_r.jpg,ムク,CartoonStims/doctor_r.jpg,left,CartoonStims/cowboy_r.jpg,audio/muku.mp3,残念！ こちらが正しい画像です。,,,,,,,,,,,,,,,,,,,,,,,,,,,,,,,,,,,,,,,,,,,,,,,
,,,,,,,,,R_OexgaNi8xz4AXPX,2022-07-03_14h27.55.707,jpn_C01,2022.1.2,Win32,60.14675809,,,,,,,,,,,,,,,,,left,1,0.5183,0,0,0,0,1,,,,,,,,,,,,,,,,,,,,,,,,,,,,,,,,,,,,,,,,,,,,,,,,,,,,,,,,,,,
,,,,,,,,,R_OexgaNi8xz4AXPX,2022-07-03_14h27.55.707,jpn_C01,2022.1.2,Win32,60.14675809,,,,,,,,,,,,,,,,,,,,,,,,,0,11,11,4,1,CartoonStims/doctor_r.jpg,ピポ,CartoonStims/boxer_r.jpg,left,CartoonStims/doctor_r.jpg,audio/pipo.mp3,残念！ こちらが正しい画像です。,,,,,,,,,,,,,,,,,,,,,,,,,,,,,,,,,,,,,,,,,,,,,,,
,,,,,,,,,R_OexgaNi8xz4AXPX,2022-07-03_14h27.55.707,jpn_C01,2022.1.2,Win32,60.14675809,,,,,,,,,,,,,,,,,,,,,,,,,,,,,,,,,,,,,,,,,,space,2.652,ホレト,right,12.6768,0,0,0,0,1,,,,,,,,,,,,,,,,,,,,,,,,,,,,,,,,
,,,,,,,,,R_OexgaNi8xz4AXPX,2022-07-03_14h27.55.707,jpn_C01,2022.1.2,Win32,60.14675809,,,,,,,,,,,,,CartoonStims/chef_r.jpg,audio/horeto.mp3,,,,,,,,,,,,,,,,,,,,,,,,,,,,,,,,,,,,,,0,0,0,2,1,ホレト,,,,,,,,,,,,,,,,,,,,,,,,,,
,,,,,,,,,R_OexgaNi8xz4AXPX,2022-07-03_14h27.55.707,jpn_C01,2022.1.2,Win32,60.14675809,,,,,,,,,,,,,,,,,,,,,,,,,,,,,,,,,,,,,,,,,,,,ムク,right,7.5215,0,0,0,0,1,,,,,,,,,,,,,,,,,,,,,,,,,,,,,,,,
,,,,,,,,,R_OexgaNi8xz4AXPX,2022-07-03_14h27.55.707,jpn_C01,2022.1.2,Win32,60.14675809,,,,,,,,,,,,,CartoonStims/cowboy_r.jpg,audio/muku.mp3,,,,,,,,,,,,,,,,,,,,,,,,,,,,,,,,,,,,,,0,1,1,3,1,ムク,,,,,,,,,,,,,,,,,,,,,,,,,,
,,,,,,,,,R_OexgaNi8xz4AXPX,2022-07-03_14h27.55.707,jpn_C01,2022.1.2,Win32,60.14675809,,,,,,,,,,,,,,,,,,,,,,,,,,,,,,,,,,,,,,,,,,,,ドキ,right,5.6971,0,0,0,0,1,,,,,,,,,,,,,,,,,,,,,,,,,,,,,,,,
,,,,,,,,,R_OexgaNi8xz4AXPX,2022-07-03_14h27.55.707,jpn_C01,2022.1.2,Win32,60.14675809,,,,,,,,,,,,,CartoonStims/boxer_r.jpg,audio/doki.mp3,,,,,,,,,,,,,,,,,,,,,,,,,,,,,,,,,,,,,,0,2,2,5,1,ドキ,,,,,,,,,,,,,,,,,,,,,,,,,,
,,,,,,,,,R_OexgaNi8xz4AXPX,2022-07-03_14h27.55.707,jpn_C01,2022.1.2,Win32,60.14675809,,,,,,,,,,,,,,,,,,,,,,,,,,,,,,,,,,,,,,,,,,,,ルピン,right,3.4183,0,0,0,0,1,,,,,,,,,,,,,,,,,,,,,,,,,,,,,,,,
,,,,,,,,,R_OexgaNi8xz4AXPX,2022-07-03_14h27.55.707,jpn_C01,2022.1.2,Win32,60.14675809,,,,,,,,,,,,,CartoonStims/burglar_r.jpg,audio/lupin.mp3,,,,,,,,,,,,,,,,,,,,,,,,,,,,,,,,,,,,,,0,3,3,1,1,ルピン,,,,,,,,,,,,,,,,,,,,,,,,,,
,,,,,,,,,R_OexgaNi8xz4AXPX,2022-07-03_14h27.55.707,jpn_C01,2022.1.2,Win32,60.14675809,,,,,,,,,,,,,,,,,,,,,,,,,,,,,,,,,,,,,,,,,,,,シド,right,5.9631,0,0,0,0,1,,,,,,,,,,,,,,,,,,,,,,,,,,,,,,,,
,,,,,,,,,R_OexgaNi8xz4AXPX,2022-07-03_14h27.55.707,jpn_C01,2022.1.2,Win32,60.14675809,,,,,,,,,,,,,CartoonStims/artist_r.jpg,audio/sido.mp3,,,,,,,,,,,,,,,,,,,,,,,,,,,,,,,,,,,,,,0,4,4,0,1,シド,,,,,,,,,,,,,,,,,,,,,,,,,,
,,,,,,,,,R_OexgaNi8xz4AXPX,2022-07-03_14h27.55.707,jpn_C01,2022.1.2,Win32,60.14675809,,,,,,,,,,,,,,,,,,,,,,,,,,,,,,,,,,,,,,,,,,,,ピ歩,right,3.7832,0,0,0,0,1,,,,,,,,,,,,,,,,,,,,,,,,,,,,,,,,
,,,,,,,,,R_OexgaNi8xz4AXPX,2022-07-03_14h27.55.707,jpn_C01,2022.1.2,Win32,60.14675809,,,,,,,,,,,,,CartoonStims/doctor_r.jpg,audio/pipo.mp3,,,,,,,,,,,,,,,,,,,,,,,,,,,,,,,,,,,,,,0,5,5,4,1,ピポ,,,,,,,,,,,,,,,,,,,,,,,,,,
,,,,,,,,,R_OexgaNi8xz4AXPX,2022-07-03_14h27.55.707,jpn_C01,2022.1.2,Win32,60.14675809,,,,,,,,,,,,,,,,,,,,,,,,,,,,,,,,,,,,,,,,,,,,ルピン,right,7.0936,0,0,0,0,1,,,,,,,,,,,,,,,,,,,,,,,,,,,,,,,,
,,,,,,,,,R_OexgaNi8xz4AXPX,2022-07-03_14h27.55.707,jpn_C01,2022.1.2,Win32,60.14675809,,,,,,,,,,,,,CartoonStims/burglar_r.jpg,audio/lupin.mp3,,,,,,,,,,,,,,,,,,,,,,,,,,,,,,,,,,,,,,1,0,6,1,1,ルピン,,,,,,,,,,,,,,,,,,,,,,,,,,
,,,,,,,,,R_OexgaNi8xz4AXPX,2022-07-03_14h27.55.707,jpn_C01,2022.1.2,Win32,60.14675809,,,,,,,,,,,,,,,,,,,,,,,,,,,,,,,,,,,,,,,,,,,,シド,right,3.2554,0,0,0,0,1,,,,,,,,,,,,,,,,,,,,,,,,,,,,,,,,
,,,,,,,,,R_OexgaNi8xz4AXPX,2022-07-03_14h27.55.707,jpn_C01,2022.1.2,Win32,60.14675809,,,,,,,,,,,,,CartoonStims/artist_r.jpg,audio/sido.mp3,,,,,,,,,,,,,,,,,,,,,,,,,,,,,,,,,,,,,,1,1,7,0,1,シド,,,,,,,,,,,,,,,,,,,,,,,,,,
,,,,,,,,,R_OexgaNi8xz4AXPX,2022-07-03_14h27.55.707,jpn_C01,2022.1.2,Win32,60.14675809,,,,,,,,,,,,,,,,,,,,,,,,,,,,,,,,,,,,,,,,,,,,ピポ,right,16.301,0,0,0,0,1,,,,,,,,,,,,,,,,,,,,,,,,,,,,,,,,
,,,,,,,,,R_OexgaNi8xz4AXPX,2022-07-03_14h27.55.707,jpn_C01,2022.1.2,Win32,60.14675809,,,,,,,,,,,,,CartoonStims/doctor_r.jpg,audio/pipo.mp3,,,,,,,,,,,,,,,,,,,,,,,,,,,,,,,,,,,,,,1,2,8,4,1,ピポ,,,,,,,,,,,,,,,,,,,,,,,,,,
,,,,,,,,,R_OexgaNi8xz4AXPX,2022-07-03_14h27.55.707,jpn_C01,2022.1.2,Win32,60.14675809,,,,,,,,,,,,,,,,,,,,,,,,,,,,,,,,,,,,,,,,,,,,ムク,right,3.8051,0,0,0,0,1,,,,,,,,,,,,,,,,,,,,,,,,,,,,,,,,
,,,,,,,,,R_OexgaNi8xz4AXPX,2022-07-03_14h27.55.707,jpn_C01,2022.1.2,Win32,60.14675809,,,,,,,,,,,,,CartoonStims/cowboy_r.jpg,audio/muku.mp3,,,,,,,,,,,,,,,,,,,,,,,,,,,,,,,,,,,,,,1,3,9,3,1,ムク,,,,,,,,,,,,,,,,,,,,,,,,,,
,,,,,,,,,R_OexgaNi8xz4AXPX,2022-07-03_14h27.55.707,jpn_C01,2022.1.2,Win32,60.14675809,,,,,,,,,,,,,,,,,,,,,,,,,,,,,,,,,,,,,,,,,,,,ホレト,right,4.2064,0,0,0,0,1,,,,,,,,,,,,,,,,,,,,,,,,,,,,,,,,
,,,,,,,,,R_OexgaNi8xz4AXPX,2022-07-03_14h27.55.707,jpn_C01,2022.1.2,Win32,60.14675809,,,,,,,,,,,,,CartoonStims/chef_r.jpg,audio/horeto.mp3,,,,,,,,,,,,,,,,,,,,,,,,,,,,,,,,,,,,,,1,4,10,2,1,ホレト,,,,,,,,,,,,,,,,,,,,,,,,,,
,,,,,,,,,R_OexgaNi8xz4AXPX,2022-07-03_14h27.55.707,jpn_C01,2022.1.2,Win32,60.14675809,,,,,,,,,,,,,,,,,,,,,,,,,,,,,,,,,,,,,,,,,,,,ドキ,right,2.308,0,0,0,0,1,,,,,,,,,,,,,,,,,,,,,,,,,,,,,,,,
,,,,,,,,,R_OexgaNi8xz4AXPX,2022-07-03_14h27.55.707,jpn_C01,2022.1.2,Win32,60.14675809,,,,,,,,,,,,,CartoonStims/boxer_r.jpg,audio/doki.mp3,,,,,,,,,,,,,,,,,,,,,,,,,,,,,,,,,,,,,,1,5,11,5,1,ドキ,,,,,,,,,,,,,,,,,,,,,,,,,,
,,,,,,,,,R_OexgaNi8xz4AXPX,2022-07-03_14h27.55.707,jpn_C01,2022.1.2,Win32,60.14675809,,,,,,,,,,,,,,,,,,,,,,,,,,,,,,,,,,,,,,,,,,,,,,,,,,,,,,,,,,,space,1.0188,0,0,0,0,1,NounExposure.xlsx,"最初のトライアルでは、 画像が表示され、 その画像の下に単語が出てきます。 またこの単語の音も聞くことができます。 この音を大きな声で復唱してください。 そしてこの画像がどのような単語を示しているのか, 考えてみてください。 その後、 続きのボタンを押すと次の単語の学習が始まります。

スペースキーを押して、学習を始めましょう。",3,NounFCT.xlsx,ここから語彙のクイズが始まります。スクリーンに表示される単語に合う画像をキーボードの右と左の矢印キーを使って選択してください。,NounTest.xlsx,2,次に、これまで学習してきたことをアウトプットしていただきます。 表示される画像を描写していると思う単語を、テキストボックスにタイプしてください。,1,"ここまでが最初のトライアルです。ここで休憩をとっても構いません。

休憩が済みましたら、スペースキーを押して続きを始めましょう。",,,,,,,,
,,,,,,,,,R_OexgaNi8xz4AXPX,2022-07-03_14h27.55.707,jpn_C01,2022.1.2,Win32,60.14675809,space,2.7435,space,10.2503,0,0,0,20,1,トマ　ピポ　シド,,,CartoonStims/doctor_point_artist_r.jpg,audio/tomapiposido.mp3,,,,,,,,,,,,,,,,,,,,,,,,,,,,,,,,,,,,,,,,,,,,,,,,,,,,,,,,,,,,,,,,,,,,,
,,,,,,,,,R_OexgaNi8xz4AXPX,2022-07-03_14h27.55.707,jpn_C01,2022.1.2,Win32,60.14675809,,,space,6.9746,0,1,1,27,1,パツ　ルピン　ドキ,,,CartoonStims/burglar_shoot_boxer_r.jpg,audio/patsulupindoki.mp3,,,,,,,,,,,,,,,,,,,,,,,,,,,,,,,,,,,,,,,,,,,,,,,,,,,,,,,,,,,,,,,,,,,,,
,,,,,,,,,R_OexgaNi8xz4AXPX,2022-07-03_14h27.55.707,jpn_C01,2022.1.2,Win32,60.14675809,,,space,6.259,0,2,2,44,1,プミ　ピポ　ホレト,,,CartoonStims/doctor_punch_chef_r.jpg,audio/pumipipohoreto.mp3,,,,,,,,,,,,,,,,,,,,,,,,,,,,,,,,,,,,,,,,,,,,,,,,,,,,,,,,,,,,,,,,,,,,,
,,,,,,,,,R_OexgaNi8xz4AXPX,2022-07-03_14h27.55.707,jpn_C01,2022.1.2,Win32,60.14675809,,,space,6.9374,0,3,3,30,1,パツ　ムク　シド,,,CartoonStims/cowboy_shoot_artist_r.jpg,audio/patsumukusido.mp3,,,,,,,,,,,,,,,,,,,,,,,,,,,,,,,,,,,,,,,,,,,,,,,,,,,,,,,,,,,,,,,,,,,,,
,,,,,,,,,R_OexgaNi8xz4AXPX,2022-07-03_14h27.55.707,jpn_C01,2022.1.2,Win32,60.14675809,,,space,1.8898,0,4,4,35,1,パツ　ドキ　ムク,,,CartoonStims/boxer_shoot_cowboy_r.jpg,audio/patsudokimuku.mp3,,,,,,,,,,,,,,,,,,,,,,,,,,,,,,,,,,,,,,,,,,,,,,,,,,,,,,,,,,,,,,,,,,,,,
,,,,,,,,,R_OexgaNi8xz4AXPX,2022-07-03_14h27.55.707,jpn_C01,2022.1.2,Win32,60.14675809,,,space,5.4013,0,5,5,41,1,プミ　ホレト　ルピン,,,CartoonStims/chef_punch_burglar_r.jpg,audio/pumihoretolupin.mp3,,,,,,,,,,,,,,,,,,,,,,,,,,,,,,,,,,,,,,,,,,,,,,,,,,,,,,,,,,,,,,,,,,,,,
,,,,,,,,,R_OexgaNi8xz4AXPX,2022-07-03_14h27.55.707,jpn_C01,2022.1.2,Win32,60.14675809,,,space,6.4341,0,6,6,40,1,プミ　ホレト　シド,,,CartoonStims/chef_punch_artist_r.jpg,audio/pumihoretosido.mp3,,,,,,,,,,,,,,,,,,,,,,,,,,,,,,,,,,,,,,,,,,,,,,,,,,,,,,,,,,,,,,,,,,,,,
,,,,,,,,,R_OexgaNi8xz4AXPX,2022-07-03_14h27.55.707,jpn_C01,2022.1.2,Win32,60.14675809,,,space,7.174,0,7,7,13,1,トマ　シド　ムク,,,CartoonStims/artist_point_cowboy_r.jpg,audio/tomasidomuku.mp3,,,,,,,,,,,,,,,,,,,,,,,,,,,,,,,,,,,,,,,,,,,,,,,,,,,,,,,,,,,,,,,,,,,,,
,,,,,,,,,R_OexgaNi8xz4AXPX,2022-07-03_14h27.55.707,jpn_C01,2022.1.2,Win32,60.14675809,,,space,6.5198,0,8,8,33,1,パツ　ピポ　ホレト,,,CartoonStims/doctor_shoot_chef_r.jpg,audio/patsupipohoreto.mp3,,,,,,,,,,,,,,,,,,,,,,,,,,,,,,,,,,,,,,,,,,,,,,,,,,,,,,,,,,,,,,,,,,,,,
,,,,,,,,,R_OexgaNi8xz4AXPX,2022-07-03_14h27.55.707,jpn_C01,2022.1.2,Win32,60.14675809,,,space,5.129,0,9,9,47,1,プミ　ドキ　ピポ,,,CartoonStims/boxer_punch_doctor_r.jpg,audio/pumidokipipo.mp3,,,,,,,,,,,,,,,,,,,,,,,,,,,,,,,,,,,,,,,,,,,,,,,,,,,,,,,,,,,,,,,,,,,,,
,,,,,,,,,R_OexgaNi8xz4AXPX,2022-07-03_14h27.55.707,jpn_C01,2022.1.2,Win32,60.14675809,,,space,4.7166,0,10,10,32,1,パツ　ピポ　ルピン,,,CartoonStims/doctor_shoot_burglar_r.jpg,audio/patsupipolupin.mp3,,,,,,,,,,,,,,,,,,,,,,,,,,,,,,,,,,,,,,,,,,,,,,,,,,,,,,,,,,,,,,,,,,,,,
,,,,,,,,,R_OexgaNi8xz4AXPX,2022-07-03_14h27.55.707,jpn_C01,2022.1.2,Win32,60.14675809,,,space,4.112,0,11,11,28,1,パツ　ホレト　ドキ,,,CartoonStims/chef_shoot_boxer_r.jpg,audio/patsuhoretodoki.mp3,,,,,,,,,,,,,,,,,,,,,,,,,,,,,,,,,,,,,,,,,,,,,,,,,,,,,,,,,,,,,,,,,,,,,
,,,,,,,,,R_OexgaNi8xz4AXPX,2022-07-03_14h27.55.707,jpn_C01,2022.1.2,Win32,60.14675809,,,space,5.6018,0,12,12,36,1,プミ　シド　ピポ,,,CartoonStims/artist_punch_doctor_r.jpg,audio/pumisidopipo.mp3,,,,,,,,,,,,,,,,,,,,,,,,,,,,,,,,,,,,,,,,,,,,,,,,,,,,,,,,,,,,,,,,,,,,,
,,,,,,,,,R_OexgaNi8xz4AXPX,2022-07-03_14h27.55.707,jpn_C01,2022.1.2,Win32,60.14675809,,,space,5.7817,0,13,13,37,1,プミ　シド　ドキ,,,CartoonStims/artist_punch_boxer_r.jpg,audio/pumisidodoki.mp3,,,,,,,,,,,,,,,,,,,,,,,,,,,,,,,,,,,,,,,,,,,,,,,,,,,,,,,,,,,,,,,,,,,,,
,,,,,,,,,R_OexgaNi8xz4AXPX,2022-07-03_14h27.55.707,jpn_C01,2022.1.2,Win32,60.14675809,,,space,10.2015,0,14,14,6,1,セル　ムク　ピポ,,,CartoonStims/cowboy_kick_doctor_r.jpg,audio/serumukupipo.mp3,,,,,,,,,,,,,,,,,,,,,,,,,,,,,,,,,,,,,,,,,,,,,,,,,,,,,,,,,,,,,,,,,,,,,
,,,,,,,,,R_OexgaNi8xz4AXPX,2022-07-03_14h27.55.707,jpn_C01,2022.1.2,Win32,60.14675809,,,space,2.067,0,15,15,21,1,トマ　ピポ　ルピン,,,CartoonStims/doctor_point_burglar_r.jpg,audio/tomapipolupin.mp3,,,,,,,,,,,,,,,,,,,,,,,,,,,,,,,,,,,,,,,,,,,,,,,,,,,,,,,,,,,,,,,,,,,,,
,,,,,,,,,R_OexgaNi8xz4AXPX,2022-07-03_14h27.55.707,jpn_C01,2022.1.2,Win32,60.14675809,,,space,1.59,0,16,16,25,1,パツ　シド　ピポ,,,CartoonStims/artist_shoot_doctor_r.jpg,audio/patsusidopipo.mp3,,,,,,,,,,,,,,,,,,,,,,,,,,,,,,,,,,,,,,,,,,,,,,,,,,,,,,,,,,,,,,,,,,,,,
,,,,,,,,,R_OexgaNi8xz4AXPX,2022-07-03_14h27.55.707,jpn_C01,2022.1.2,Win32,60.14675809,,,space,4.294,0,17,17,39,1,プミ　ルピン　シド,,,CartoonStims/burglar_punch_artist_r.jpg,audio/pumilupinsido.mp3,,,,,,,,,,,,,,,,,,,,,,,,,,,,,,,,,,,,,,,,,,,,,,,,,,,,,,,,,,,,,,,,,,,,,
,,,,,,,,,R_OexgaNi8xz4AXPX,2022-07-03_14h27.55.707,jpn_C01,2022.1.2,Win32,60.14675809,,,space,2.9903,0,18,18,3,1,セル　ルピン　ムク,,,CartoonStims/burglar_kick_cowboy_r.jpg,audio/serulupinmuku.mp3,,,,,,,,,,,,,,,,,,,,,,,,,,,,,,,,,,,,,,,,,,,,,,,,,,,,,,,,,,,,,,,,,,,,,
,,,,,,,,,R_OexgaNi8xz4AXPX,2022-07-03_14h27.55.707,jpn_C01,2022.1.2,Win32,60.14675809,,,space,2.8607,0,19,19,17,1,トマ　ホレト　ドキ,,,CartoonStims/chef_point_boxer_r.jpg,audio/tomahoretodoki.mp3,,,,,,,,,,,,,,,,,,,,,,,,,,,,,,,,,,,,,,,,,,,,,,,,,,,,,,,,,,,,,,,,,,,,,
,,,,,,,,,R_OexgaNi8xz4AXPX,2022-07-03_14h27.55.707,jpn_C01,2022.1.2,Win32,60.14675809,,,space,4.0202,0,20,20,0,1,セル　シド　ルピン,,,CartoonStims/artist_kick_burglar_r.jpg,audio/serusidolupin.mp3,,,,,,,,,,,,,,,,,,,,,,,,,,,,,,,,,,,,,,,,,,,,,,,,,,,,,,,,,,,,,,,,,,,,,
,,,,,,,,,R_OexgaNi8xz4AXPX,2022-07-03_14h27.55.707,jpn_C01,2022.1.2,Win32,60.14675809,,,space,4.1524,0,21,21,11,1,セル　ドキ　ルピン,,,CartoonStims/boxer_kick_burglar_r.jpg,audio/serudokilupin.mp3,,,,,,,,,,,,,,,,,,,,,,,,,,,,,,,,,,,,,,,,,,,,,,,,,,,,,,,,,,,,,,,,,,,,,
,,,,,,,,,R_OexgaNi8xz4AXPX,2022-07-03_14h27.55.707,jpn_C01,2022.1.2,Win32,60.14675809,,,space,4.2588,0,22,22,42,1,プミ　ムク　ルピン,,,CartoonStims/cowboy_punch_burglar_r.jpg,audio/pumimukulupin.mp3,,,,,,,,,,,,,,,,,,,,,,,,,,,,,,,,,,,,,,,,,,,,,,,,,,,,,,,,,,,,,,,,,,,,,
,,,,,,,,,R_OexgaNi8xz4AXPX,2022-07-03_14h27.55.707,jpn_C01,2022.1.2,Win32,60.14675809,,,space,2.5912,0,23,23,16,1,トマ　ホレト　ピポ,,,CartoonStims/chef_point_doctor_r.jpg,audio/tomahoretopipo.mp3,,,,,,,,,,,,,,,,,,,,,,,,,,,,,,,,,,,,,,,,,,,,,,,,,,,,,,,,,,,,,,,,,,,,,
,,,,,,,,,R_OexgaNi8xz4AXPX,2022-07-03_14h27.55.707,jpn_C01,2022.1.2,Win32,60.14675809,,,space,1.4209,0,24,24,18,1,トマ　ムク　ドキ,,,CartoonStims/cowboy_point_boxer_r.jpg,audio/tomamukudoki.mp3,,,,,,,,,,,,,,,,,,,,,,,,,,,,,,,,,,,,,,,,,,,,,,,,,,,,,,,,,,,,,,,,,,,,,
,,,,,,,,,R_OexgaNi8xz4AXPX,2022-07-03_14h27.55.707,jpn_C01,2022.1.2,Win32,60.14675809,,,space,5.4188,0,25,25,15,1,トマ　ルピン　ピポ,,,CartoonStims/burglar_point_doctor_r.jpg,audio/tomalupinpipo.mp3,,,,,,,,,,,,,,,,,,,,,,,,,,,,,,,,,,,,,,,,,,,,,,,,,,,,,,,,,,,,,,,,,,,,,
,,,,,,,,,R_OexgaNi8xz4AXPX,2022-07-03_14h27.55.707,jpn_C01,2022.1.2,Win32,60.14675809,,,space,1.9882,0,26,26,8,1,セル　ピポ　ドキ,,,CartoonStims/doctor_kick_boxer_r.jpg,audio/serupipodoki.mp3,,,,,,,,,,,,,,,,,,,,,,,,,,,,,,,,,,,,,,,,,,,,,,,,,,,,,,,,,,,,,,,,,,,,,
,,,,,,,,,R_OexgaNi8xz4AXPX,2022-07-03_14h27.55.707,jpn_C01,2022.1.2,Win32,60.14675809,,,space,1.7005,0,27,27,26,1,パツ　ルピン　ピポ,,,CartoonStims/burglar_shoot_doctor_r.jpg,audio/patsulupinpipo.mp3,,,,,,,,,,,,,,,,,,,,,,,,,,,,,,,,,,,,,,,,,,,,,,,,,,,,,,,,,,,,,,,,,,,,,
,,,,,,,,,R_OexgaNi8xz4AXPX,2022-07-03_14h27.55.707,jpn_C01,2022.1.2,Win32,60.14675809,,,space,2.6681,0,28,28,31,1,パツ　ムク　ルピン,,,CartoonStims/cowboy_shoot_burglar_r.jpg,audio/patsumukulupin.mp3,,,,,,,,,,,,,,,,,,,,,,,,,,,,,,,,,,,,,,,,,,,,,,,,,,,,,,,,,,,,,,,,,,,,,
,,,,,,,,,R_OexgaNi8xz4AXPX,2022-07-03_14h27.55.707,jpn_C01,2022.1.2,Win32,60.14675809,,,space,1.1874,0,29,29,46,1,プミ　ドキ　ムク,,,CartoonStims/boxer_punch_cowboy_r.jpg,audio/pumidokimuku.mp3,,,,,,,,,,,,,,,,,,,,,,,,,,,,,,,,,,,,,,,,,,,,,,,,,,,,,,,,,,,,,,,,,,,,,
,,,,,,,,,R_OexgaNi8xz4AXPX,2022-07-03_14h27.55.707,jpn_C01,2022.1.2,Win32,60.14675809,,,space,2.2507,0,30,30,34,1,パツ　ドキ　ホレト,,,CartoonStims/boxer_shoot_chef_r.jpg,audio/patsudokihoreto.mp3,,,,,,,,,,,,,,,,,,,,,,,,,,,,,,,,,,,,,,,,,,,,,,,,,,,,,,,,,,,,,,,,,,,,,
,,,,,,,,,R_OexgaNi8xz4AXPX,2022-07-03_14h27.55.707,jpn_C01,2022.1.2,Win32,60.14675809,,,space,1.4515,0,31,31,7,1,セル　ムク　ドキ,,,CartoonStims/cowboy_kick_boxer_r.jpg,audio/serumukudoki.mp3,,,,,,,,,,,,,,,,,,,,,,,,,,,,,,,,,,,,,,,,,,,,,,,,,,,,,,,,,,,,,,,,,,,,,
,,,,,,,,,R_OexgaNi8xz4AXPX,2022-07-03_14h27.55.707,jpn_C01,2022.1.2,Win32,60.14675809,,,space,1.8764,0,32,32,12,1,トマ　シド　ホレト,,,CartoonStims/artist_point_chef_r.jpg,audio/tomasidohoreto.mp3,,,,,,,,,,,,,,,,,,,,,,,,,,,,,,,,,,,,,,,,,,,,,,,,,,,,,,,,,,,,,,,,,,,,,
,,,,,,,,,R_OexgaNi8xz4AXPX,2022-07-03_14h27.55.707,jpn_C01,2022.1.2,Win32,60.14675809,,,space,4.5849,0,33,33,10,1,セル　ドキ　シド,,,CartoonStims/boxer_kick_artist_r.jpg,audio/serudokisido.mp3,,,,,,,,,,,,,,,,,,,,,,,,,,,,,,,,,,,,,,,,,,,,,,,,,,,,,,,,,,,,,,,,,,,,,
,,,,,,,,,R_OexgaNi8xz4AXPX,2022-07-03_14h27.55.707,jpn_C01,2022.1.2,Win32,60.14675809,,,space,1.4174,0,34,34,38,1,プミ　ルピン　ドキ,,,CartoonStims/burglar_punch_boxer_r.jpg,audio/pumilupindoki.mp3,,,,,,,,,,,,,,,,,,,,,,,,,,,,,,,,,,,,,,,,,,,,,,,,,,,,,,,,,,,,,,,,,,,,,
,,,,,,,,,R_OexgaNi8xz4AXPX,2022-07-03_14h27.55.707,jpn_C01,2022.1.2,Win32,60.14675809,,,space,1.2013,0,35,35,14,1,トマ　ルピン　ムク,,,CartoonStims/burglar_point_cowboy_r.jpg,audio/tomalupinmuku.mp3,,,,,,,,,,,,,,,,,,,,,,,,,,,,,,,,,,,,,,,,,,,,,,,,,,,,,,,,,,,,,,,,,,,,,
,,,,,,,,,R_OexgaNi8xz4AXPX,2022-07-03_14h27.55.707,jpn_C01,2022.1.2,Win32,60.14675809,,,space,1.153,0,36,36,1,1,セル 　シド 　ホレト,,,CartoonStims/artist_kick_chef_r.jpg,audio/serusidohoreto.mp3,,,,,,,,,,,,,,,,,,,,,,,,,,,,,,,,,,,,,,,,,,,,,,,,,,,,,,,,,,,,,,,,,,,,,
,,,,,,,,,R_OexgaNi8xz4AXPX,2022-07-03_14h27.55.707,jpn_C01,2022.1.2,Win32,60.14675809,,,space,2.1017,0,37,37,29,1,パツ　ホレト　シド,,,CartoonStims/chef_shoot_artist_r.jpg,audio/patsuhoretosido.mp3,,,,,,,,,,,,,,,,,,,,,,,,,,,,,,,,,,,,,,,,,,,,,,,,,,,,,,,,,,,,,,,,,,,,,
,,,,,,,,,R_OexgaNi8xz4AXPX,2022-07-03_14h27.55.707,jpn_C01,2022.1.2,Win32,60.14675809,,,space,1.4085,0,38,38,22,1,トマ　ドキ　ルピン,,,CartoonStims/boxer_point_burglar_r.jpg,audio/tomadokilupin.mp3,,,,,,,,,,,,,,,,,,,,,,,,,,,,,,,,,,,,,,,,,,,,,,,,,,,,,,,,,,,,,,,,,,,,,
,,,,,,,,,R_OexgaNi8xz4AXPX,2022-07-03_14h27.55.707,jpn_C01,2022.1.2,Win32,60.14675809,,,space,2.2537,0,39,39,43,1,プミ　ムク　ホレト,,,CartoonStims/cowboy_punch_chef_r.jpg,audio/pumimukuhoreto.mp3,,,,,,,,,,,,,,,,,,,,,,,,,,,,,,,,,,,,,,,,,,,,,,,,,,,,,,,,,,,,,,,,,,,,,
,,,,,,,,,R_OexgaNi8xz4AXPX,2022-07-03_14h27.55.707,jpn_C01,2022.1.2,Win32,60.14675809,,,space,5.8544,0,40,40,19,1,トマ　ムク　シド,,,CartoonStims/cowboy_point_artist_r.jpg,audio/tomamukusido.mp3,,,,,,,,,,,,,,,,,,,,,,,,,,,,,,,,,,,,,,,,,,,,,,,,,,,,,,,,,,,,,,,,,,,,,
,,,,,,,,,R_OexgaNi8xz4AXPX,2022-07-03_14h27.55.707,jpn_C01,2022.1.2,Win32,60.14675809,,,space,3.52,0,41,41,5,1,セル　ホレト　ピポ,,,CartoonStims/chef_kick_doctor_r.jpg,audio/seruhoretopipo.mp3,,,,,,,,,,,,,,,,,,,,,,,,,,,,,,,,,,,,,,,,,,,,,,,,,,,,,,,,,,,,,,,,,,,,,
,,,,,,,,,R_OexgaNi8xz4AXPX,2022-07-03_14h27.55.707,jpn_C01,2022.1.2,Win32,60.14675809,,,space,1.2955,0,42,42,23,1,トマ　ドキ　ホレト,,,CartoonStims/boxer_point_chef_r.jpg,audio/tomadokihoreto.mp3,,,,,,,,,,,,,,,,,,,,,,,,,,,,,,,,,,,,,,,,,,,,,,,,,,,,,,,,,,,,,,,,,,,,,
,,,,,,,,,R_OexgaNi8xz4AXPX,2022-07-03_14h27.55.707,jpn_C01,2022.1.2,Win32,60.14675809,,,space,4.2666,0,43,43,24,1,パツ　シド　ムク,,,CartoonStims/artist_shoot_cowboy_r.jpg,audio/patsusidomuku.mp3,,,,,,,,,,,,,,,,,,,,,,,,,,,,,,,,,,,,,,,,,,,,,,,,,,,,,,,,,,,,,,,,,,,,,
,,,,,,,,,R_OexgaNi8xz4AXPX,2022-07-03_14h27.55.707,jpn_C01,2022.1.2,Win32,60.14675809,,,space,2.1635,0,44,44,45,1,プミ　ピポ　ムク,,,CartoonStims/doctor_punch_cowboy_r.jpg,audio/pumipipomuku.mp3,,,,,,,,,,,,,,,,,,,,,,,,,,,,,,,,,,,,,,,,,,,,,,,,,,,,,,,,,,,,,,,,,,,,,
,,,,,,,,,R_OexgaNi8xz4AXPX,2022-07-03_14h27.55.707,jpn_C01,2022.1.2,Win32,60.14675809,,,space,1.3699,0,45,45,2,1,セル 　ルピン 　ホレト,,,CartoonStims/burglar_kick_chef_r.jpg,audio/serulupinhoreto.mp3,,,,,,,,,,,,,,,,,,,,,,,,,,,,,,,,,,,,,,,,,,,,,,,,,,,,,,,,,,,,,,,,,,,,,
,,,,,,,,,R_OexgaNi8xz4AXPX,2022-07-03_14h27.55.707,jpn_C01,2022.1.2,Win32,60.14675809,,,space,2.6531,0,46,46,9,1,セル　ピポ　シド,,,CartoonStims/doctor_kick_artist_r.jpg,audio/serupiposido.mp3,,,,,,,,,,,,,,,,,,,,,,,,,,,,,,,,,,,,,,,,,,,,,,,,,,,,,,,,,,,,,,,,,,,,,
,,,,,,,,,R_OexgaNi8xz4AXPX,2022-07-03_14h27.55.707,jpn_C01,2022.1.2,Win32,60.14675809,,,space,2.2267,0,47,47,4,1,セル　ホレト　ムク,,,CartoonStims/chef_kick_cowboy_r.jpg,audio/seruhoretomuku.mp3,,,,,,,,,,,,,,,,,,,,,,,,,,,,,,,,,,,,,,,,,,,,,,,,,,,,,,,,,,,,,,,,,,,,,
,,,,,,,,,R_OexgaNi8xz4AXPX,2022-07-03_14h27.55.707,jpn_C01,2022.1.2,Win32,60.14675809,,,,,,,,,,,,,,,space,0.7048,right,1,6.0076,,,,,,,,,,,,,,,,,,0,0,0,0,1,,,,,,,,,,,,,,,,,,,,,,,,,,,,,,,,,,,,,,,,,,
,,,,,,,,,R_OexgaNi8xz4AXPX,2022-07-03_14h27.55.707,jpn_C01,2022.1.2,Win32,60.14675809,,,,,,,,,,,,,,,,,,,,,,,,,0,0,0,11,1,CartoonStims/burglar_punch_cowboy_r.jpg,プミ　ホレト　ムク,CartoonStims/chef_punch_cowboy_r.jpg,right,CartoonStims/chef_punch_cowboy_r.jpg,audio/pumihoretomuku.mp3,残念！ こちらが正しい画像です。,,,,,,,,,,,,,,,,,,,,,,,,,,,,,,,,,,,,,,,,,,,,,,,
,,,,,,,,,R_OexgaNi8xz4AXPX,2022-07-03_14h27.55.707,jpn_C01,2022.1.2,Win32,60.14675809,,,,,,,,,,,,,,,,,left,1,3.0993,0,0,0,0,1,,,,,,,,,,,,,,,,,,,,,,,,,,,,,,,,,,,,,,,,,,,,,,,,,,,,,,,,,,,
,,,,,,,,,R_OexgaNi8xz4AXPX,2022-07-03_14h27.55.707,jpn_C01,2022.1.2,Win32,60.14675809,,,,,,,,,,,,,,,,,,,,,,,,,0,1,1,2,1,CartoonStims/boxer_shoot_doctor_r.jpg,パツ　ドキ　ピポ,CartoonStims/boxer_shoot_artist_r.jpg,left,CartoonStims/boxer_shoot_doctor_r.jpg,audio/patsudokipipo.mp3,残念！ こちらが正しい画像です。,,,,,,,,,,,,,,,,,,,,,,,,,,,,,,,,,,,,,,,,,,,,,,,
,,,,,,,,,R_OexgaNi8xz4AXPX,2022-07-03_14h27.55.707,jpn_C01,2022.1.2,Win32,60.14675809,,,,,,,,,,,,,,,,,left,1,4.483,0,0,0,0,1,,,,,,,,,,,,,,,,,,,,,,,,,,,,,,,,,,,,,,,,,,,,,,,,,,,,,,,,,,,
,,,,,,,,,R_OexgaNi8xz4AXPX,2022-07-03_14h27.55.707,jpn_C01,2022.1.2,Win32,60.14675809,,,,,,,,,,,,,,,,,,,,,,,,,0,2,2,8,1,CartoonStims/doctor_point_cowboy_r.jpg,トマ　ピポ　ムク,CartoonStims/boxer_point_cowboy_r.jpg,left,CartoonStims/doctor_point_cowboy_r.jpg,audio/tomapipomuku.mp3,残念！ こちらが正しい画像です。,,,,,,,,,,,,,,,,,,,,,,,,,,,,,,,,,,,,,,,,,,,,,,,
,,,,,,,,,R_OexgaNi8xz4AXPX,2022-07-03_14h27.55.707,jpn_C01,2022.1.2,Win32,60.14675809,,,,,,,,,,,,,,,,,right,1,6.0984,,,,,,,,,,,,,,,,,,0,0,0,0,1,,,,,,,,,,,,,,,,,,,,,,,,,,,,,,,,,,,,,,,,,,
,,,,,,,,,R_OexgaNi8xz4AXPX,2022-07-03_14h27.55.707,jpn_C01,2022.1.2,Win32,60.14675809,,,,,,,,,,,,,,,,,,,,,,,,,0,3,3,5,1,CartoonStims/cowboy_point_chef_r.jpg,パツ　ムク　ホレト,CartoonStims/cowboy_shoot_chef_r.jpg,right,CartoonStims/cowboy_shoot_chef_r.jpg,audio/patsumukuhoreto.mp3,残念！ こちらが正しい画像です。,,,,,,,,,,,,,,,,,,,,,,,,,,,,,,,,,,,,,,,,,,,,,,,
,,,,,,,,,R_OexgaNi8xz4AXPX,2022-07-03_14h27.55.707,jpn_C01,2022.1.2,Win32,60.14675809,,,,,,,,,,,,,,,,,left,1,1.4519,0,0,0,0,1,,,,,,,,,,,,,,,,,,,,,,,,,,,,,,,,,,,,,,,,,,,,,,,,,,,,,,,,,,,
,,,,,,,,,R_OexgaNi8xz4AXPX,2022-07-03_14h27.55.707,jpn_C01,2022.1.2,Win32,60.14675809,,,,,,,,,,,,,,,,,,,,,,,,,0,4,4,6,1,CartoonStims/doctor_punch_boxer_r.jpg,プミ　ピポ　ドキ,CartoonStims/doctor_shoot_boxer_r.jpg,left,CartoonStims/doctor_punch_boxer_r.jpg,audio/pumipipodoki.mp3,残念！ こちらが正しい画像です。,,,,,,,,,,,,,,,,,,,,,,,,,,,,,,,,,,,,,,,,,,,,,,,
,,,,,,,,,R_OexgaNi8xz4AXPX,2022-07-03_14h27.55.707,jpn_C01,2022.1.2,Win32,60.14675809,,,,,,,,,,,,,,,,,left,1,3.1881,0,0,0,0,1,,,,,,,,,,,,,,,,,,,,,,,,,,,,,,,,,,,,,,,,,,,,,,,,,,,,,,,,,,,
,,,,,,,,,R_OexgaNi8xz4AXPX,2022-07-03_14h27.55.707,jpn_C01,2022.1.2,Win32,60.14675809,,,,,,,,,,,,,,,,,,,,,,,,,0,5,5,10,1,CartoonStims/artist_shoot_burglar_r.jpg,パツ　シド　ルピン,CartoonStims/chef_shoot_burglar_r.jpg,left,CartoonStims/artist_shoot_burglar_r.jpg,audio/patsusidolupin.mp3,残念！ こちらが正しい画像です。,,,,,,,,,,,,,,,,,,,,,,,,,,,,,,,,,,,,,,,,,,,,,,,
,,,,,,,,,R_OexgaNi8xz4AXPX,2022-07-03_14h27.55.707,jpn_C01,2022.1.2,Win32,60.14675809,,,,,,,,,,,,,,,,,right,1,3.804,,,,,,,,,,,,,,,,,,0,0,0,0,1,,,,,,,,,,,,,,,,,,,,,,,,,,,,,,,,,,,,,,,,,,
,,,,,,,,,R_OexgaNi8xz4AXPX,2022-07-03_14h27.55.707,jpn_C01,2022.1.2,Win32,60.14675809,,,,,,,,,,,,,,,,,,,,,,,,,0,6,6,9,1,CartoonStims/chef_kick_artist_r.jpg,セル　ムク　シド,CartoonStims/cowboy_kick_artist_r.jpg,right,CartoonStims/cowboy_kick_artist_r.jpg,audio/serumukusido.mp3,残念！ こちらが正しい画像です。,,,,,,,,,,,,,,,,,,,,,,,,,,,,,,,,,,,,,,,,,,,,,,,
,,,,,,,,,R_OexgaNi8xz4AXPX,2022-07-03_14h27.55.707,jpn_C01,2022.1.2,Win32,60.14675809,,,,,,,,,,,,,,,,,left,1,6.2339,0,0,0,0,1,,,,,,,,,,,,,,,,,,,,,,,,,,,,,,,,,,,,,,,,,,,,,,,,,,,,,,,,,,,
,,,,,,,,,R_OexgaNi8xz4AXPX,2022-07-03_14h27.55.707,jpn_C01,2022.1.2,Win32,60.14675809,,,,,,,,,,,,,,,,,,,,,,,,,0,7,7,0,1,CartoonStims/doctor_kick_burglar_r.jpg,セル　ピポ　ルピン,CartoonStims/doctor_kick_chef_r.jpg,left,CartoonStims/doctor_kick_burglar_r.jpg,audio/serupipolupin.mp3,残念！ こちらが正しい画像です。,,,,,,,,,,,,,,,,,,,,,,,,,,,,,,,,,,,,,,,,,,,,,,,
,,,,,,,,,R_OexgaNi8xz4AXPX,2022-07-03_14h27.55.707,jpn_C01,2022.1.2,Win32,60.14675809,,,,,,,,,,,,,,,,,left,1,2.0557,0,0,0,0,1,,,,,,,,,,,,,,,,,,,,,,,,,,,,,,,,,,,,,,,,,,,,,,,,,,,,,,,,,,,
,,,,,,,,,R_OexgaNi8xz4AXPX,2022-07-03_14h27.55.707,jpn_C01,2022.1.2,Win32,60.14675809,,,,,,,,,,,,,,,,,,,,,,,,,0,8,8,4,1,CartoonStims/burglar_point_boxer_r.jpg,トマ　ルピン　ドキ,CartoonStims/burglar_kick_boxer_r.jpg,left,CartoonStims/burglar_point_boxer_r.jpg,audio/tomalupindoki.mp3,残念！ こちらが正しい画像です。,,,,,,,,,,,,,,,,,,,,,,,,,,,,,,,,,,,,,,,,,,,,,,,
,,,,,,,,,R_OexgaNi8xz4AXPX,2022-07-03_14h27.55.707,jpn_C01,2022.1.2,Win32,60.14675809,,,,,,,,,,,,,,,,,right,1,2.3579,,,,,,,,,,,,,,,,,,0,0,0,0,1,,,,,,,,,,,,,,,,,,,,,,,,,,,,,,,,,,,,,,,,,,
,,,,,,,,,R_OexgaNi8xz4AXPX,2022-07-03_14h27.55.707,jpn_C01,2022.1.2,Win32,60.14675809,,,,,,,,,,,,,,,,,,,,,,,,,0,9,9,3,1,CartoonStims/cowboy_punch_doctor_r.jpg,プミ　ムク　ドキ,CartoonStims/cowboy_punch_boxer_r.jpg,right,CartoonStims/cowboy_punch_boxer_r.jpg,audio/pumimukudoki.mp3,残念！ こちらが正しい画像です。,,,,,,,,,,,,,,,,,,,,,,,,,,,,,,,,,,,,,,,,,,,,,,,
,,,,,,,,,R_OexgaNi8xz4AXPX,2022-07-03_14h27.55.707,jpn_C01,2022.1.2,Win32,60.14675809,,,,,,,,,,,,,,,,,right,1,3.0931,,,,,,,,,,,,,,,,,,0,0,0,0,1,,,,,,,,,,,,,,,,,,,,,,,,,,,,,,,,,,,,,,,,,,
,,,,,,,,,R_OexgaNi8xz4AXPX,2022-07-03_14h27.55.707,jpn_C01,2022.1.2,Win32,60.14675809,,,,,,,,,,,,,,,,,,,,,,,,,0,10,10,7,1,CartoonStims/artist_punch_cowboy_r.jpg,セル　シド　ムク,CartoonStims/artist_kick_cowboy_r.jpg,right,CartoonStims/artist_kick_cowboy_r.jpg,audio/serusidomuku.mp3,残念！ こちらが正しい画像です。,,,,,,,,,,,,,,,,,,,,,,,,,,,,,,,,,,,,,,,,,,,,,,,
,,,,,,,,,R_OexgaNi8xz4AXPX,2022-07-03_14h27.55.707,jpn_C01,2022.1.2,Win32,60.14675809,,,,,,,,,,,,,,,,,right,1,2.3685,,,,,,,,,,,,,,,,,,0,0,0,0,1,,,,,,,,,,,,,,,,,,,,,,,,,,,,,,,,,,,,,,,,,,
,,,,,,,,,R_OexgaNi8xz4AXPX,2022-07-03_14h27.55.707,jpn_C01,2022.1.2,Win32,60.14675809,,,,,,,,,,,,,,,,,,,,,,,,,0,11,11,1,1,CartoonStims/chef_point_burglar_r.jpg,トマ　ホレト　シド,CartoonStims/chef_point_artist_r.jpg,right,CartoonStims/chef_point_artist_r.jpg,audio/tomahoretosido.mp3,残念！ こちらが正しい画像です。,,,,,,,,,,,,,,,,,,,,,,,,,,,,,,,,,,,,,,,,,,,,,,,
,,,,,,,,,R_OexgaNi8xz4AXPX,2022-07-03_14h27.55.707,jpn_C01,2022.1.2,Win32,60.14675809,,,,,,,,,,,,,,,,,,,,,,,,,,,,,,,,,,,,,,,,,,space,4.1202,トマ　ルピン　シド,right,21.4812,0,0,0,0,1,,,,,,,,,,,,,,,,,,,,,,,,,,,,,,,,
,,,,,,,,,R_OexgaNi8xz4AXPX,2022-07-03_14h27.55.707,jpn_C01,2022.1.2,Win32,60.14675809,,,,,,,,,,,,,CartoonStims/burglar_point_artist_r.jpg,audio/tomalupinsido.mp3,,,,,,,,,,,,,,,,,,,,,,,,,,,,,,,,,,,,,,0,0,0,4,1,トマ　ルピン　シド,,,,,,,,,,,,,,,,,,,,,,,,,,
,,,,,,,,,R_OexgaNi8xz4AXPX,2022-07-03_14h27.55.707,jpn_C01,2022.1.2,Win32,60.14675809,,,,,,,,,,,,,,,,,,,,,,,,,,,,,,,,,,,,,,,,,,,,パツ　ルピン　ホレト,right,26.6119,0,0,0,0,1,,,,,,,,,,,,,,,,,,,,,,,,,,,,,,,,
,,,,,,,,,R_OexgaNi8xz4AXPX,2022-07-03_14h27.55.707,jpn_C01,2022.1.2,Win32,60.14675809,,,,,,,,,,,,,CartoonStims/burglar_shoot_chef_r.jpg,audio/patsulupinhoreto.mp3,,,,,,,,,,,,,,,,,,,,,,,,,,,,,,,,,,,,,,0,1,1,6,1,パツ　ルピン　ホレト,,,,,,,,,,,,,,,,,,,,,,,,,,
,,,,,,,,,R_OexgaNi8xz4AXPX,2022-07-03_14h27.55.707,jpn_C01,2022.1.2,Win32,60.14675809,,,,,,,,,,,,,,,,,,,,,,,,,,,,,,,,,,,,,,,,,,,,トマ　シド　ドキ,right,26.9619,0,0,0,0,1,,,,,,,,,,,,,,,,,,,,,,,,,,,,,,,,
,,,,,,,,,R_OexgaNi8xz4AXPX,2022-07-03_14h27.55.707,jpn_C01,2022.1.2,Win32,60.14675809,,,,,,,,,,,,,CartoonStims/artist_point_boxer_r.jpg,audio/tomasidodoki.mp3,,,,,,,,,,,,,,,,,,,,,,,,,,,,,,,,,,,,,,0,2,2,3,1,トマ　シド　ドキ,,,,,,,,,,,,,,,,,,,,,,,,,,
,,,,,,,,,R_OexgaNi8xz4AXPX,2022-07-03_14h27.55.707,jpn_C01,2022.1.2,Win32,60.14675809,,,,,,,,,,,,,,,,,,,,,,,,,,,,,,,,,,,,,,,,,,,,プミ　シド　ルピン,right,22.6448,0,0,0,0,1,,,,,,,,,,,,,,,,,,,,,,,,,,,,,,,,
,,,,,,,,,R_OexgaNi8xz4AXPX,2022-07-03_14h27.55.707,jpn_C01,2022.1.2,Win32,60.14675809,,,,,,,,,,,,,CartoonStims/artist_punch_burglar_r.jpg,audio/pumisidolupin.mp3,,,,,,,,,,,,,,,,,,,,,,,,,,,,,,,,,,,,,,0,3,3,9,1,プミ　シド　ルピン,,,,,,,,,,,,,,,,,,,,,,,,,,
,,,,,,,,,R_OexgaNi8xz4AXPX,2022-07-03_14h27.55.707,jpn_C01,2022.1.2,Win32,60.14675809,,,,,,,,,,,,,,,,,,,,,,,,,,,,,,,,,,,,,,,,,,,,パツ　ムク　ピポ,right,13.381,0,0,0,0,1,,,,,,,,,,,,,,,,,,,,,,,,,,,,,,,,
,,,,,,,,,R_OexgaNi8xz4AXPX,2022-07-03_14h27.55.707,jpn_C01,2022.1.2,Win32,60.14675809,,,,,,,,,,,,,CartoonStims/cowboy_shoot_doctor_r.jpg,audio/patsumukupipo.mp3,,,,,,,,,,,,,,,,,,,,,,,,,,,,,,,,,,,,,,0,4,4,8,1,パツ　ムク　ピポ,,,,,,,,,,,,,,,,,,,,,,,,,,
,,,,,,,,,R_OexgaNi8xz4AXPX,2022-07-03_14h27.55.707,jpn_C01,2022.1.2,Win32,60.14675809,,,,,,,,,,,,,,,,,,,,,,,,,,,,,,,,,,,,,,,,,,,,セル　ドキ　ムク,right,9.3859,0,0,0,0,1,,,,,,,,,,,,,,,,,,,,,,,,,,,,,,,,
,,,,,,,,,R_OexgaNi8xz4AXPX,2022-07-03_14h27.55.707,jpn_C01,2022.1.2,Win32,60.14675809,,,,,,,,,,,,,CartoonStims/boxer_kick_cowboy_r.jpg,audio/serudokimuku.mp3,,,,,,,,,,,,,,,,,,,,,,,,,,,,,,,,,,,,,,0,5,5,2,1,セル　ドキ　ムク,,,,,,,,,,,,,,,,,,,,,,,,,,
,,,,,,,,,R_OexgaNi8xz4AXPX,2022-07-03_14h27.55.707,jpn_C01,2022.1.2,Win32,60.14675809,,,,,,,,,,,,,,,,,,,,,,,,,,,,,,,,,,,,,,,,,,,,プミ　ドキ　シド,right,11.0788,0,0,0,0,1,,,,,,,,,,,,,,,,,,,,,,,,,,,,,,,,
,,,,,,,,,R_OexgaNi8xz4AXPX,2022-07-03_14h27.55.707,jpn_C01,2022.1.2,Win32,60.14675809,,,,,,,,,,,,,CartoonStims/boxer_punch_artist_r.jpg,audio/pumidokisido.mp3,,,,,,,,,,,,,,,,,,,,,,,,,,,,,,,,,,,,,,0,6,6,11,1,プミ　ドキ　シド,,,,,,,,,,,,,,,,,,,,,,,,,,
,,,,,,,,,R_OexgaNi8xz4AXPX,2022-07-03_14h27.55.707,jpn_C01,2022.1.2,Win32,60.14675809,,,,,,,,,,,,,,,,,,,,,,,,,,,,,,,,,,,,,,,,,,,,セル　ピポ　ホレト,right,12.0772,0,0,0,0,1,,,,,,,,,,,,,,,,,,,,,,,,,,,,,,,,
,,,,,,,,,R_OexgaNi8xz4AXPX,2022-07-03_14h27.55.707,jpn_C01,2022.1.2,Win32,60.14675809,,,,,,,,,,,,,CartoonStims/doctor_kick_chef_r.jpg,audio/serupipohoreto.mp3,,,,,,,,,,,,,,,,,,,,,,,,,,,,,,,,,,,,,,0,7,7,1,1,セル　ピポ　ホレト,,,,,,,,,,,,,,,,,,,,,,,,,,
,,,,,,,,,R_OexgaNi8xz4AXPX,2022-07-03_14h27.55.707,jpn_C01,2022.1.2,Win32,60.14675809,,,,,,,,,,,,,,,,,,,,,,,,,,,,,,,,,,,,,,,,,,,,セル　ムク　ルピン,right,21.6296,0,0,0,0,1,,,,,,,,,,,,,,,,,,,,,,,,,,,,,,,,
,,,,,,,,,R_OexgaNi8xz4AXPX,2022-07-03_14h27.55.707,jpn_C01,2022.1.2,Win32,60.14675809,,,,,,,,,,,,,CartoonStims/cowboy_kick_burglar_r.jpg,audio/serumukulupin.mp3,,,,,,,,,,,,,,,,,,,,,,,,,,,,,,,,,,,,,,0,8,8,0,1,セル　ムク　ルピン,,,,,,,,,,,,,,,,,,,,,,,,,,
,,,,,,,,,R_OexgaNi8xz4AXPX,2022-07-03_14h27.55.707,jpn_C01,2022.1.2,Win32,60.14675809,,,,,,,,,,,,,,,,,,,,,,,,,,,,,,,,,,,,,,,,,,,,パツ　ホレト　ムク,right,9.2034,0,0,0,0,1,,,,,,,,,,,,,,,,,,,,,,,,,,,,,,,,
,,,,,,,,,R_OexgaNi8xz4AXPX,2022-07-03_14h27.55.707,jpn_C01,2022.1.2,Win32,60.14675809,,,,,,,,,,,,,CartoonStims/chef_shoot_cowboy_r.jpg,audio/patsuhoretomuku.mp3,,,,,,,,,,,,,,,,,,,,,,,,,,,,,,,,,,,,,,0,9,9,7,1,パツ　ホレト　ムク,,,,,,,,,,,,,,,,,,,,,,,,,,
,,,,,,,,,R_OexgaNi8xz4AXPX,2022-07-03_14h27.55.707,jpn_C01,2022.1.2,Win32,60.14675809,,,,,,,,,,,,,,,,,,,,,,,,,,,,,,,,,,,,,,,,,,,,プミ　ピポ　ドキ,right,10.6632,0,0,0,0,1,,,,,,,,,,,,,,,,,,,,,,,,,,,,,,,,
,,,,,,,,,R_OexgaNi8xz4AXPX,2022-07-03_14h27.55.707,jpn_C01,2022.1.2,Win32,60.14675809,,,,,,,,,,,,,CartoonStims/doctor_punch_boxer_r.jpg,audio/pumipipodoki.mp3,,,,,,,,,,,,,,,,,,,,,,,,,,,,,,,,,,,,,,0,10,10,10,1,プミ　ピポ　ドキ,,,,,,,,,,,,,,,,,,,,,,,,,,
,,,,,,,,,R_OexgaNi8xz4AXPX,2022-07-03_14h27.55.707,jpn_C01,2022.1.2,Win32,60.14675809,,,,,,,,,,,,,,,,,,,,,,,,,,,,,,,,,,,,,,,,,,,,トマ　ホレト　ルピン,right,15.363,0,0,0,0,1,,,,,,,,,,,,,,,,,,,,,,,,,,,,,,,,
,,,,,,,,,R_OexgaNi8xz4AXPX,2022-07-03_14h27.55.707,jpn_C01,2022.1.2,Win32,60.14675809,,,,,,,,,,,,,CartoonStims/chef_point_burglar_r.jpg,audio/tomahoretolupin.mp3,,,,,,,,,,,,,,,,,,,,,,,,,,,,,,,,,,,,,,0,11,11,5,1,トマ　ホレト　ルピン,,,,,,,,,,,,,,,,,,,,,,,,,,
,,,,,,,,,R_OexgaNi8xz4AXPX,2022-07-03_14h27.55.707,jpn_C01,2022.1.2,Win32,60.14675809,,,,,,,,,,,,,,,,,,,,,,,,,,,,,,,,,,,,,,,,,,,,,,,,,,,,,,,,,,,space,0.4677,0,1,1,1,1,AffExposure.xlsx,"第二のトライアルの学習では、この言語で書かれた文を見ていただきます。引き続き注意して、 聞こえた音を復唱してください。


スペースキーを押してください。",1,AffFCT.xlsx,ここからクイズが始まります。 スクリーンに表示されるテキストに合う画像を選んでください。,AffTest.xlsx,1,次にここまで学んだことをアウトプットしていただきます。 表示される画像を描写していると思う単語を、テキストボックスにタイプしてください。 答えを提出したあとに正しい正解が少しの間画面に写ります。,1,"これで第二のトライアルが終了しました。 ここで休憩をとっていただいても構いません。

休憩が終わりましたら、 スペースキーを押して続きの学習を行いましょう。",,,,,,,,
,,,,,,,,,R_OexgaNi8xz4AXPX,2022-07-03_14h27.55.707,jpn_C01,2022.1.2,Win32,60.14675809,space,2.0436,space,2.5223,0,0,0,21,1,ピク　トマ　ピポ　ルピン,,,CartoonStims/doctor_point_burglar_r_no.jpg,audio/pikutomapipolupin.mp3,,,,,,,,,,,,,,,,,,,,,,,,,,,,,,,,,,,,,,,,,,,,,,,,,,,,,,,,,,,,,,,,,,,,,
,,,,,,,,,R_OexgaNi8xz4AXPX,2022-07-03_14h27.55.707,jpn_C01,2022.1.2,Win32,60.14675809,,,space,2.6533,0,1,1,2,1,ピク　セル　ルピン　ホレト,,,CartoonStims/burglar_kick_chef_r_no.jpg,audio/pikuserulupinhoreto.mp3,,,,,,,,,,,,,,,,,,,,,,,,,,,,,,,,,,,,,,,,,,,,,,,,,,,,,,,,,,,,,,,,,,,,,
,,,,,,,,,R_OexgaNi8xz4AXPX,2022-07-03_14h27.55.707,jpn_C01,2022.1.2,Win32,60.14675809,,,space,9.1431,0,2,2,12,1,トマ　ピク　シド　ホレト,,,CartoonStims/artist_point_chef_r_no.jpg,audio/tomapikusidohoreto.mp3,,,,,,,,,,,,,,,,,,,,,,,,,,,,,,,,,,,,,,,,,,,,,,,,,,,,,,,,,,,,,,,,,,,,,
,,,,,,,,,R_OexgaNi8xz4AXPX,2022-07-03_14h27.55.707,jpn_C01,2022.1.2,Win32,60.14675809,,,space,3.8699,0,3,3,36,1,ピク　プミ　シド　ピポ,,,CartoonStims/artist_punch_doctor_r_no.jpg,audio/pikupumisidopipo.mp3,,,,,,,,,,,,,,,,,,,,,,,,,,,,,,,,,,,,,,,,,,,,,,,,,,,,,,,,,,,,,,,,,,,,,
,,,,,,,,,R_OexgaNi8xz4AXPX,2022-07-03_14h27.55.707,jpn_C01,2022.1.2,Win32,60.14675809,,,space,16.4333,0,4,4,32,1,パツ　ピク　ピポ　ルピン,,,CartoonStims/doctor_shoot_burglar_r_no.jpg,audio/patsupikupipolupin.mp3,,,,,,,,,,,,,,,,,,,,,,,,,,,,,,,,,,,,,,,,,,,,,,,,,,,,,,,,,,,,,,,,,,,,,
,,,,,,,,,R_OexgaNi8xz4AXPX,2022-07-03_14h27.55.707,jpn_C01,2022.1.2,Win32,60.14675809,,,space,2.8345,0,5,5,26,1,パツ　ピク　ルピン　ピポ,,,CartoonStims/burglar_shoot_doctor_r_no.jpg,audio/patsupikulupinpipo.mp3,,,,,,,,,,,,,,,,,,,,,,,,,,,,,,,,,,,,,,,,,,,,,,,,,,,,,,,,,,,,,,,,,,,,,
,,,,,,,,,R_OexgaNi8xz4AXPX,2022-07-03_14h27.55.707,jpn_C01,2022.1.2,Win32,60.14675809,,,space,19.0396,0,6,6,31,1,ピク　パツ　ムク　ルピン,,,CartoonStims/cowboy_shoot_burglar_r_no.jpg,audio/pikupatsumukulupin.mp3,,,,,,,,,,,,,,,,,,,,,,,,,,,,,,,,,,,,,,,,,,,,,,,,,,,,,,,,,,,,,,,,,,,,,
,,,,,,,,,R_OexgaNi8xz4AXPX,2022-07-03_14h27.55.707,jpn_C01,2022.1.2,Win32,60.14675809,,,space,6.9035,0,7,7,38,1,ピク　プミ　ルピン　ドキ,,,CartoonStims/burglar_punch_boxer_r_no.jpg,audio/pikupumilupindoki.mp3,,,,,,,,,,,,,,,,,,,,,,,,,,,,,,,,,,,,,,,,,,,,,,,,,,,,,,,,,,,,,,,,,,,,,
,,,,,,,,,R_OexgaNi8xz4AXPX,2022-07-03_14h27.55.707,jpn_C01,2022.1.2,Win32,60.14675809,,,space,2.0885,0,8,8,8,1,ピク　セル　ピポ　ドキ,,,CartoonStims/doctor_kick_boxer_r_no.jpg,audio/pikuserupipodoki.mp3,,,,,,,,,,,,,,,,,,,,,,,,,,,,,,,,,,,,,,,,,,,,,,,,,,,,,,,,,,,,,,,,,,,,,
,,,,,,,,,R_OexgaNi8xz4AXPX,2022-07-03_14h27.55.707,jpn_C01,2022.1.2,Win32,60.14675809,,,space,6.5549,0,9,9,13,1,ピク　トマ　シド　ムク,,,CartoonStims/artist_point_cowboy_r_no.jpg,audio/pikutomasidomuku.mp3,,,,,,,,,,,,,,,,,,,,,,,,,,,,,,,,,,,,,,,,,,,,,,,,,,,,,,,,,,,,,,,,,,,,,
,,,,,,,,,R_OexgaNi8xz4AXPX,2022-07-03_14h27.55.707,jpn_C01,2022.1.2,Win32,60.14675809,,,space,9.4312,0,10,10,16,1,トマ　ピク　ホレト　ピポ,,,CartoonStims/chef_point_doctor_r_no.jpg,audio/tomapikuhoretopipo.mp3,,,,,,,,,,,,,,,,,,,,,,,,,,,,,,,,,,,,,,,,,,,,,,,,,,,,,,,,,,,,,,,,,,,,,
,,,,,,,,,R_OexgaNi8xz4AXPX,2022-07-03_14h27.55.707,jpn_C01,2022.1.2,Win32,60.14675809,,,space,4.3756,0,11,11,17,1,ピク　トマ　ホレト　ドキ,,,CartoonStims/chef_point_boxer_r_no.jpg,audio/pikutomahoretodoki.mp3,,,,,,,,,,,,,,,,,,,,,,,,,,,,,,,,,,,,,,,,,,,,,,,,,,,,,,,,,,,,,,,,,,,,,
,,,,,,,,,R_OexgaNi8xz4AXPX,2022-07-03_14h27.55.707,jpn_C01,2022.1.2,Win32,60.14675809,,,space,2.5549,0,12,12,4,1,ピク　セル　ホレト　ムク,,,CartoonStims/chef_kick_cowboy_r_no.jpg,audio/pikuseruhoretomuku.mp3,,,,,,,,,,,,,,,,,,,,,,,,,,,,,,,,,,,,,,,,,,,,,,,,,,,,,,,,,,,,,,,,,,,,,
,,,,,,,,,R_OexgaNi8xz4AXPX,2022-07-03_14h27.55.707,jpn_C01,2022.1.2,Win32,60.14675809,,,space,11.0569,0,13,13,5,1,セル　ピク　ホレト　ピポ,,,CartoonStims/chef_kick_doctor_r_no.jpg,audio/serupikuhoretopipo.mp3,,,,,,,,,,,,,,,,,,,,,,,,,,,,,,,,,,,,,,,,,,,,,,,,,,,,,,,,,,,,,,,,,,,,,
,,,,,,,,,R_OexgaNi8xz4AXPX,2022-07-03_14h27.55.707,jpn_C01,2022.1.2,Win32,60.14675809,,,space,3.7166,0,14,14,15,1,ピク　トマ　ルピン　ピポ,,,CartoonStims/burglar_point_doctor_r_no.jpg,audio/pikutomalupinpipo.mp3,,,,,,,,,,,,,,,,,,,,,,,,,,,,,,,,,,,,,,,,,,,,,,,,,,,,,,,,,,,,,,,,,,,,,
,,,,,,,,,R_OexgaNi8xz4AXPX,2022-07-03_14h27.55.707,jpn_C01,2022.1.2,Win32,60.14675809,,,space,2.2786,0,15,15,11,1,セル　ピク　ドキ　ルピン,,,CartoonStims/boxer_kick_burglar_r_no.jpg,audio/serupikudokilupin.mp3,,,,,,,,,,,,,,,,,,,,,,,,,,,,,,,,,,,,,,,,,,,,,,,,,,,,,,,,,,,,,,,,,,,,,
,,,,,,,,,R_OexgaNi8xz4AXPX,2022-07-03_14h27.55.707,jpn_C01,2022.1.2,Win32,60.14675809,,,space,3.8772,0,16,16,40,1,ピク　プミ　ホレト　シド,,,CartoonStims/chef_punch_artist_r_no.jpg,audio/pikupumihoretosido.mp3,,,,,,,,,,,,,,,,,,,,,,,,,,,,,,,,,,,,,,,,,,,,,,,,,,,,,,,,,,,,,,,,,,,,,
,,,,,,,,,R_OexgaNi8xz4AXPX,2022-07-03_14h27.55.707,jpn_C01,2022.1.2,Win32,60.14675809,,,space,7.8749,0,17,17,43,1,プミ　ピク　ムク　ホレト,,,CartoonStims/cowboy_punch_chef_r_no.jpg,audio/pumipikumukuhoreto.mp3,,,,,,,,,,,,,,,,,,,,,,,,,,,,,,,,,,,,,,,,,,,,,,,,,,,,,,,,,,,,,,,,,,,,,
,,,,,,,,,R_OexgaNi8xz4AXPX,2022-07-03_14h27.55.707,jpn_C01,2022.1.2,Win32,60.14675809,,,space,2.401,0,18,18,27,1,ピク　パツ　ルピン　ドキ,,,CartoonStims/burglar_shoot_boxer_r_no.jpg,audio/pikupatsulupindoki.mp3,,,,,,,,,,,,,,,,,,,,,,,,,,,,,,,,,,,,,,,,,,,,,,,,,,,,,,,,,,,,,,,,,,,,,
,,,,,,,,,R_OexgaNi8xz4AXPX,2022-07-03_14h27.55.707,jpn_C01,2022.1.2,Win32,60.14675809,,,space,4.5,0,19,19,19,1,ピク　トマ　ムク　シド,,,CartoonStims/cowboy_point_artist_r_no.jpg,audio/pikutomamukusido.mp3,,,,,,,,,,,,,,,,,,,,,,,,,,,,,,,,,,,,,,,,,,,,,,,,,,,,,,,,,,,,,,,,,,,,,
,,,,,,,,,R_OexgaNi8xz4AXPX,2022-07-03_14h27.55.707,jpn_C01,2022.1.2,Win32,60.14675809,,,space,1.0012,0,20,20,25,1,ピク　パツ　シド　ピポ,,,CartoonStims/artist_shoot_doctor_r_no.jpg,audio/pikupatsusidopipo.mp3,,,,,,,,,,,,,,,,,,,,,,,,,,,,,,,,,,,,,,,,,,,,,,,,,,,,,,,,,,,,,,,,,,,,,
,,,,,,,,,R_OexgaNi8xz4AXPX,2022-07-03_14h27.55.707,jpn_C01,2022.1.2,Win32,60.14675809,,,space,4.7406,0,21,21,7,1,セル　ピク　ムク　ドキ,,,CartoonStims/cowboy_kick_boxer_r_no.jpg,audio/serupikumukudoki.mp3,,,,,,,,,,,,,,,,,,,,,,,,,,,,,,,,,,,,,,,,,,,,,,,,,,,,,,,,,,,,,,,,,,,,,
,,,,,,,,,R_OexgaNi8xz4AXPX,2022-07-03_14h27.55.707,jpn_C01,2022.1.2,Win32,60.14675809,,,space,8.1927,0,22,22,24,1,パツ　ピク　シド　ムク,,,CartoonStims/artist_shoot_cowboy_r_no.jpg,audio/patsupikusidomuku.mp3,,,,,,,,,,,,,,,,,,,,,,,,,,,,,,,,,,,,,,,,,,,,,,,,,,,,,,,,,,,,,,,,,,,,,
,,,,,,,,,R_OexgaNi8xz4AXPX,2022-07-03_14h27.55.707,jpn_C01,2022.1.2,Win32,60.14675809,,,space,8.8346,0,23,23,37,1,プミ　ピク　シド　ドキ,,,CartoonStims/artist_punch_boxer_r_no.jpg,audio/pumipikusidodoki.mp3,,,,,,,,,,,,,,,,,,,,,,,,,,,,,,,,,,,,,,,,,,,,,,,,,,,,,,,,,,,,,,,,,,,,,
,,,,,,,,,R_OexgaNi8xz4AXPX,2022-07-03_14h27.55.707,jpn_C01,2022.1.2,Win32,60.14675809,,,space,8.3494,0,24,24,22,1,トマ　ピク　ドキ　ルピン,,,CartoonStims/boxer_point_burglar_r_no.jpg,audio/tomapikudokilupin.mp3,,,,,,,,,,,,,,,,,,,,,,,,,,,,,,,,,,,,,,,,,,,,,,,,,,,,,,,,,,,,,,,,,,,,,
,,,,,,,,,R_OexgaNi8xz4AXPX,2022-07-03_14h27.55.707,jpn_C01,2022.1.2,Win32,60.14675809,,,space,3.1874,0,25,25,6,1,ピク　セル　ムク　ピポ,,,CartoonStims/cowboy_kick_doctor_r_no.jpg,audio/pikuserumukupipo.mp3,,,,,,,,,,,,,,,,,,,,,,,,,,,,,,,,,,,,,,,,,,,,,,,,,,,,,,,,,,,,,,,,,,,,,
,,,,,,,,,R_OexgaNi8xz4AXPX,2022-07-03_14h27.55.707,jpn_C01,2022.1.2,Win32,60.14675809,,,space,2.817,0,26,26,35,1,ピク　パツ　ドキ　ムク,,,CartoonStims/boxer_shoot_cowboy_r_no.jpg,audio/pikupatsudokimuku.mp3,,,,,,,,,,,,,,,,,,,,,,,,,,,,,,,,,,,,,,,,,,,,,,,,,,,,,,,,,,,,,,,,,,,,,
,,,,,,,,,R_OexgaNi8xz4AXPX,2022-07-03_14h27.55.707,jpn_C01,2022.1.2,Win32,60.14675809,,,space,2.2874,0,27,27,9,1,セル　ピク　ピポ　シド,,,CartoonStims/doctor_kick_artist_r_no.jpg,audio/serupikupiposido.mp3,,,,,,,,,,,,,,,,,,,,,,,,,,,,,,,,,,,,,,,,,,,,,,,,,,,,,,,,,,,,,,,,,,,,,
,,,,,,,,,R_OexgaNi8xz4AXPX,2022-07-03_14h27.55.707,jpn_C01,2022.1.2,Win32,60.14675809,,,space,1.044,0,28,28,46,1,ピク　プミ　ドキ　ムク,,,CartoonStims/boxer_punch_cowboy_r_no.jpg,audio/pikupumidokimuku.mp3,,,,,,,,,,,,,,,,,,,,,,,,,,,,,,,,,,,,,,,,,,,,,,,,,,,,,,,,,,,,,,,,,,,,,
,,,,,,,,,R_OexgaNi8xz4AXPX,2022-07-03_14h27.55.707,jpn_C01,2022.1.2,Win32,60.14675809,,,space,1.7345,0,29,29,47,1,プミ　ピク　ドキ　ピポ,,,CartoonStims/boxer_punch_doctor_r_no.jpg,audio/pumipikudokipipo.mp3,,,,,,,,,,,,,,,,,,,,,,,,,,,,,,,,,,,,,,,,,,,,,,,,,,,,,,,,,,,,,,,,,,,,,
,,,,,,,,,R_OexgaNi8xz4AXPX,2022-07-03_14h27.55.707,jpn_C01,2022.1.2,Win32,60.14675809,,,space,0.6907,0,30,30,23,1,ピク　トマ　ドキ　ホレト,,,CartoonStims/boxer_point_chef_r_no.jpg,audio/pikutomadokihoreto.mp3,,,,,,,,,,,,,,,,,,,,,,,,,,,,,,,,,,,,,,,,,,,,,,,,,,,,,,,,,,,,,,,,,,,,,
,,,,,,,,,R_OexgaNi8xz4AXPX,2022-07-03_14h27.55.707,jpn_C01,2022.1.2,Win32,60.14675809,,,space,0.4838,0,31,31,42,1,ピク　プミ　ムク　ルピン,,,CartoonStims/cowboy_punch_burglar_r_no.jpg,audio/pikupumimukulupin.mp3,,,,,,,,,,,,,,,,,,,,,,,,,,,,,,,,,,,,,,,,,,,,,,,,,,,,,,,,,,,,,,,,,,,,,
,,,,,,,,,R_OexgaNi8xz4AXPX,2022-07-03_14h27.55.707,jpn_C01,2022.1.2,Win32,60.14675809,,,space,3.6763,0,32,32,29,1,ピク　パツ　ホレト　シド,,,CartoonStims/chef_shoot_artist_r_no.jpg,audio/pikupatsuhoretosido.mp3,,,,,,,,,,,,,,,,,,,,,,,,,,,,,,,,,,,,,,,,,,,,,,,,,,,,,,,,,,,,,,,,,,,,,
,,,,,,,,,R_OexgaNi8xz4AXPX,2022-07-03_14h27.55.707,jpn_C01,2022.1.2,Win32,60.14675809,,,space,3.1917,0,33,33,3,1,セル　ピク　ルピン　ムク,,,CartoonStims/burglar_kick_cowboy_r_no.jpg,audio/serupikulupinmuku.mp3,,,,,,,,,,,,,,,,,,,,,,,,,,,,,,,,,,,,,,,,,,,,,,,,,,,,,,,,,,,,,,,,,,,,,
,,,,,,,,,R_OexgaNi8xz4AXPX,2022-07-03_14h27.55.707,jpn_C01,2022.1.2,Win32,60.14675809,,,space,10.7343,0,34,34,10,1,ピク　セル　ドキ　シド,,,CartoonStims/boxer_kick_artist_r_no.jpg,audio/pikuserudokisido.mp3,,,,,,,,,,,,,,,,,,,,,,,,,,,,,,,,,,,,,,,,,,,,,,,,,,,,,,,,,,,,,,,,,,,,,
,,,,,,,,,R_OexgaNi8xz4AXPX,2022-07-03_14h27.55.707,jpn_C01,2022.1.2,Win32,60.14675809,,,space,1.6838,0,35,35,18,1,トマ　ピク　ムク　ドキ,,,CartoonStims/cowboy_point_boxer_r_no.jpg,audio/tomapikumukudoki.mp3,,,,,,,,,,,,,,,,,,,,,,,,,,,,,,,,,,,,,,,,,,,,,,,,,,,,,,,,,,,,,,,,,,,,,
,,,,,,,,,R_OexgaNi8xz4AXPX,2022-07-03_14h27.55.707,jpn_C01,2022.1.2,Win32,60.14675809,,,space,2.9948,0,36,36,30,1,パツ　ピク　ムク　シド,,,CartoonStims/cowboy_shoot_artist_r_no.jpg,audio/patsupikumukusido.mp3,,,,,,,,,,,,,,,,,,,,,,,,,,,,,,,,,,,,,,,,,,,,,,,,,,,,,,,,,,,,,,,,,,,,,
,,,,,,,,,R_OexgaNi8xz4AXPX,2022-07-03_14h27.55.707,jpn_C01,2022.1.2,Win32,60.14675809,,,space,6.1864,0,37,37,41,1,プミ　ピク　ホレト　ルピン,,,CartoonStims/chef_punch_burglar_r_no.jpg,audio/pumipikuhoretolupin.mp3,,,,,,,,,,,,,,,,,,,,,,,,,,,,,,,,,,,,,,,,,,,,,,,,,,,,,,,,,,,,,,,,,,,,,
,,,,,,,,,R_OexgaNi8xz4AXPX,2022-07-03_14h27.55.707,jpn_C01,2022.1.2,Win32,60.14675809,,,space,1.7454,0,38,38,44,1,ピク　プミ　ピポ　ホレト,,,CartoonStims/doctor_punch_chef_r_no.jpg,audio/pikupumipipohoreto.mp3,,,,,,,,,,,,,,,,,,,,,,,,,,,,,,,,,,,,,,,,,,,,,,,,,,,,,,,,,,,,,,,,,,,,,
,,,,,,,,,R_OexgaNi8xz4AXPX,2022-07-03_14h27.55.707,jpn_C01,2022.1.2,Win32,60.14675809,,,space,5.4524,0,39,39,45,1,プミ　ピク　ピポ　ムク,,,CartoonStims/doctor_punch_cowboy_r_no.jpg,audio/pumipikupipomuku.mp3,,,,,,,,,,,,,,,,,,,,,,,,,,,,,,,,,,,,,,,,,,,,,,,,,,,,,,,,,,,,,,,,,,,,,
,,,,,,,,,R_OexgaNi8xz4AXPX,2022-07-03_14h27.55.707,jpn_C01,2022.1.2,Win32,60.14675809,,,space,6.4091,0,40,40,20,1,トマ　ピク　ピポ　シド,,,CartoonStims/doctor_point_artist_r_no.jpg,audio/tomapikupiposido.mp3,,,,,,,,,,,,,,,,,,,,,,,,,,,,,,,,,,,,,,,,,,,,,,,,,,,,,,,,,,,,,,,,,,,,,
,,,,,,,,,R_OexgaNi8xz4AXPX,2022-07-03_14h27.55.707,jpn_C01,2022.1.2,Win32,60.14675809,,,space,1.1834,0,41,41,0,1,ピク　セル　シド　ルピン,,,CartoonStims/artist_kick_burglar_r_no.jpg,audio/pikuserusidolupin.mp3,,,,,,,,,,,,,,,,,,,,,,,,,,,,,,,,,,,,,,,,,,,,,,,,,,,,,,,,,,,,,,,,,,,,,
,,,,,,,,,R_OexgaNi8xz4AXPX,2022-07-03_14h27.55.707,jpn_C01,2022.1.2,Win32,60.14675809,,,space,1.1246,0,42,42,39,1,プミ　ピク　ルピン　シド,,,CartoonStims/burglar_punch_artist_r_no.jpg,audio/pumipikulupinsido.mp3,,,,,,,,,,,,,,,,,,,,,,,,,,,,,,,,,,,,,,,,,,,,,,,,,,,,,,,,,,,,,,,,,,,,,
,,,,,,,,,R_OexgaNi8xz4AXPX,2022-07-03_14h27.55.707,jpn_C01,2022.1.2,Win32,60.14675809,,,space,1.1285,0,43,43,33,1,ピク　パツ　ピポ　ホレト,,,CartoonStims/doctor_shoot_chef_r_no.jpg,audio/pikupatsupipohoreto.mp3,,,,,,,,,,,,,,,,,,,,,,,,,,,,,,,,,,,,,,,,,,,,,,,,,,,,,,,,,,,,,,,,,,,,,
,,,,,,,,,R_OexgaNi8xz4AXPX,2022-07-03_14h27.55.707,jpn_C01,2022.1.2,Win32,60.14675809,,,space,2.2844,0,44,44,1,1,セル　ピク　シド　ホレト,,,CartoonStims/artist_kick_chef_r_no.jpg,audio/serupikusidohoreto.mp3,,,,,,,,,,,,,,,,,,,,,,,,,,,,,,,,,,,,,,,,,,,,,,,,,,,,,,,,,,,,,,,,,,,,,
,,,,,,,,,R_OexgaNi8xz4AXPX,2022-07-03_14h27.55.707,jpn_C01,2022.1.2,Win32,60.14675809,,,space,0.4923,0,45,45,34,1,パツ　ピク　ドキ　ホレト,,,CartoonStims/boxer_shoot_chef_r_no.jpg,audio/patsupikudokihoreto.mp3,,,,,,,,,,,,,,,,,,,,,,,,,,,,,,,,,,,,,,,,,,,,,,,,,,,,,,,,,,,,,,,,,,,,,
,,,,,,,,,R_OexgaNi8xz4AXPX,2022-07-03_14h27.55.707,jpn_C01,2022.1.2,Win32,60.14675809,,,space,4.6835,0,46,46,14,1,トマ　ピク　ルピン　ムク,,,CartoonStims/burglar_point_cowboy_r_no.jpg,audio/tomapikulupinmuku.mp3,,,,,,,,,,,,,,,,,,,,,,,,,,,,,,,,,,,,,,,,,,,,,,,,,,,,,,,,,,,,,,,,,,,,,
,,,,,,,,,R_OexgaNi8xz4AXPX,2022-07-03_14h27.55.707,jpn_C01,2022.1.2,Win32,60.14675809,,,space,1.1575,0,47,47,28,1,パツ　ピク　ホレト　ドキ,,,CartoonStims/chef_shoot_boxer_r_no.jpg,audio/patsupikuhoretodoki.mp3,,,,,,,,,,,,,,,,,,,,,,,,,,,,,,,,,,,,,,,,,,,,,,,,,,,,,,,,,,,,,,,,,,,,,
,,,,,,,,,R_OexgaNi8xz4AXPX,2022-07-03_14h27.55.707,jpn_C01,2022.1.2,Win32,60.14675809,,,,,,,,,,,,,,,space,0.0906,left,0,4.9899,,,,,,,,,,,,,,,,,,,,,,,,,,,,,,,,,,,,,,,,,,,,,,,,,,,,,,,,,0,0,0,0,1,,,
,,,,,,,,,R_OexgaNi8xz4AXPX,2022-07-03_14h27.55.707,jpn_C01,2022.1.2,Win32,60.14675809,,,,,,,,,,,,,,,,,,,,,,,,,0,0,0,5,1,CartoonStims/boxer_kick_cowboy_r.jpg,ピク　セル　ドキ　ムク,CartoonStims/boxer_punch_cowboy_r.jpg,right,CartoonStims/boxer_punch_cowboy_r.jpg,audio/pikuserudokimuku.mp3,"残念！ こちらが正しい画像です。

否定文は起きていないことを示しているのを思い出してください。",,,,,,,,,,,,,,,,,,,,,,,,,,,,,,,,,,,,,,,,,,,,,,,
,,,,,,,,,R_OexgaNi8xz4AXPX,2022-07-03_14h27.55.707,jpn_C01,2022.1.2,Win32,60.14675809,,,,,,,,,,,,,,,,,left,1,1.6842,0,0,0,0,1,,,,,,,,,,,,,,,,,,,,,,,,,,,,,,,,,,,,,,,,,,,,,,,,,,,,,,,,,,,
,,,,,,,,,R_OexgaNi8xz4AXPX,2022-07-03_14h27.55.707,jpn_C01,2022.1.2,Win32,60.14675809,,,,,,,,,,,,,,,,,,,,,,,,,0,1,1,8,1,CartoonStims/burglar_punch_artist_r.jpg,トマ　ピク　ルピン　シド,CartoonStims/burglar_point_artist_r.jpg,left,CartoonStims/burglar_punch_artist_r.jpg,audio/tomapikulupinsido.mp3,"残念！ こちらが正しい画像です。

否定文は起きていないことを示しているのを思い出してください。",,,,,,,,,,,,,,,,,,,,,,,,,,,,,,,,,,,,,,,,,,,,,,,
,,,,,,,,,R_OexgaNi8xz4AXPX,2022-07-03_14h27.55.707,jpn_C01,2022.1.2,Win32,60.14675809,,,,,,,,,,,,,,,,,right,1,2.6277,,,,,,,,,,,,,,,,,,0,0,0,0,1,,,,,,,,,,,,,,,,,,,,,,,,,,,,,,,,,,,,,,,,,,
,,,,,,,,,R_OexgaNi8xz4AXPX,2022-07-03_14h27.55.707,jpn_C01,2022.1.2,Win32,60.14675809,,,,,,,,,,,,,,,,,,,,,,,,,0,2,2,1,1,CartoonStims/chef_punch_cowboy_r.jpg,プミ　ピク　ホレト　ムク,CartoonStims/chef_kick_cowboy_r.jpg,right,CartoonStims/chef_kick_cowboy_r.jpg,audio/pumipikuhoretomuku.mp3,"残念！ こちらが正しい画像です。

否定文は起きていないことを示しているのを思い出してください。",,,,,,,,,,,,,,,,,,,,,,,,,,,,,,,,,,,,,,,,,,,,,,,
,,,,,,,,,R_OexgaNi8xz4AXPX,2022-07-03_14h27.55.707,jpn_C01,2022.1.2,Win32,60.14675809,,,,,,,,,,,,,,,,,left,1,1.2548,0,0,0,0,1,,,,,,,,,,,,,,,,,,,,,,,,,,,,,,,,,,,,,,,,,,,,,,,,,,,,,,,,,,,
,,,,,,,,,R_OexgaNi8xz4AXPX,2022-07-03_14h27.55.707,jpn_C01,2022.1.2,Win32,60.14675809,,,,,,,,,,,,,,,,,,,,,,,,,0,3,3,6,1,CartoonStims/artist_shoot_boxer_r.jpg,トマ　ピク　シド　ドキ,CartoonStims/artist_point_boxer_r.jpg,left,CartoonStims/artist_shoot_boxer_r.jpg,audio/tomapikusidodoki.mp3,"残念！ こちらが正しい画像です。

否定文は起きていないことを示しているのを思い出してください。",,,,,,,,,,,,,,,,,,,,,,,,,,,,,,,,,,,,,,,,,,,,,,,
,,,,,,,,,R_OexgaNi8xz4AXPX,2022-07-03_14h27.55.707,jpn_C01,2022.1.2,Win32,60.14675809,,,,,,,,,,,,,,,,,right,1,0.6331,,,,,,,,,,,,,,,,,,0,0,0,0,1,,,,,,,,,,,,,,,,,,,,,,,,,,,,,,,,,,,,,,,,,,
,,,,,,,,,R_OexgaNi8xz4AXPX,2022-07-03_14h27.55.707,jpn_C01,2022.1.2,Win32,60.14675809,,,,,,,,,,,,,,,,,,,,,,,,,0,4,4,9,1,CartoonStims/boxer_shoot_doctor_r.jpg,パツ　ピク　ドキ　ピポ,CartoonStims/boxer_point_doctor_r.jpg,right,CartoonStims/boxer_point_doctor_r.jpg,audio/patsupikudokipipo.mp3,"残念！ こちらが正しい画像です。

否定文は起きていないことを示しているのを思い出してください。",,,,,,,,,,,,,,,,,,,,,,,,,,,,,,,,,,,,,,,,,,,,,,,
,,,,,,,,,R_OexgaNi8xz4AXPX,2022-07-03_14h27.55.707,jpn_C01,2022.1.2,Win32,60.14675809,,,,,,,,,,,,,,,,,left,1,3.2584,0,0,0,0,1,,,,,,,,,,,,,,,,,,,,,,,,,,,,,,,,,,,,,,,,,,,,,,,,,,,,,,,,,,,
,,,,,,,,,R_OexgaNi8xz4AXPX,2022-07-03_14h27.55.707,jpn_C01,2022.1.2,Win32,60.14675809,,,,,,,,,,,,,,,,,,,,,,,,,0,5,5,2,1,CartoonStims/doctor_point_boxer_r.jpg,ピク　プミ　ピポ　ドキ,CartoonStims/doctor_punch_boxer_r.jpg,left,CartoonStims/doctor_point_boxer_r.jpg,audio/pikupumipipodoki.mp3,"残念！ こちらが正しい画像です。

否定文は起きていないことを示しているのを思い出してください。",,,,,,,,,,,,,,,,,,,,,,,,,,,,,,,,,,,,,,,,,,,,,,,
,,,,,,,,,R_OexgaNi8xz4AXPX,2022-07-03_14h27.55.707,jpn_C01,2022.1.2,Win32,60.14675809,,,,,,,,,,,,,,,,,left,1,1.3446,0,0,0,0,1,,,,,,,,,,,,,,,,,,,,,,,,,,,,,,,,,,,,,,,,,,,,,,,,,,,,,,,,,,,
,,,,,,,,,R_OexgaNi8xz4AXPX,2022-07-03_14h27.55.707,jpn_C01,2022.1.2,Win32,60.14675809,,,,,,,,,,,,,,,,,,,,,,,,,0,6,6,4,1,CartoonStims/burglar_shoot_doctor_r.jpg,セル　ピク　ルピン　ピポ,CartoonStims/burglar_kick_doctor_r.jpg,left,CartoonStims/burglar_shoot_doctor_r.jpg,audio/serupikulupinpipo.mp3,"残念！ こちらが正しい画像です。

否定文は起きていないことを示しているのを思い出してください。",,,,,,,,,,,,,,,,,,,,,,,,,,,,,,,,,,,,,,,,,,,,,,,
,,,,,,,,,R_OexgaNi8xz4AXPX,2022-07-03_14h27.55.707,jpn_C01,2022.1.2,Win32,60.14675809,,,,,,,,,,,,,,,,,right,1,2.1433,,,,,,,,,,,,,,,,,,0,0,0,0,1,,,,,,,,,,,,,,,,,,,,,,,,,,,,,,,,,,,,,,,,,,
,,,,,,,,,R_OexgaNi8xz4AXPX,2022-07-03_14h27.55.707,jpn_C01,2022.1.2,Win32,60.14675809,,,,,,,,,,,,,,,,,,,,,,,,,0,7,7,11,1,CartoonStims/chef_shoot_burglar_r.jpg,パツ　ピク　ホレト　ルピン,CartoonStims/chef_kick_burglar_r.jpg,right,CartoonStims/chef_kick_burglar_r.jpg,audio/patsupikuhoretolupin.mp3,"残念！ こちらが正しい画像です。

否定文は起きていないことを示しているのを思い出してください。",,,,,,,,,,,,,,,,,,,,,,,,,,,,,,,,,,,,,,,,,,,,,,,
,,,,,,,,,R_OexgaNi8xz4AXPX,2022-07-03_14h27.55.707,jpn_C01,2022.1.2,Win32,60.14675809,,,,,,,,,,,,,,,,,right,1,3.0223,,,,,,,,,,,,,,,,,,0,0,0,0,1,,,,,,,,,,,,,,,,,,,,,,,,,,,,,,,,,,,,,,,,,,
,,,,,,,,,R_OexgaNi8xz4AXPX,2022-07-03_14h27.55.707,jpn_C01,2022.1.2,Win32,60.14675809,,,,,,,,,,,,,,,,,,,,,,,,,0,8,8,3,1,CartoonStims/chef_kick_artist_r.jpg,ピク　セル　ホレト　シド,CartoonStims/chef_point_artist_r.jpg,right,CartoonStims/chef_point_artist_r.jpg,audio/pikuseruhoretosido.mp3,"残念！ こちらが正しい画像です。

否定文は起きていないことを示しているのを思い出してください。",,,,,,,,,,,,,,,,,,,,,,,,,,,,,,,,,,,,,,,,,,,,,,,
,,,,,,,,,R_OexgaNi8xz4AXPX,2022-07-03_14h27.55.707,jpn_C01,2022.1.2,Win32,60.14675809,,,,,,,,,,,,,,,,,left,1,2.8206,0,0,0,0,1,,,,,,,,,,,,,,,,,,,,,,,,,,,,,,,,,,,,,,,,,,,,,,,,,,,,,,,,,,,
,,,,,,,,,R_OexgaNi8xz4AXPX,2022-07-03_14h27.55.707,jpn_C01,2022.1.2,Win32,60.14675809,,,,,,,,,,,,,,,,,,,,,,,,,0,9,9,10,1,CartoonStims/doctor_punch_cowboy_r.jpg,ピク　パツ　ピポ　ムク,CartoonStims/doctor_shoot_cowboy_r.jpg,left,CartoonStims/doctor_punch_cowboy_r.jpg,audio/pikupatsupipomuku.mp3,"残念！ こちらが正しい画像です。

否定文は起きていないことを示しているのを思い出してください。",,,,,,,,,,,,,,,,,,,,,,,,,,,,,,,,,,,,,,,,,,,,,,,
,,,,,,,,,R_OexgaNi8xz4AXPX,2022-07-03_14h27.55.707,jpn_C01,2022.1.2,Win32,60.14675809,,,,,,,,,,,,,,,,,left,1,0.6901,0,0,0,0,1,,,,,,,,,,,,,,,,,,,,,,,,,,,,,,,,,,,,,,,,,,,,,,,,,,,,,,,,,,,
,,,,,,,,,R_OexgaNi8xz4AXPX,2022-07-03_14h27.55.707,jpn_C01,2022.1.2,Win32,60.14675809,,,,,,,,,,,,,,,,,,,,,,,,,0,10,10,0,1,CartoonStims/artist_shoot_burglar_r.jpg,ピク　プミ　シド　ルピン,CartoonStims/artist_punch_burglar_r.jpg,left,CartoonStims/artist_shoot_burglar_r.jpg,audio/pikupumisidolupin.mp3,"残念！ こちらが正しい画像です。

否定文は起きていないことを示しているのを思い出してください。",,,,,,,,,,,,,,,,,,,,,,,,,,,,,,,,,,,,,,,,,,,,,,,
,,,,,,,,,R_OexgaNi8xz4AXPX,2022-07-03_14h27.55.707,jpn_C01,2022.1.2,Win32,60.14675809,,,,,,,,,,,,,,,,,right,1,0.3518,,,,,,,,,,,,,,,,,,0,0,0,0,1,,,,,,,,,,,,,,,,,,,,,,,,,,,,,,,,,,,,,,,,,,
,,,,,,,,,R_OexgaNi8xz4AXPX,2022-07-03_14h27.55.707,jpn_C01,2022.1.2,Win32,60.14675809,,,,,,,,,,,,,,,,,,,,,,,,,0,11,11,7,1,CartoonStims/cowboy_point_chef_r.jpg,ピク　トマ　ムク　ホレト,CartoonStims/cowboy_kick_chef_r.jpg,right,CartoonStims/cowboy_kick_chef_r.jpg,audio/pikutomamukuhoreto.mp3,"残念！ こちらが正しい画像です。

否定文は起きていないことを示しているのを思い出してください。",,,,,,,,,,,,,,,,,,,,,,,,,,,,,,,,,,,,,,,,,,,,,,,
,,,,,,,,,R_OexgaNi8xz4AXPX,2022-07-03_14h27.55.707,jpn_C01,2022.1.2,Win32,60.14675809,,,,,,,,,,,,,CartoonStims/burglar_point_chef_r_no.jpg,,,,,,,,,,,,,,,,,,,,,,,,,,,,,space,1.8344,ピク　トマ　ルピン　ピポ,right,30.0552,,,,,,0,0,0,7,1,,,,,,,,,,,,,,,,,,,,,,,,,ピク　トマ　ルピン　ホレト,トマ　ピク　ルピン　ホレト,1
,,,,,,,,,R_OexgaNi8xz4AXPX,2022-07-03_14h27.55.707,jpn_C01,2022.1.2,Win32,60.14675809,,,,,,,,,,,,,CartoonStims/boxer_punch_chef_r_no.jpg,,,,,,,,,,,,,,,,,,,,,,,,,,,,,,,ピク　プミ　ドキ　ホレト,right,18.6715,,,,,,0,1,1,23,1,,,,,,,,,,,,,,,,,,,,,,,,,ピク　プミ　ドキ　ホレト,プミ　ピク　ドキ　ホレト,1
,,,,,,,,,R_OexgaNi8xz4AXPX,2022-07-03_14h27.55.707,jpn_C01,2022.1.2,Win32,60.14675809,,,,,,,,,,,,,CartoonStims/doctor_kick_cowboy_r_no.jpg,,,,,,,,,,,,,,,,,,,,,,,,,,,,,,,ピク　セル　ピポ　ムク,right,16.1665,,,,,,0,2,2,4,1,,,,,,,,,,,,,,,,,,,,,,,,,ピク　セル　ピポ　ムク,セル　ピク　ピポ　ムク,1
,,,,,,,,,R_OexgaNi8xz4AXPX,2022-07-03_14h27.55.707,jpn_C01,2022.1.2,Win32,60.14675809,,,,,,,,,,,,,CartoonStims/burglar_kick_artist_r_no.jpg,,,,,,,,,,,,,,,,,,,,,,,,,,,,,,,ピク　セル　ルピン　シド,right,18.3904,,,,,,0,3,3,1,1,,,,,,,,,,,,,,,,,,,,,,,,,ピク　セル　ルピン　シド,セル　ピク　ルピン　シド,1
,,,,,,,,,R_OexgaNi8xz4AXPX,2022-07-03_14h27.55.707,jpn_C01,2022.1.2,Win32,60.14675809,,,,,,,,,,,,,CartoonStims/cowboy_kick_burglar_r.jpg,,,,,,,,,,,,,,,,,,,,,,,,,,,,,,,セル　ムク　ルピン,right,16.8236,,,,,,0,4,4,24,1,,,,,,,,,,,,,,,,,,,,,,,,,セル　ムク　ルピン,セル　ムク　ルピン,0
,,,,,,,,,R_OexgaNi8xz4AXPX,2022-07-03_14h27.55.707,jpn_C01,2022.1.2,Win32,60.14675809,,,,,,,,,,,,,CartoonStims/chef_shoot_cowboy_r.jpg,,,,,,,,,,,,,,,,,,,,,,,,,,,,,,,パツ　ホレト　ムク,right,11.3044,,,,,,0,5,5,31,1,,,,,,,,,,,,,,,,,,,,,,,,,パツ　ホレト　ムク,パツ　ホレト　ムク,0
,,,,,,,,,R_OexgaNi8xz4AXPX,2022-07-03_14h27.55.707,jpn_C01,2022.1.2,Win32,60.14675809,,,,,,,,,,,,,CartoonStims/cowboy_point_doctor_r_no.jpg,,,,,,,,,,,,,,,,,,,,,,,,,,,,,,,ピク　トマ　ムク　ピポ,right,11.0029,,,,,,0,6,6,9,1,,,,,,,,,,,,,,,,,,,,,,,,,ピク　トマ　ムク　ピポ,トマ　ピク　ムク　ピポ,1
,,,,,,,,,R_OexgaNi8xz4AXPX,2022-07-03_14h27.55.707,jpn_C01,2022.1.2,Win32,60.14675809,,,,,,,,,,,,,CartoonStims/burglar_point_artist_r.jpg,,,,,,,,,,,,,,,,,,,,,,,,,,,,,,,トマ　ルピン　シド,right,10.675,,,,,,0,7,7,28,1,,,,,,,,,,,,,,,,,,,,,,,,,トマ　ルピン　シド,トマ　ルピン　シド,0
,,,,,,,,,R_OexgaNi8xz4AXPX,2022-07-03_14h27.55.707,jpn_C01,2022.1.2,Win32,60.14675809,,,,,,,,,,,,,CartoonStims/doctor_punch_burglar_r_no.jpg,,,,,,,,,,,,,,,,,,,,,,,,,,,,,,,ピク　プミ　ピポ　ルピン,right,14.6315,,,,,,0,8,8,22,1,,,,,,,,,,,,,,,,,,,,,,,,,ピク　プミ　ピポ　ルピン,プミ　ピク　ピポ　ルピン,1
,,,,,,,,,R_OexgaNi8xz4AXPX,2022-07-03_14h27.55.707,jpn_C01,2022.1.2,Win32,60.14675809,,,,,,,,,,,,,CartoonStims/doctor_kick_chef_r.jpg,,,,,,,,,,,,,,,,,,,,,,,,,,,,,,,セル　ピポ　ホレト,right,9.4385,,,,,,0,9,9,25,1,,,,,,,,,,,,,,,,,,,,,,,,,セル　ピポ　ホレト,セル　ピポ　ホレト,0
,,,,,,,,,R_OexgaNi8xz4AXPX,2022-07-03_14h27.55.707,jpn_C01,2022.1.2,Win32,60.14675809,,,,,,,,,,,,,CartoonStims/cowboy_punch_artist_r_no.jpg,,,,,,,,,,,,,,,,,,,,,,,,,,,,,,,ピク　プミ　ムク　シド,right,9.8596,,,,,,0,10,10,21,1,,,,,,,,,,,,,,,,,,,,,,,,,ピク　プミ　ムク　シド,プミ　ピク　ムク　シド,1
,,,,,,,,,R_OexgaNi8xz4AXPX,2022-07-03_14h27.55.707,jpn_C01,2022.1.2,Win32,60.14675809,,,,,,,,,,,,,CartoonStims/artist_point_burglar_r_no.jpg,,,,,,,,,,,,,,,,,,,,,,,,,,,,,,,ピク　トマ　シド　ルピン,right,8.7233,,,,,,0,11,11,6,1,,,,,,,,,,,,,,,,,,,,,,,,,ピク　トマ　シド　ルピン,トマ　ピク　シド　ルピン,1
,,,,,,,,,R_OexgaNi8xz4AXPX,2022-07-03_14h27.55.707,jpn_C01,2022.1.2,Win32,60.14675809,,,,,,,,,,,,,CartoonStims/doctor_punch_boxer_r.jpg,,,,,,,,,,,,,,,,,,,,,,,,,,,,,,,プミ　ピポ　ドキ,right,11.0555,,,,,,0,12,12,34,1,,,,,,,,,,,,,,,,,,,,,,,,,プミ　ピポ　ドキ,プミ　ピポ　ドキ,0
,,,,,,,,,R_OexgaNi8xz4AXPX,2022-07-03_14h27.55.707,jpn_C01,2022.1.2,Win32,60.14675809,,,,,,,,,,,,,CartoonStims/cowboy_shoot_boxer_r_no.jpg,,,,,,,,,,,,,,,,,,,,,,,,,,,,,,,ピク　パツ　ムク　ドキ,right,9.8668,,,,,,0,13,13,15,1,,,,,,,,,,,,,,,,,,,,,,,,,ピク　パツ　ムク　ドキ,パツ　ピク　ムク　ドキ,1
,,,,,,,,,R_OexgaNi8xz4AXPX,2022-07-03_14h27.55.707,jpn_C01,2022.1.2,Win32,60.14675809,,,,,,,,,,,,,CartoonStims/boxer_kick_doctor_r_no.jpg,,,,,,,,,,,,,,,,,,,,,,,,,,,,,,,ピク　セル　ドキ　ピポ,right,9.833,,,,,,0,14,14,5,1,,,,,,,,,,,,,,,,,,,,,,,,,ピク　セル　ドキ　ピポ,セル　ピク　ドキ　ピポ,1
,,,,,,,,,R_OexgaNi8xz4AXPX,2022-07-03_14h27.55.707,jpn_C01,2022.1.2,Win32,60.14675809,,,,,,,,,,,,,CartoonStims/artist_shoot_chef_r_no.jpg,,,,,,,,,,,,,,,,,,,,,,,,,,,,,,,ピク　パツ　シド　ホレト,right,10.1379,,,,,,0,15,15,12,1,,,,,,,,,,,,,,,,,,,,,,,,,ピク　パツ　シド　ホレト,パツ　ピク　シド　ホレト,1
,,,,,,,,,R_OexgaNi8xz4AXPX,2022-07-03_14h27.55.707,jpn_C01,2022.1.2,Win32,60.14675809,,,,,,,,,,,,,CartoonStims/artist_kick_boxer_r_no.jpg,,,,,,,,,,,,,,,,,,,,,,,,,,,,,,,ピク　セル　シド　ドキ,right,10.0016,,,,,,0,16,16,0,1,,,,,,,,,,,,,,,,,,,,,,,,,ピク　セル　シド　ドキ,セル　ピク　シド　ドキ,1
,,,,,,,,,R_OexgaNi8xz4AXPX,2022-07-03_14h27.55.707,jpn_C01,2022.1.2,Win32,60.14675809,,,,,,,,,,,,,CartoonStims/boxer_kick_cowboy_r.jpg,,,,,,,,,,,,,,,,,,,,,,,,,,,,,,,セル　ドキ　ムク,right,8.4249,,,,,,0,17,17,26,1,,,,,,,,,,,,,,,,,,,,,,,,,セル　ドキ　ムク,セル　ドキ　ムク,0
,,,,,,,,,R_OexgaNi8xz4AXPX,2022-07-03_14h27.55.707,jpn_C01,2022.1.2,Win32,60.14675809,,,,,,,,,,,,,CartoonStims/artist_punch_cowboy_r_no.jpg,,,,,,,,,,,,,,,,,,,,,,,,,,,,,,,ピク　プミ　シド　ムク,right,8.8002,,,,,,0,18,18,18,1,,,,,,,,,,,,,,,,,,,,,,,,,ピク　プミ　シド　ムク,プミ　ピク　シド　ムク,1
,,,,,,,,,R_OexgaNi8xz4AXPX,2022-07-03_14h27.55.707,jpn_C01,2022.1.2,Win32,60.14675809,,,,,,,,,,,,,CartoonStims/doctor_point_boxer_r_no.jpg,,,,,,,,,,,,,,,,,,,,,,,,,,,,,,,トマ　ピク　ピポ　ドキ,right,21.0561,,,,,,0,19,19,10,1,,,,,,,,,,,,,,,,,,,,,,,,,ピク　トマ　ピポ　ドキ,トマ　ピク　ピポ　ドキ,1
,,,,,,,,,R_OexgaNi8xz4AXPX,2022-07-03_14h27.55.707,jpn_C01,2022.1.2,Win32,60.14675809,,,,,,,,,,,,,CartoonStims/cowboy_kick_chef_r_no.jpg,,,,,,,,,,,,,,,,,,,,,,,,,,,,,,,ピク　セル　ムク　ホレト,right,11.4035,,,,,,0,20,20,3,1,,,,,,,,,,,,,,,,,,,,,,,,,ピク　セル　ムク　ホレト,セル　ピク　ムク　ホレト,1
,,,,,,,,,R_OexgaNi8xz4AXPX,2022-07-03_14h27.55.707,jpn_C01,2022.1.2,Win32,60.14675809,,,,,,,,,,,,,CartoonStims/chef_shoot_doctor_r_no.jpg,,,,,,,,,,,,,,,,,,,,,,,,,,,,,,,ピク　パツ　ホレト　ピポ,right,13.1157,,,,,,0,21,21,14,1,,,,,,,,,,,,,,,,,,,,,,,,,ピク　パツ　ホレト　ピポ,パツ　ピク　ホレト　ピポ,1
,,,,,,,,,R_OexgaNi8xz4AXPX,2022-07-03_14h27.55.707,jpn_C01,2022.1.2,Win32,60.14675809,,,,,,,,,,,,,CartoonStims/artist_point_boxer_r.jpg,,,,,,,,,,,,,,,,,,,,,,,,,,,,,,,トマ　シド　ドキ,right,6.7216,,,,,,0,22,22,27,1,,,,,,,,,,,,,,,,,,,,,,,,,トマ　シド　ドキ,トマ　シド　ドキ,0
,,,,,,,,,R_OexgaNi8xz4AXPX,2022-07-03_14h27.55.707,jpn_C01,2022.1.2,Win32,60.14675809,,,,,,,,,,,,,CartoonStims/artist_punch_burglar_r.jpg,,,,,,,,,,,,,,,,,,,,,,,,,,,,,,,プミ　シド　ルピン,right,7.3044,,,,,,0,23,23,33,1,,,,,,,,,,,,,,,,,,,,,,,,,プミ　シド　ルピン,プミ　シド　ルピン,0
,,,,,,,,,R_OexgaNi8xz4AXPX,2022-07-03_14h27.55.707,jpn_C01,2022.1.2,Win32,60.14675809,,,,,,,,,,,,,CartoonStims/chef_point_burglar_r.jpg,,,,,,,,,,,,,,,,,,,,,,,,,,,,,,,トマ　ホレト　ルピン,right,7.8888,,,,,,0,24,24,29,1,,,,,,,,,,,,,,,,,,,,,,,,,トマ　ホレト　ルピン,トマ　ホレト　ルピン,0
,,,,,,,,,R_OexgaNi8xz4AXPX,2022-07-03_14h27.55.707,jpn_C01,2022.1.2,Win32,60.14675809,,,,,,,,,,,,,CartoonStims/chef_point_cowboy_r_no.jpg,,,,,,,,,,,,,,,,,,,,,,,,,,,,,,,ピク　トマ　ホレト　ムク,right,15.7136,,,,,,0,25,25,8,1,,,,,,,,,,,,,,,,,,,,,,,,,ピク　トマ　ホレト　ムク,トマ　ピク　ホレト　ムク,1
,,,,,,,,,R_OexgaNi8xz4AXPX,2022-07-03_14h27.55.707,jpn_C01,2022.1.2,Win32,60.14675809,,,,,,,,,,,,,CartoonStims/chef_punch_boxer_r_no.jpg,,,,,,,,,,,,,,,,,,,,,,,,,,,,,,,ピク　プミ　ホレト　ドキ,right,7.8391,,,,,,0,26,26,20,1,,,,,,,,,,,,,,,,,,,,,,,,,ピク　プミ　ホレト　ドキ,プミ　ピク　ホレト　ドキ,1
,,,,,,,,,R_OexgaNi8xz4AXPX,2022-07-03_14h27.55.707,jpn_C01,2022.1.2,Win32,60.14675809,,,,,,,,,,,,,CartoonStims/boxer_punch_artist_r.jpg,,,,,,,,,,,,,,,,,,,,,,,,,,,,,,,プミ　ドキ　シド,right,13.2044,,,,,,0,27,27,35,1,,,,,,,,,,,,,,,,,,,,,,,,,プミ　ドキ　シド,プミ　ドキ　シド,0
,,,,,,,,,R_OexgaNi8xz4AXPX,2022-07-03_14h27.55.707,jpn_C01,2022.1.2,Win32,60.14675809,,,,,,,,,,,,,CartoonStims/boxer_point_artist_r_no.jpg,,,,,,,,,,,,,,,,,,,,,,,,,,,,,,,ピク　トマ　ドキ　シド,right,12.283,,,,,,0,28,28,11,1,,,,,,,,,,,,,,,,,,,,,,,,,ピク　トマ　ドキ　シド,トマ　ピク　ドキ　シド,1
,,,,,,,,,R_OexgaNi8xz4AXPX,2022-07-03_14h27.55.707,jpn_C01,2022.1.2,Win32,60.14675809,,,,,,,,,,,,,CartoonStims/doctor_shoot_artist_r_no.jpg,,,,,,,,,,,,,,,,,,,,,,,,,,,,,,,ピク　パツ　ピポ　シド,right,11.4946,,,,,,0,29,29,16,1,,,,,,,,,,,,,,,,,,,,,,,,,ピク　パツ　ピポ　シド,パツ　ピク　ピポ　シド,1
,,,,,,,,,R_OexgaNi8xz4AXPX,2022-07-03_14h27.55.707,jpn_C01,2022.1.2,Win32,60.14675809,,,,,,,,,,,,,CartoonStims/burglar_shoot_chef_r.jpg,,,,,,,,,,,,,,,,,,,,,,,,,,,,,,,パツ　ルピン　ホレト,right,9.0968,,,,,,0,30,30,30,1,,,,,,,,,,,,,,,,,,,,,,,,,パツ　ルピン　ホレト,パツ　ルピン　ホレト,0
,,,,,,,,,R_OexgaNi8xz4AXPX,2022-07-03_14h27.55.707,jpn_C01,2022.1.2,Win32,60.14675809,,,,,,,,,,,,,CartoonStims/burglar_shoot_cowboy_r_no.jpg,,,,,,,,,,,,,,,,,,,,,,,,,,,,,,,ピク　パツ　ルピン　ムク,right,11.1244,,,,,,0,31,31,13,1,,,,,,,,,,,,,,,,,,,,,,,,,ピク　パツ　ルピン　ムク,パツ　ピク　ルピン　ムク,1
,,,,,,,,,R_OexgaNi8xz4AXPX,2022-07-03_14h27.55.707,jpn_C01,2022.1.2,Win32,60.14675809,,,,,,,,,,,,,CartoonStims/cowboy_shoot_doctor_r.jpg,,,,,,,,,,,,,,,,,,,,,,,,,,,,,,,パツ　ムク　ピポ,right,6.0197,,,,,,0,32,32,32,1,,,,,,,,,,,,,,,,,,,,,,,,,パツ　ムク　ピポ,パツ　ムク　ピポ,0
,,,,,,,,,R_OexgaNi8xz4AXPX,2022-07-03_14h27.55.707,jpn_C01,2022.1.2,Win32,60.14675809,,,,,,,,,,,,,CartoonStims/chef_kick_burglar_r_no.jpg,,,,,,,,,,,,,,,,,,,,,,,,,,,,,,,ピク　セル　ホレト　ルピン,right,10.537,,,,,,0,33,33,2,1,,,,,,,,,,,,,,,,,,,,,,,,,ピク　セル　ホレト　ルピン,セル　ピク　ホレト　ルピン,1
,,,,,,,,,R_OexgaNi8xz4AXPX,2022-07-03_14h27.55.707,jpn_C01,2022.1.2,Win32,60.14675809,,,,,,,,,,,,,CartoonStims/burglar_punch_doctor_r_no.jpg,,,,,,,,,,,,,,,,,,,,,,,,,,,,,,,ピク　プミ　ルピン　ピポ,right,14.0318,,,,,,0,34,34,19,1,,,,,,,,,,,,,,,,,,,,,,,,,ピク　プミ　ルピン　ピポ,プミ　ピク　ルピン　ピポ,1
,,,,,,,,,R_OexgaNi8xz4AXPX,2022-07-03_14h27.55.707,jpn_C01,2022.1.2,Win32,60.14675809,,,,,,,,,,,,,CartoonStims/boxer_shoot_burglar_r_no.jpg,,,,,,,,,,,,,,,,,,,,,,,,,,,,,,,ピク　パツ　ドキ　ルピン,right,15.3478,,,,,,0,35,35,17,1,,,,,,,,,,,,,,,,,,,,,,,,,ピク　パツ　ドキ　ルピン,パツ　ピク　ドキ　ルピン,1
,,,,,,,,,R_OexgaNi8xz4AXPX,2022-07-03_14h27.55.707,jpn_C01,2022.1.2,Win32,60.14675809,,,,,,,,,,,,,,,,,,,,,,,,,,,,,,,,,,,,,,,,,,,,,,,,,,,,,,,,,,,space,1.6217,0,2,2,2,1,EquiprobableCondition.xlsx,"ここではこの言語における否定の文を学習していただきます。引き続き注意して、 聞こえた音を復唱してください。

スペースキーを押してください。",1,EquiFCT.xlsx,ここからクイズが始まります。 スクリーンに表示されるテキストに合うイメージを選んでください。,NegTest.xlsx,1,最後にここまで学んだことをアウトプットしていただきます。 テキストボックスにあるイメージを描写するテキストを入力してください。 このタスクでは、 答え合わせは行いません。,0,これですべての実験が終わりました。 お疲れさまです。 この後はアンケートに答えていただきます。,,,,,,,,