key_resp_instr_a.keys,key_resp_instr_a.rt,key_resp_instr_b.keys,key_resp_instr_b.rt,dummy.thisRepN,dummy.thisTrialN,dummy.thisN,dummy.thisIndex,dummy.ran,participant,date,expName,psychopyVersion,OS,frameRate,key_resp_instr1.keys,key_resp_instr1.rt,key_resp.keys,key_resp.rt,exp_loop.thisRepN,exp_loop.thisTrialN,exp_loop.thisN,exp_loop.thisIndex,exp_loop.ran,Word,English,Flip,Path,Audio,key_resp_instr2.keys,key_resp_instr2.rt,key_resp_fct.keys,key_resp_fct.corr,key_resp_fct.rt,trials_2.thisRepN,trials_2.thisTrialN,trials_2.thisN,trials_2.thisIndex,trials_2.ran,fct_loop.thisRepN,fct_loop.thisTrialN,fct_loop.thisN,fct_loop.thisIndex,fct_loop.ran,left_img,word,right_img,correctans,correct_img,audio,incorrect_feedback,trials.thisRepN,trials.thisTrialN,trials.thisN,trials.thisIndex,trials.ran,key_resp_instr3.keys,key_resp_instr3.rt,textbox.text,key_resp_2.keys,key_resp_2.rt,fb_yn.thisRepN,fb_yn.thisTrialN,fb_yn.thisN,fb_yn.thisIndex,fb_yn.ran,gather_loop.thisRepN,gather_loop.thisTrialN,gather_loop.thisN,gather_loop.thisIndex,gather_loop.ran,Text,Wordbank,key_resp_instr4.keys,key_resp_instr4.rt,master_loop.thisRepN,master_loop.thisTrialN,master_loop.thisN,master_loop.thisIndex,master_loop.ran,exposure_file,instr_1,exp_reps,fct_file,instr_2,gather_file,gather_reps,instr_3,fReps,instr_4,trials_3.thisRepN,trials_3.thisTrialN,trials_3.thisN,trials_3.thisIndex,trials_3.ran,NegVSentence,VNegSentence,NegTF
space,6.276,space,9.6,0,0,0,0,1,R_3LZ7oGrWve20dcZ,2022-07-07_01h15.11.561,jpn_C02,2022.1.2,MacIntel,62.5,,,,,,,,,,,,,,,,,,,,,,,,,,,,,,,,,,,,,,,,,,,,,,,,,,,,,,,,,,,,,,,,,,,,,,,,,,,,,,,,,,,
,,,,,,,,,R_3LZ7oGrWve20dcZ,2022-07-07_01h15.11.561,jpn_C02,2022.1.2,MacIntel,62.5,space,7.651,space,5.604,0,0,0,5,1,ドキ,boxer,,CartoonStims/boxer_r.jpg,audio/doki.mp3,,,,,,,,,,,,,,,,,,,,,,,,,,,,,,,,,,,,,,,,,,,,,,,,,,,,,,,,,,,,,,,,,,,,,
,,,,,,,,,R_3LZ7oGrWve20dcZ,2022-07-07_01h15.11.561,jpn_C02,2022.1.2,MacIntel,62.5,,,space,5.054,0,1,1,0,1,シド,artist,,CartoonStims/artist_r.jpg,audio/sido.mp3,,,,,,,,,,,,,,,,,,,,,,,,,,,,,,,,,,,,,,,,,,,,,,,,,,,,,,,,,,,,,,,,,,,,,
,,,,,,,,,R_3LZ7oGrWve20dcZ,2022-07-07_01h15.11.561,jpn_C02,2022.1.2,MacIntel,62.5,,,space,4.85,0,2,2,3,1,ムク,cowboy,,CartoonStims/cowboy_r.jpg,audio/muku.mp3,,,,,,,,,,,,,,,,,,,,,,,,,,,,,,,,,,,,,,,,,,,,,,,,,,,,,,,,,,,,,,,,,,,,,
,,,,,,,,,R_3LZ7oGrWve20dcZ,2022-07-07_01h15.11.561,jpn_C02,2022.1.2,MacIntel,62.5,,,space,4.268,0,3,3,1,1,ルピン,burglar,,CartoonStims/burglar_r.jpg,audio/lupin.mp3,,,,,,,,,,,,,,,,,,,,,,,,,,,,,,,,,,,,,,,,,,,,,,,,,,,,,,,,,,,,,,,,,,,,,
,,,,,,,,,R_3LZ7oGrWve20dcZ,2022-07-07_01h15.11.561,jpn_C02,2022.1.2,MacIntel,62.5,,,space,3.913,0,4,4,4,1,ピポ,doctor,,CartoonStims/doctor_r.jpg,audio/pipo.mp3,,,,,,,,,,,,,,,,,,,,,,,,,,,,,,,,,,,,,,,,,,,,,,,,,,,,,,,,,,,,,,,,,,,,,
,,,,,,,,,R_3LZ7oGrWve20dcZ,2022-07-07_01h15.11.561,jpn_C02,2022.1.2,MacIntel,62.5,,,space,2.71,0,5,5,2,1,ホレト,chef,,CartoonStims/chef_r.jpg,audio/horeto.mp3,,,,,,,,,,,,,,,,,,,,,,,,,,,,,,,,,,,,,,,,,,,,,,,,,,,,,,,,,,,,,,,,,,,,,
,,,,,,,,,R_3LZ7oGrWve20dcZ,2022-07-07_01h15.11.561,jpn_C02,2022.1.2,MacIntel,62.5,,,space,2.772,1,0,6,3,1,ムク,cowboy,,CartoonStims/cowboy_r.jpg,audio/muku.mp3,,,,,,,,,,,,,,,,,,,,,,,,,,,,,,,,,,,,,,,,,,,,,,,,,,,,,,,,,,,,,,,,,,,,,
,,,,,,,,,R_3LZ7oGrWve20dcZ,2022-07-07_01h15.11.561,jpn_C02,2022.1.2,MacIntel,62.5,,,space,2.19,1,1,7,4,1,ピポ,doctor,,CartoonStims/doctor_r.jpg,audio/pipo.mp3,,,,,,,,,,,,,,,,,,,,,,,,,,,,,,,,,,,,,,,,,,,,,,,,,,,,,,,,,,,,,,,,,,,,,
,,,,,,,,,R_3LZ7oGrWve20dcZ,2022-07-07_01h15.11.561,jpn_C02,2022.1.2,MacIntel,62.5,,,space,1.751,1,2,8,1,1,ルピン,burglar,,CartoonStims/burglar_r.jpg,audio/lupin.mp3,,,,,,,,,,,,,,,,,,,,,,,,,,,,,,,,,,,,,,,,,,,,,,,,,,,,,,,,,,,,,,,,,,,,,
,,,,,,,,,R_3LZ7oGrWve20dcZ,2022-07-07_01h15.11.561,jpn_C02,2022.1.2,MacIntel,62.5,,,space,2.123,1,3,9,2,1,ホレト,chef,,CartoonStims/chef_r.jpg,audio/horeto.mp3,,,,,,,,,,,,,,,,,,,,,,,,,,,,,,,,,,,,,,,,,,,,,,,,,,,,,,,,,,,,,,,,,,,,,
,,,,,,,,,R_3LZ7oGrWve20dcZ,2022-07-07_01h15.11.561,jpn_C02,2022.1.2,MacIntel,62.5,,,space,2.401,1,4,10,0,1,シド,artist,,CartoonStims/artist_r.jpg,audio/sido.mp3,,,,,,,,,,,,,,,,,,,,,,,,,,,,,,,,,,,,,,,,,,,,,,,,,,,,,,,,,,,,,,,,,,,,,
,,,,,,,,,R_3LZ7oGrWve20dcZ,2022-07-07_01h15.11.561,jpn_C02,2022.1.2,MacIntel,62.5,,,space,1.688,1,5,11,5,1,ドキ,boxer,,CartoonStims/boxer_r.jpg,audio/doki.mp3,,,,,,,,,,,,,,,,,,,,,,,,,,,,,,,,,,,,,,,,,,,,,,,,,,,,,,,,,,,,,,,,,,,,,
,,,,,,,,,R_3LZ7oGrWve20dcZ,2022-07-07_01h15.11.561,jpn_C02,2022.1.2,MacIntel,62.5,,,space,1.62,2,0,12,5,1,ドキ,boxer,,CartoonStims/boxer_r.jpg,audio/doki.mp3,,,,,,,,,,,,,,,,,,,,,,,,,,,,,,,,,,,,,,,,,,,,,,,,,,,,,,,,,,,,,,,,,,,,,
,,,,,,,,,R_3LZ7oGrWve20dcZ,2022-07-07_01h15.11.561,jpn_C02,2022.1.2,MacIntel,62.5,,,space,1.684,2,1,13,2,1,ホレト,chef,,CartoonStims/chef_r.jpg,audio/horeto.mp3,,,,,,,,,,,,,,,,,,,,,,,,,,,,,,,,,,,,,,,,,,,,,,,,,,,,,,,,,,,,,,,,,,,,,
,,,,,,,,,R_3LZ7oGrWve20dcZ,2022-07-07_01h15.11.561,jpn_C02,2022.1.2,MacIntel,62.5,,,space,3.077,2,2,14,0,1,シド,artist,,CartoonStims/artist_r.jpg,audio/sido.mp3,,,,,,,,,,,,,,,,,,,,,,,,,,,,,,,,,,,,,,,,,,,,,,,,,,,,,,,,,,,,,,,,,,,,,
,,,,,,,,,R_3LZ7oGrWve20dcZ,2022-07-07_01h15.11.561,jpn_C02,2022.1.2,MacIntel,62.5,,,space,1.72,2,3,15,4,1,ピポ,doctor,,CartoonStims/doctor_r.jpg,audio/pipo.mp3,,,,,,,,,,,,,,,,,,,,,,,,,,,,,,,,,,,,,,,,,,,,,,,,,,,,,,,,,,,,,,,,,,,,,
,,,,,,,,,R_3LZ7oGrWve20dcZ,2022-07-07_01h15.11.561,jpn_C02,2022.1.2,MacIntel,62.5,,,space,1.422,2,4,16,3,1,ムク,cowboy,,CartoonStims/cowboy_r.jpg,audio/muku.mp3,,,,,,,,,,,,,,,,,,,,,,,,,,,,,,,,,,,,,,,,,,,,,,,,,,,,,,,,,,,,,,,,,,,,,
,,,,,,,,,R_3LZ7oGrWve20dcZ,2022-07-07_01h15.11.561,jpn_C02,2022.1.2,MacIntel,62.5,,,space,1.726,2,5,17,1,1,ルピン,burglar,,CartoonStims/burglar_r.jpg,audio/lupin.mp3,,,,,,,,,,,,,,,,,,,,,,,,,,,,,,,,,,,,,,,,,,,,,,,,,,,,,,,,,,,,,,,,,,,,,
,,,,,,,,,R_3LZ7oGrWve20dcZ,2022-07-07_01h15.11.561,jpn_C02,2022.1.2,MacIntel,62.5,,,,,,,,,,,,,,,space,2.937,right,1,3.289,0,0,0,0,1,,,,,,,,,,,,,,,,,,,,,,,,,,,,,,,,,,,,,,,,,,,,,,,,,,,,,,,,,,,
,,,,,,,,,R_3LZ7oGrWve20dcZ,2022-07-07_01h15.11.561,jpn_C02,2022.1.2,MacIntel,62.5,,,,,,,,,,,,,,,,,,,,,,,,,0,0,0,9,1,CartoonStims/boxer_r.jpg,ムク,CartoonStims/cowboy_r.jpg,right,CartoonStims/cowboy_r.jpg,audio/muku.mp3,残念！ こちらが正しい画像です。,,,,,,,,,,,,,,,,,,,,,,,,,,,,,,,,,,,,,,,,,,,,,,,
,,,,,,,,,R_3LZ7oGrWve20dcZ,2022-07-07_01h15.11.561,jpn_C02,2022.1.2,MacIntel,62.5,,,,,,,,,,,,,,,,,right,1,1.42,0,0,0,0,1,,,,,,,,,,,,,,,,,,,,,,,,,,,,,,,,,,,,,,,,,,,,,,,,,,,,,,,,,,,
,,,,,,,,,R_3LZ7oGrWve20dcZ,2022-07-07_01h15.11.561,jpn_C02,2022.1.2,MacIntel,62.5,,,,,,,,,,,,,,,,,,,,,,,,,0,1,1,11,1,CartoonStims/burglar_r.jpg,ドキ,CartoonStims/boxer_r.jpg,right,CartoonStims/boxer_r.jpg,audio/doki.mp3,残念！ こちらが正しい画像です。,,,,,,,,,,,,,,,,,,,,,,,,,,,,,,,,,,,,,,,,,,,,,,,
,,,,,,,,,R_3LZ7oGrWve20dcZ,2022-07-07_01h15.11.561,jpn_C02,2022.1.2,MacIntel,62.5,,,,,,,,,,,,,,,,,left,1,1.153,,,,,,,,,,,,,,,,,,0,0,0,0,1,,,,,,,,,,,,,,,,,,,,,,,,,,,,,,,,,,,,,,,,,,
,,,,,,,,,R_3LZ7oGrWve20dcZ,2022-07-07_01h15.11.561,jpn_C02,2022.1.2,MacIntel,62.5,,,,,,,,,,,,,,,,,,,,,,,,,0,2,2,5,1,CartoonStims/boxer_r.jpg,ドキ,CartoonStims/artist_r.jpg,left,CartoonStims/boxer_r.jpg,audio/doki.mp3,残念！ こちらが正しい画像です。,,,,,,,,,,,,,,,,,,,,,,,,,,,,,,,,,,,,,,,,,,,,,,,
,,,,,,,,,R_3LZ7oGrWve20dcZ,2022-07-07_01h15.11.561,jpn_C02,2022.1.2,MacIntel,62.5,,,,,,,,,,,,,,,,,right,1,0.837,0,0,0,0,1,,,,,,,,,,,,,,,,,,,,,,,,,,,,,,,,,,,,,,,,,,,,,,,,,,,,,,,,,,,
,,,,,,,,,R_3LZ7oGrWve20dcZ,2022-07-07_01h15.11.561,jpn_C02,2022.1.2,MacIntel,62.5,,,,,,,,,,,,,,,,,,,,,,,,,0,3,3,7,1,CartoonStims/cowboy_r.jpg,ルピン,CartoonStims/burglar_r.jpg,right,CartoonStims/burglar_r.jpg,audio/lupin.mp3,残念！ こちらが正しい画像です。,,,,,,,,,,,,,,,,,,,,,,,,,,,,,,,,,,,,,,,,,,,,,,,
,,,,,,,,,R_3LZ7oGrWve20dcZ,2022-07-07_01h15.11.561,jpn_C02,2022.1.2,MacIntel,62.5,,,,,,,,,,,,,,,,,left,1,1.15,,,,,,,,,,,,,,,,,,0,0,0,0,1,,,,,,,,,,,,,,,,,,,,,,,,,,,,,,,,,,,,,,,,,,
,,,,,,,,,R_3LZ7oGrWve20dcZ,2022-07-07_01h15.11.561,jpn_C02,2022.1.2,MacIntel,62.5,,,,,,,,,,,,,,,,,,,,,,,,,0,4,4,0,1,CartoonStims/artist_r.jpg,シド,CartoonStims/burglar_r.jpg,left,CartoonStims/artist_r.jpg,audio/sido.mp3,残念！ こちらが正しい画像です。,,,,,,,,,,,,,,,,,,,,,,,,,,,,,,,,,,,,,,,,,,,,,,,
,,,,,,,,,R_3LZ7oGrWve20dcZ,2022-07-07_01h15.11.561,jpn_C02,2022.1.2,MacIntel,62.5,,,,,,,,,,,,,,,,,left,1,1.651,,,,,,,,,,,,,,,,,,0,0,0,0,1,,,,,,,,,,,,,,,,,,,,,,,,,,,,,,,,,,,,,,,,,,
,,,,,,,,,R_3LZ7oGrWve20dcZ,2022-07-07_01h15.11.561,jpn_C02,2022.1.2,MacIntel,62.5,,,,,,,,,,,,,,,,,,,,,,,,,0,5,5,3,1,CartoonStims/cowboy_r.jpg,ムク,CartoonStims/doctor_r.jpg,left,CartoonStims/cowboy_r.jpg,audio/muku.mp3,残念！ こちらが正しい画像です。,,,,,,,,,,,,,,,,,,,,,,,,,,,,,,,,,,,,,,,,,,,,,,,
,,,,,,,,,R_3LZ7oGrWve20dcZ,2022-07-07_01h15.11.561,jpn_C02,2022.1.2,MacIntel,62.5,,,,,,,,,,,,,,,,,right,1,1.335,0,0,0,0,1,,,,,,,,,,,,,,,,,,,,,,,,,,,,,,,,,,,,,,,,,,,,,,,,,,,,,,,,,,,
,,,,,,,,,R_3LZ7oGrWve20dcZ,2022-07-07_01h15.11.561,jpn_C02,2022.1.2,MacIntel,62.5,,,,,,,,,,,,,,,,,,,,,,,,,0,6,6,8,1,CartoonStims/doctor_r.jpg,ホレト,CartoonStims/chef_r.jpg,right,CartoonStims/chef_r.jpg,audio/horeto.mp3,残念！ こちらが正しい画像です。,,,,,,,,,,,,,,,,,,,,,,,,,,,,,,,,,,,,,,,,,,,,,,,
,,,,,,,,,R_3LZ7oGrWve20dcZ,2022-07-07_01h15.11.561,jpn_C02,2022.1.2,MacIntel,62.5,,,,,,,,,,,,,,,,,right,1,2.423,0,0,0,0,1,,,,,,,,,,,,,,,,,,,,,,,,,,,,,,,,,,,,,,,,,,,,,,,,,,,,,,,,,,,
,,,,,,,,,R_3LZ7oGrWve20dcZ,2022-07-07_01h15.11.561,jpn_C02,2022.1.2,MacIntel,62.5,,,,,,,,,,,,,,,,,,,,,,,,,0,7,7,6,1,CartoonStims/chef_r.jpg,シド,CartoonStims/artist_r.jpg,right,CartoonStims/artist_r.jpg,audio/sido.mp3,残念！ こちらが正しい画像です。,,,,,,,,,,,,,,,,,,,,,,,,,,,,,,,,,,,,,,,,,,,,,,,
,,,,,,,,,R_3LZ7oGrWve20dcZ,2022-07-07_01h15.11.561,jpn_C02,2022.1.2,MacIntel,62.5,,,,,,,,,,,,,,,,,left,1,0.667,,,,,,,,,,,,,,,,,,0,0,0,0,1,,,,,,,,,,,,,,,,,,,,,,,,,,,,,,,,,,,,,,,,,,
,,,,,,,,,R_3LZ7oGrWve20dcZ,2022-07-07_01h15.11.561,jpn_C02,2022.1.2,MacIntel,62.5,,,,,,,,,,,,,,,,,,,,,,,,,0,8,8,4,1,CartoonStims/doctor_r.jpg,ピポ,CartoonStims/boxer_r.jpg,left,CartoonStims/doctor_r.jpg,audio/pipo.mp3,残念！ こちらが正しい画像です。,,,,,,,,,,,,,,,,,,,,,,,,,,,,,,,,,,,,,,,,,,,,,,,
,,,,,,,,,R_3LZ7oGrWve20dcZ,2022-07-07_01h15.11.561,jpn_C02,2022.1.2,MacIntel,62.5,,,,,,,,,,,,,,,,,left,1,2.653,,,,,,,,,,,,,,,,,,0,0,0,0,1,,,,,,,,,,,,,,,,,,,,,,,,,,,,,,,,,,,,,,,,,,
,,,,,,,,,R_3LZ7oGrWve20dcZ,2022-07-07_01h15.11.561,jpn_C02,2022.1.2,MacIntel,62.5,,,,,,,,,,,,,,,,,,,,,,,,,0,9,9,2,1,CartoonStims/chef_r.jpg,ホレト,CartoonStims/cowboy_r.jpg,left,CartoonStims/chef_r.jpg,audio/horeto.mp3,残念！ こちらが正しい画像です。,,,,,,,,,,,,,,,,,,,,,,,,,,,,,,,,,,,,,,,,,,,,,,,
,,,,,,,,,R_3LZ7oGrWve20dcZ,2022-07-07_01h15.11.561,jpn_C02,2022.1.2,MacIntel,62.5,,,,,,,,,,,,,,,,,left,1,0.357,,,,,,,,,,,,,,,,,,0,0,0,0,1,,,,,,,,,,,,,,,,,,,,,,,,,,,,,,,,,,,,,,,,,,
,,,,,,,,,R_3LZ7oGrWve20dcZ,2022-07-07_01h15.11.561,jpn_C02,2022.1.2,MacIntel,62.5,,,,,,,,,,,,,,,,,,,,,,,,,0,10,10,1,1,CartoonStims/burglar_r.jpg,ルピン,CartoonStims/chef_r.jpg,left,CartoonStims/burglar_r.jpg,audio/lupin.mp3,残念！ こちらが正しい画像です。,,,,,,,,,,,,,,,,,,,,,,,,,,,,,,,,,,,,,,,,,,,,,,,
,,,,,,,,,R_3LZ7oGrWve20dcZ,2022-07-07_01h15.11.561,jpn_C02,2022.1.2,MacIntel,62.5,,,,,,,,,,,,,,,,,right,1,1.035,0,0,0,0,1,,,,,,,,,,,,,,,,,,,,,,,,,,,,,,,,,,,,,,,,,,,,,,,,,,,,,,,,,,,
,,,,,,,,,R_3LZ7oGrWve20dcZ,2022-07-07_01h15.11.561,jpn_C02,2022.1.2,MacIntel,62.5,,,,,,,,,,,,,,,,,,,,,,,,,0,11,11,10,1,CartoonStims/artist_r.jpg,ピポ,CartoonStims/doctor_r.jpg,right,CartoonStims/doctor_r.jpg,audio/pipo.mp3,残念！ こちらが正しい画像です。,,,,,,,,,,,,,,,,,,,,,,,,,,,,,,,,,,,,,,,,,,,,,,,
,,,,,,,,,R_3LZ7oGrWve20dcZ,2022-07-07_01h15.11.561,jpn_C02,2022.1.2,MacIntel,62.5,,,,,,,,,,,,,,,,,,,,,,,,,,,,,,,,,,,,,,,,,,space,3.451,シド,right,15.717,0,0,0,0,1,,,,,,,,,,,,,,,,,,,,,,,,,,,,,,,,
,,,,,,,,,R_3LZ7oGrWve20dcZ,2022-07-07_01h15.11.561,jpn_C02,2022.1.2,MacIntel,62.5,,,,,,,,,,,,,CartoonStims/artist_r.jpg,audio/sido.mp3,,,,,,,,,,,,,,,,,,,,,,,,,,,,,,,,,,,,,,0,0,0,0,1,シド,,,,,,,,,,,,,,,,,,,,,,,,,,
,,,,,,,,,R_3LZ7oGrWve20dcZ,2022-07-07_01h15.11.561,jpn_C02,2022.1.2,MacIntel,62.5,,,,,,,,,,,,,,,,,,,,,,,,,,,,,,,,,,,,,,,,,,,,ドキ,right,24.407,0,0,0,0,1,,,,,,,,,,,,,,,,,,,,,,,,,,,,,,,,
,,,,,,,,,R_3LZ7oGrWve20dcZ,2022-07-07_01h15.11.561,jpn_C02,2022.1.2,MacIntel,62.5,,,,,,,,,,,,,CartoonStims/boxer_r.jpg,audio/doki.mp3,,,,,,,,,,,,,,,,,,,,,,,,,,,,,,,,,,,,,,0,1,1,5,1,ドキ,,,,,,,,,,,,,,,,,,,,,,,,,,
,,,,,,,,,R_3LZ7oGrWve20dcZ,2022-07-07_01h15.11.561,jpn_C02,2022.1.2,MacIntel,62.5,,,,,,,,,,,,,,,,,,,,,,,,,,,,,,,,,,,,,,,,,,,,ルピン,right,5.379,0,0,0,0,1,,,,,,,,,,,,,,,,,,,,,,,,,,,,,,,,
,,,,,,,,,R_3LZ7oGrWve20dcZ,2022-07-07_01h15.11.561,jpn_C02,2022.1.2,MacIntel,62.5,,,,,,,,,,,,,CartoonStims/burglar_r.jpg,audio/lupin.mp3,,,,,,,,,,,,,,,,,,,,,,,,,,,,,,,,,,,,,,0,2,2,1,1,ルピン,,,,,,,,,,,,,,,,,,,,,,,,,,
,,,,,,,,,R_3LZ7oGrWve20dcZ,2022-07-07_01h15.11.561,jpn_C02,2022.1.2,MacIntel,62.5,,,,,,,,,,,,,,,,,,,,,,,,,,,,,,,,,,,,,,,,,,,,シド,right,7.596,0,0,0,0,1,,,,,,,,,,,,,,,,,,,,,,,,,,,,,,,,
,,,,,,,,,R_3LZ7oGrWve20dcZ,2022-07-07_01h15.11.561,jpn_C02,2022.1.2,MacIntel,62.5,,,,,,,,,,,,,CartoonStims/cowboy_r.jpg,audio/muku.mp3,,,,,,,,,,,,,,,,,,,,,,,,,,,,,,,,,,,,,,0,3,3,3,1,ムク,,,,,,,,,,,,,,,,,,,,,,,,,,
,,,,,,,,,R_3LZ7oGrWve20dcZ,2022-07-07_01h15.11.561,jpn_C02,2022.1.2,MacIntel,62.5,,,,,,,,,,,,,,,,,,,,,,,,,,,,,,,,,,,,,,,,,,,,ホレト,right,5.477,0,0,0,0,1,,,,,,,,,,,,,,,,,,,,,,,,,,,,,,,,
,,,,,,,,,R_3LZ7oGrWve20dcZ,2022-07-07_01h15.11.561,jpn_C02,2022.1.2,MacIntel,62.5,,,,,,,,,,,,,CartoonStims/chef_r.jpg,audio/horeto.mp3,,,,,,,,,,,,,,,,,,,,,,,,,,,,,,,,,,,,,,0,4,4,2,1,ホレト,,,,,,,,,,,,,,,,,,,,,,,,,,
,,,,,,,,,R_3LZ7oGrWve20dcZ,2022-07-07_01h15.11.561,jpn_C02,2022.1.2,MacIntel,62.5,,,,,,,,,,,,,,,,,,,,,,,,,,,,,,,,,,,,,,,,,,,,ピポ,right,4.87,0,0,0,0,1,,,,,,,,,,,,,,,,,,,,,,,,,,,,,,,,
,,,,,,,,,R_3LZ7oGrWve20dcZ,2022-07-07_01h15.11.561,jpn_C02,2022.1.2,MacIntel,62.5,,,,,,,,,,,,,CartoonStims/doctor_r.jpg,audio/pipo.mp3,,,,,,,,,,,,,,,,,,,,,,,,,,,,,,,,,,,,,,0,5,5,4,1,ピポ,,,,,,,,,,,,,,,,,,,,,,,,,,
,,,,,,,,,R_3LZ7oGrWve20dcZ,2022-07-07_01h15.11.561,jpn_C02,2022.1.2,MacIntel,62.5,,,,,,,,,,,,,,,,,,,,,,,,,,,,,,,,,,,,,,,,,,,,ドキ,right,3.379,0,0,0,0,1,,,,,,,,,,,,,,,,,,,,,,,,,,,,,,,,
,,,,,,,,,R_3LZ7oGrWve20dcZ,2022-07-07_01h15.11.561,jpn_C02,2022.1.2,MacIntel,62.5,,,,,,,,,,,,,CartoonStims/boxer_r.jpg,audio/doki.mp3,,,,,,,,,,,,,,,,,,,,,,,,,,,,,,,,,,,,,,1,0,6,5,1,ドキ,,,,,,,,,,,,,,,,,,,,,,,,,,
,,,,,,,,,R_3LZ7oGrWve20dcZ,2022-07-07_01h15.11.561,jpn_C02,2022.1.2,MacIntel,62.5,,,,,,,,,,,,,,,,,,,,,,,,,,,,,,,,,,,,,,,,,,,,ムク,right,6.731,0,0,0,0,1,,,,,,,,,,,,,,,,,,,,,,,,,,,,,,,,
,,,,,,,,,R_3LZ7oGrWve20dcZ,2022-07-07_01h15.11.561,jpn_C02,2022.1.2,MacIntel,62.5,,,,,,,,,,,,,CartoonStims/cowboy_r.jpg,audio/muku.mp3,,,,,,,,,,,,,,,,,,,,,,,,,,,,,,,,,,,,,,1,1,7,3,1,ムク,,,,,,,,,,,,,,,,,,,,,,,,,,
,,,,,,,,,R_3LZ7oGrWve20dcZ,2022-07-07_01h15.11.561,jpn_C02,2022.1.2,MacIntel,62.5,,,,,,,,,,,,,,,,,,,,,,,,,,,,,,,,,,,,,,,,,,,,ピポ,right,2.867,0,0,0,0,1,,,,,,,,,,,,,,,,,,,,,,,,,,,,,,,,
,,,,,,,,,R_3LZ7oGrWve20dcZ,2022-07-07_01h15.11.561,jpn_C02,2022.1.2,MacIntel,62.5,,,,,,,,,,,,,CartoonStims/doctor_r.jpg,audio/pipo.mp3,,,,,,,,,,,,,,,,,,,,,,,,,,,,,,,,,,,,,,1,2,8,4,1,ピポ,,,,,,,,,,,,,,,,,,,,,,,,,,
,,,,,,,,,R_3LZ7oGrWve20dcZ,2022-07-07_01h15.11.561,jpn_C02,2022.1.2,MacIntel,62.5,,,,,,,,,,,,,,,,,,,,,,,,,,,,,,,,,,,,,,,,,,,,ルピン,right,3.928,0,0,0,0,1,,,,,,,,,,,,,,,,,,,,,,,,,,,,,,,,
,,,,,,,,,R_3LZ7oGrWve20dcZ,2022-07-07_01h15.11.561,jpn_C02,2022.1.2,MacIntel,62.5,,,,,,,,,,,,,CartoonStims/burglar_r.jpg,audio/lupin.mp3,,,,,,,,,,,,,,,,,,,,,,,,,,,,,,,,,,,,,,1,3,9,1,1,ルピン,,,,,,,,,,,,,,,,,,,,,,,,,,
,,,,,,,,,R_3LZ7oGrWve20dcZ,2022-07-07_01h15.11.561,jpn_C02,2022.1.2,MacIntel,62.5,,,,,,,,,,,,,,,,,,,,,,,,,,,,,,,,,,,,,,,,,,,,シド,right,3.632,0,0,0,0,1,,,,,,,,,,,,,,,,,,,,,,,,,,,,,,,,
,,,,,,,,,R_3LZ7oGrWve20dcZ,2022-07-07_01h15.11.561,jpn_C02,2022.1.2,MacIntel,62.5,,,,,,,,,,,,,CartoonStims/artist_r.jpg,audio/sido.mp3,,,,,,,,,,,,,,,,,,,,,,,,,,,,,,,,,,,,,,1,4,10,0,1,シド,,,,,,,,,,,,,,,,,,,,,,,,,,
,,,,,,,,,R_3LZ7oGrWve20dcZ,2022-07-07_01h15.11.561,jpn_C02,2022.1.2,MacIntel,62.5,,,,,,,,,,,,,,,,,,,,,,,,,,,,,,,,,,,,,,,,,,,,ホレト,right,4.428,0,0,0,0,1,,,,,,,,,,,,,,,,,,,,,,,,,,,,,,,,
,,,,,,,,,R_3LZ7oGrWve20dcZ,2022-07-07_01h15.11.561,jpn_C02,2022.1.2,MacIntel,62.5,,,,,,,,,,,,,CartoonStims/chef_r.jpg,audio/horeto.mp3,,,,,,,,,,,,,,,,,,,,,,,,,,,,,,,,,,,,,,1,5,11,2,1,ホレト,,,,,,,,,,,,,,,,,,,,,,,,,,
,,,,,,,,,R_3LZ7oGrWve20dcZ,2022-07-07_01h15.11.561,jpn_C02,2022.1.2,MacIntel,62.5,,,,,,,,,,,,,,,,,,,,,,,,,,,,,,,,,,,,,,,,,,,,,,,,,,,,,,,,,,,space,1.625,0,0,0,0,1,NounExposure.xlsx,"最初のトライアルでは、 画像が表示され、 その画像の下に単語が出てきます。 またこの単語の音も聞くことができます。 この音を大きな声で復唱してください。 そしてこの画像がどのような単語を示しているのか, 考えてみてください。 その後、 続きのボタンを押すと次の単語の学習が始まります。

スペースキーを押して、学習を始めましょう。",3,NounFCT.xlsx,ここから語彙のクイズが始まります。スクリーンに表示される単語に合う画像をキーボードの右と左の矢印キーを使って選択してください。,NounTest.xlsx,2,次に、これまで学習してきたことをアウトプットしていただきます。 表示される画像を描写していると思う単語を、テキストボックスにタイプしてください。,1,"ここまでが最初のトライアルです。ここで休憩をとっても構いません。

休憩が済みましたら、スペースキーを押して続きを始めましょう。",,,,,,,,
,,,,,,,,,R_3LZ7oGrWve20dcZ,2022-07-07_01h15.11.561,jpn_C02,2022.1.2,MacIntel,62.5,space,5.421,space,18.508,0,0,0,16,1,トマ　ホレト　ピポ,,,CartoonStims/chef_point_doctor_r.jpg,audio/tomahoretopipo.mp3,,,,,,,,,,,,,,,,,,,,,,,,,,,,,,,,,,,,,,,,,,,,,,,,,,,,,,,,,,,,,,,,,,,,,
,,,,,,,,,R_3LZ7oGrWve20dcZ,2022-07-07_01h15.11.561,jpn_C02,2022.1.2,MacIntel,62.5,,,space,8.472,0,1,1,6,1,セル　ムク　ピポ,,,CartoonStims/cowboy_kick_doctor_r.jpg,audio/serumukupipo.mp3,,,,,,,,,,,,,,,,,,,,,,,,,,,,,,,,,,,,,,,,,,,,,,,,,,,,,,,,,,,,,,,,,,,,,
,,,,,,,,,R_3LZ7oGrWve20dcZ,2022-07-07_01h15.11.561,jpn_C02,2022.1.2,MacIntel,62.5,,,space,8.542,0,2,2,30,1,パツ　ムク　シド,,,CartoonStims/cowboy_shoot_artist_r.jpg,audio/patsumukusido.mp3,,,,,,,,,,,,,,,,,,,,,,,,,,,,,,,,,,,,,,,,,,,,,,,,,,,,,,,,,,,,,,,,,,,,,
,,,,,,,,,R_3LZ7oGrWve20dcZ,2022-07-07_01h15.11.561,jpn_C02,2022.1.2,MacIntel,62.5,,,space,3.257,0,3,3,18,1,トマ　ムク　ドキ,,,CartoonStims/cowboy_point_boxer_r.jpg,audio/tomamukudoki.mp3,,,,,,,,,,,,,,,,,,,,,,,,,,,,,,,,,,,,,,,,,,,,,,,,,,,,,,,,,,,,,,,,,,,,,
,,,,,,,,,R_3LZ7oGrWve20dcZ,2022-07-07_01h15.11.561,jpn_C02,2022.1.2,MacIntel,62.5,,,space,11.043,0,4,4,32,1,パツ　ピポ　ルピン,,,CartoonStims/doctor_shoot_burglar_r.jpg,audio/patsupipolupin.mp3,,,,,,,,,,,,,,,,,,,,,,,,,,,,,,,,,,,,,,,,,,,,,,,,,,,,,,,,,,,,,,,,,,,,,
,,,,,,,,,R_3LZ7oGrWve20dcZ,2022-07-07_01h15.11.561,jpn_C02,2022.1.2,MacIntel,62.5,,,space,2.792,0,5,5,28,1,パツ　ホレト　ドキ,,,CartoonStims/chef_shoot_boxer_r.jpg,audio/patsuhoretodoki.mp3,,,,,,,,,,,,,,,,,,,,,,,,,,,,,,,,,,,,,,,,,,,,,,,,,,,,,,,,,,,,,,,,,,,,,
,,,,,,,,,R_3LZ7oGrWve20dcZ,2022-07-07_01h15.11.561,jpn_C02,2022.1.2,MacIntel,62.5,,,space,5.889,0,6,6,17,1,トマ　ホレト　ドキ,,,CartoonStims/chef_point_boxer_r.jpg,audio/tomahoretodoki.mp3,,,,,,,,,,,,,,,,,,,,,,,,,,,,,,,,,,,,,,,,,,,,,,,,,,,,,,,,,,,,,,,,,,,,,
,,,,,,,,,R_3LZ7oGrWve20dcZ,2022-07-07_01h15.11.561,jpn_C02,2022.1.2,MacIntel,62.5,,,space,8.956,0,7,7,5,1,セル　ホレト　ピポ,,,CartoonStims/chef_kick_doctor_r.jpg,audio/seruhoretopipo.mp3,,,,,,,,,,,,,,,,,,,,,,,,,,,,,,,,,,,,,,,,,,,,,,,,,,,,,,,,,,,,,,,,,,,,,
,,,,,,,,,R_3LZ7oGrWve20dcZ,2022-07-07_01h15.11.561,jpn_C02,2022.1.2,MacIntel,62.5,,,space,3.576,0,8,8,39,1,プミ　ルピン　シド,,,CartoonStims/burglar_punch_artist_r.jpg,audio/pumilupinsido.mp3,,,,,,,,,,,,,,,,,,,,,,,,,,,,,,,,,,,,,,,,,,,,,,,,,,,,,,,,,,,,,,,,,,,,,
,,,,,,,,,R_3LZ7oGrWve20dcZ,2022-07-07_01h15.11.561,jpn_C02,2022.1.2,MacIntel,62.5,,,space,2.392,0,9,9,12,1,トマ　シド　ホレト,,,CartoonStims/artist_point_chef_r.jpg,audio/tomasidohoreto.mp3,,,,,,,,,,,,,,,,,,,,,,,,,,,,,,,,,,,,,,,,,,,,,,,,,,,,,,,,,,,,,,,,,,,,,
,,,,,,,,,R_3LZ7oGrWve20dcZ,2022-07-07_01h15.11.561,jpn_C02,2022.1.2,MacIntel,62.5,,,space,1.887,0,10,10,38,1,プミ　ルピン　ドキ,,,CartoonStims/burglar_punch_boxer_r.jpg,audio/pumilupindoki.mp3,,,,,,,,,,,,,,,,,,,,,,,,,,,,,,,,,,,,,,,,,,,,,,,,,,,,,,,,,,,,,,,,,,,,,
,,,,,,,,,R_3LZ7oGrWve20dcZ,2022-07-07_01h15.11.561,jpn_C02,2022.1.2,MacIntel,62.5,,,space,1.821,0,11,11,44,1,プミ　ピポ　ホレト,,,CartoonStims/doctor_punch_chef_r.jpg,audio/pumipipohoreto.mp3,,,,,,,,,,,,,,,,,,,,,,,,,,,,,,,,,,,,,,,,,,,,,,,,,,,,,,,,,,,,,,,,,,,,,
,,,,,,,,,R_3LZ7oGrWve20dcZ,2022-07-07_01h15.11.561,jpn_C02,2022.1.2,MacIntel,62.5,,,space,2.823,0,12,12,42,1,プミ　ムク　ルピン,,,CartoonStims/cowboy_punch_burglar_r.jpg,audio/pumimukulupin.mp3,,,,,,,,,,,,,,,,,,,,,,,,,,,,,,,,,,,,,,,,,,,,,,,,,,,,,,,,,,,,,,,,,,,,,
,,,,,,,,,R_3LZ7oGrWve20dcZ,2022-07-07_01h15.11.561,jpn_C02,2022.1.2,MacIntel,62.5,,,space,1.754,0,13,13,0,1,セル　シド　ルピン,,,CartoonStims/artist_kick_burglar_r.jpg,audio/serusidolupin.mp3,,,,,,,,,,,,,,,,,,,,,,,,,,,,,,,,,,,,,,,,,,,,,,,,,,,,,,,,,,,,,,,,,,,,,
,,,,,,,,,R_3LZ7oGrWve20dcZ,2022-07-07_01h15.11.561,jpn_C02,2022.1.2,MacIntel,62.5,,,space,1.734,0,14,14,21,1,トマ　ピポ　ルピン,,,CartoonStims/doctor_point_burglar_r.jpg,audio/tomapipolupin.mp3,,,,,,,,,,,,,,,,,,,,,,,,,,,,,,,,,,,,,,,,,,,,,,,,,,,,,,,,,,,,,,,,,,,,,
,,,,,,,,,R_3LZ7oGrWve20dcZ,2022-07-07_01h15.11.561,jpn_C02,2022.1.2,MacIntel,62.5,,,space,4.069,0,15,15,4,1,セル　ホレト　ムク,,,CartoonStims/chef_kick_cowboy_r.jpg,audio/seruhoretomuku.mp3,,,,,,,,,,,,,,,,,,,,,,,,,,,,,,,,,,,,,,,,,,,,,,,,,,,,,,,,,,,,,,,,,,,,,
,,,,,,,,,R_3LZ7oGrWve20dcZ,2022-07-07_01h15.11.561,jpn_C02,2022.1.2,MacIntel,62.5,,,space,2.738,0,16,16,45,1,プミ　ピポ　ムク,,,CartoonStims/doctor_punch_cowboy_r.jpg,audio/pumipipomuku.mp3,,,,,,,,,,,,,,,,,,,,,,,,,,,,,,,,,,,,,,,,,,,,,,,,,,,,,,,,,,,,,,,,,,,,,
,,,,,,,,,R_3LZ7oGrWve20dcZ,2022-07-07_01h15.11.561,jpn_C02,2022.1.2,MacIntel,62.5,,,space,9.555,0,17,17,13,1,トマ　シド　ムク,,,CartoonStims/artist_point_cowboy_r.jpg,audio/tomasidomuku.mp3,,,,,,,,,,,,,,,,,,,,,,,,,,,,,,,,,,,,,,,,,,,,,,,,,,,,,,,,,,,,,,,,,,,,,
,,,,,,,,,R_3LZ7oGrWve20dcZ,2022-07-07_01h15.11.561,jpn_C02,2022.1.2,MacIntel,62.5,,,space,1.767,0,18,18,40,1,プミ　ホレト　シド,,,CartoonStims/chef_punch_artist_r.jpg,audio/pumihoretosido.mp3,,,,,,,,,,,,,,,,,,,,,,,,,,,,,,,,,,,,,,,,,,,,,,,,,,,,,,,,,,,,,,,,,,,,,
,,,,,,,,,R_3LZ7oGrWve20dcZ,2022-07-07_01h15.11.561,jpn_C02,2022.1.2,MacIntel,62.5,,,space,2.437,0,19,19,15,1,トマ　ルピン　ピポ,,,CartoonStims/burglar_point_doctor_r.jpg,audio/tomalupinpipo.mp3,,,,,,,,,,,,,,,,,,,,,,,,,,,,,,,,,,,,,,,,,,,,,,,,,,,,,,,,,,,,,,,,,,,,,
,,,,,,,,,R_3LZ7oGrWve20dcZ,2022-07-07_01h15.11.561,jpn_C02,2022.1.2,MacIntel,62.5,,,space,2.481,0,20,20,9,1,セル　ピポ　シド,,,CartoonStims/doctor_kick_artist_r.jpg,audio/serupiposido.mp3,,,,,,,,,,,,,,,,,,,,,,,,,,,,,,,,,,,,,,,,,,,,,,,,,,,,,,,,,,,,,,,,,,,,,
,,,,,,,,,R_3LZ7oGrWve20dcZ,2022-07-07_01h15.11.561,jpn_C02,2022.1.2,MacIntel,62.5,,,space,1.522,0,21,21,33,1,パツ　ピポ　ホレト,,,CartoonStims/doctor_shoot_chef_r.jpg,audio/patsupipohoreto.mp3,,,,,,,,,,,,,,,,,,,,,,,,,,,,,,,,,,,,,,,,,,,,,,,,,,,,,,,,,,,,,,,,,,,,,
,,,,,,,,,R_3LZ7oGrWve20dcZ,2022-07-07_01h15.11.561,jpn_C02,2022.1.2,MacIntel,62.5,,,space,1.561,0,22,22,10,1,セル　ドキ　シド,,,CartoonStims/boxer_kick_artist_r.jpg,audio/serudokisido.mp3,,,,,,,,,,,,,,,,,,,,,,,,,,,,,,,,,,,,,,,,,,,,,,,,,,,,,,,,,,,,,,,,,,,,,
,,,,,,,,,R_3LZ7oGrWve20dcZ,2022-07-07_01h15.11.561,jpn_C02,2022.1.2,MacIntel,62.5,,,space,1.485,0,23,23,41,1,プミ　ホレト　ルピン,,,CartoonStims/chef_punch_burglar_r.jpg,audio/pumihoretolupin.mp3,,,,,,,,,,,,,,,,,,,,,,,,,,,,,,,,,,,,,,,,,,,,,,,,,,,,,,,,,,,,,,,,,,,,,
,,,,,,,,,R_3LZ7oGrWve20dcZ,2022-07-07_01h15.11.561,jpn_C02,2022.1.2,MacIntel,62.5,,,space,1.411,0,24,24,22,1,トマ　ドキ　ルピン,,,CartoonStims/boxer_point_burglar_r.jpg,audio/tomadokilupin.mp3,,,,,,,,,,,,,,,,,,,,,,,,,,,,,,,,,,,,,,,,,,,,,,,,,,,,,,,,,,,,,,,,,,,,,
,,,,,,,,,R_3LZ7oGrWve20dcZ,2022-07-07_01h15.11.561,jpn_C02,2022.1.2,MacIntel,62.5,,,space,1.664,0,25,25,27,1,パツ　ルピン　ドキ,,,CartoonStims/burglar_shoot_boxer_r.jpg,audio/patsulupindoki.mp3,,,,,,,,,,,,,,,,,,,,,,,,,,,,,,,,,,,,,,,,,,,,,,,,,,,,,,,,,,,,,,,,,,,,,
,,,,,,,,,R_3LZ7oGrWve20dcZ,2022-07-07_01h15.11.561,jpn_C02,2022.1.2,MacIntel,62.5,,,space,2.575,0,26,26,3,1,セル　ルピン　ムク,,,CartoonStims/burglar_kick_cowboy_r.jpg,audio/serulupinmuku.mp3,,,,,,,,,,,,,,,,,,,,,,,,,,,,,,,,,,,,,,,,,,,,,,,,,,,,,,,,,,,,,,,,,,,,,
,,,,,,,,,R_3LZ7oGrWve20dcZ,2022-07-07_01h15.11.561,jpn_C02,2022.1.2,MacIntel,62.5,,,space,2.075,0,27,27,26,1,パツ　ルピン　ピポ,,,CartoonStims/burglar_shoot_doctor_r.jpg,audio/patsulupinpipo.mp3,,,,,,,,,,,,,,,,,,,,,,,,,,,,,,,,,,,,,,,,,,,,,,,,,,,,,,,,,,,,,,,,,,,,,
,,,,,,,,,R_3LZ7oGrWve20dcZ,2022-07-07_01h15.11.561,jpn_C02,2022.1.2,MacIntel,62.5,,,space,1.907,0,28,28,19,1,トマ　ムク　シド,,,CartoonStims/cowboy_point_artist_r.jpg,audio/tomamukusido.mp3,,,,,,,,,,,,,,,,,,,,,,,,,,,,,,,,,,,,,,,,,,,,,,,,,,,,,,,,,,,,,,,,,,,,,
,,,,,,,,,R_3LZ7oGrWve20dcZ,2022-07-07_01h15.11.561,jpn_C02,2022.1.2,MacIntel,62.5,,,space,7.423,0,29,29,7,1,セル　ムク　ドキ,,,CartoonStims/cowboy_kick_boxer_r.jpg,audio/serumukudoki.mp3,,,,,,,,,,,,,,,,,,,,,,,,,,,,,,,,,,,,,,,,,,,,,,,,,,,,,,,,,,,,,,,,,,,,,
,,,,,,,,,R_3LZ7oGrWve20dcZ,2022-07-07_01h15.11.561,jpn_C02,2022.1.2,MacIntel,62.5,,,space,6.789,0,30,30,34,1,パツ　ドキ　ホレト,,,CartoonStims/boxer_shoot_chef_r.jpg,audio/patsudokihoreto.mp3,,,,,,,,,,,,,,,,,,,,,,,,,,,,,,,,,,,,,,,,,,,,,,,,,,,,,,,,,,,,,,,,,,,,,
,,,,,,,,,R_3LZ7oGrWve20dcZ,2022-07-07_01h15.11.561,jpn_C02,2022.1.2,MacIntel,62.5,,,space,2.462,0,31,31,11,1,セル　ドキ　ルピン,,,CartoonStims/boxer_kick_burglar_r.jpg,audio/serudokilupin.mp3,,,,,,,,,,,,,,,,,,,,,,,,,,,,,,,,,,,,,,,,,,,,,,,,,,,,,,,,,,,,,,,,,,,,,
,,,,,,,,,R_3LZ7oGrWve20dcZ,2022-07-07_01h15.11.561,jpn_C02,2022.1.2,MacIntel,62.5,,,space,1.874,0,32,32,14,1,トマ　ルピン　ムク,,,CartoonStims/burglar_point_cowboy_r.jpg,audio/tomalupinmuku.mp3,,,,,,,,,,,,,,,,,,,,,,,,,,,,,,,,,,,,,,,,,,,,,,,,,,,,,,,,,,,,,,,,,,,,,
,,,,,,,,,R_3LZ7oGrWve20dcZ,2022-07-07_01h15.11.561,jpn_C02,2022.1.2,MacIntel,62.5,,,space,2.276,0,33,33,20,1,トマ　ピポ　シド,,,CartoonStims/doctor_point_artist_r.jpg,audio/tomapiposido.mp3,,,,,,,,,,,,,,,,,,,,,,,,,,,,,,,,,,,,,,,,,,,,,,,,,,,,,,,,,,,,,,,,,,,,,
,,,,,,,,,R_3LZ7oGrWve20dcZ,2022-07-07_01h15.11.561,jpn_C02,2022.1.2,MacIntel,62.5,,,space,1.386,0,34,34,23,1,トマ　ドキ　ホレト,,,CartoonStims/boxer_point_chef_r.jpg,audio/tomadokihoreto.mp3,,,,,,,,,,,,,,,,,,,,,,,,,,,,,,,,,,,,,,,,,,,,,,,,,,,,,,,,,,,,,,,,,,,,,
,,,,,,,,,R_3LZ7oGrWve20dcZ,2022-07-07_01h15.11.561,jpn_C02,2022.1.2,MacIntel,62.5,,,space,1.807,0,35,35,1,1,セル 　シド 　ホレト,,,CartoonStims/artist_kick_chef_r.jpg,audio/serusidohoreto.mp3,,,,,,,,,,,,,,,,,,,,,,,,,,,,,,,,,,,,,,,,,,,,,,,,,,,,,,,,,,,,,,,,,,,,,
,,,,,,,,,R_3LZ7oGrWve20dcZ,2022-07-07_01h15.11.561,jpn_C02,2022.1.2,MacIntel,62.5,,,space,3.406,0,36,36,31,1,パツ　ムク　ルピン,,,CartoonStims/cowboy_shoot_burglar_r.jpg,audio/patsumukulupin.mp3,,,,,,,,,,,,,,,,,,,,,,,,,,,,,,,,,,,,,,,,,,,,,,,,,,,,,,,,,,,,,,,,,,,,,
,,,,,,,,,R_3LZ7oGrWve20dcZ,2022-07-07_01h15.11.561,jpn_C02,2022.1.2,MacIntel,62.5,,,space,2.812,0,37,37,29,1,パツ　ホレト　シド,,,CartoonStims/chef_shoot_artist_r.jpg,audio/patsuhoretosido.mp3,,,,,,,,,,,,,,,,,,,,,,,,,,,,,,,,,,,,,,,,,,,,,,,,,,,,,,,,,,,,,,,,,,,,,
,,,,,,,,,R_3LZ7oGrWve20dcZ,2022-07-07_01h15.11.561,jpn_C02,2022.1.2,MacIntel,62.5,,,space,3.412,0,38,38,36,1,プミ　シド　ピポ,,,CartoonStims/artist_punch_doctor_r.jpg,audio/pumisidopipo.mp3,,,,,,,,,,,,,,,,,,,,,,,,,,,,,,,,,,,,,,,,,,,,,,,,,,,,,,,,,,,,,,,,,,,,,
,,,,,,,,,R_3LZ7oGrWve20dcZ,2022-07-07_01h15.11.561,jpn_C02,2022.1.2,MacIntel,62.5,,,space,1.867,0,39,39,46,1,プミ　ドキ　ムク,,,CartoonStims/boxer_punch_cowboy_r.jpg,audio/pumidokimuku.mp3,,,,,,,,,,,,,,,,,,,,,,,,,,,,,,,,,,,,,,,,,,,,,,,,,,,,,,,,,,,,,,,,,,,,,
,,,,,,,,,R_3LZ7oGrWve20dcZ,2022-07-07_01h15.11.561,jpn_C02,2022.1.2,MacIntel,62.5,,,space,2.451,0,40,40,47,1,プミ　ドキ　ピポ,,,CartoonStims/boxer_punch_doctor_r.jpg,audio/pumidokipipo.mp3,,,,,,,,,,,,,,,,,,,,,,,,,,,,,,,,,,,,,,,,,,,,,,,,,,,,,,,,,,,,,,,,,,,,,
,,,,,,,,,R_3LZ7oGrWve20dcZ,2022-07-07_01h15.11.561,jpn_C02,2022.1.2,MacIntel,62.5,,,space,3.626,0,41,41,37,1,プミ　シド　ドキ,,,CartoonStims/artist_punch_boxer_r.jpg,audio/pumisidodoki.mp3,,,,,,,,,,,,,,,,,,,,,,,,,,,,,,,,,,,,,,,,,,,,,,,,,,,,,,,,,,,,,,,,,,,,,
,,,,,,,,,R_3LZ7oGrWve20dcZ,2022-07-07_01h15.11.561,jpn_C02,2022.1.2,MacIntel,62.5,,,space,9.644,0,42,42,24,1,パツ　シド　ムク,,,CartoonStims/artist_shoot_cowboy_r.jpg,audio/patsusidomuku.mp3,,,,,,,,,,,,,,,,,,,,,,,,,,,,,,,,,,,,,,,,,,,,,,,,,,,,,,,,,,,,,,,,,,,,,
,,,,,,,,,R_3LZ7oGrWve20dcZ,2022-07-07_01h15.11.561,jpn_C02,2022.1.2,MacIntel,62.5,,,space,1.422,0,43,43,2,1,セル 　ルピン 　ホレト,,,CartoonStims/burglar_kick_chef_r.jpg,audio/serulupinhoreto.mp3,,,,,,,,,,,,,,,,,,,,,,,,,,,,,,,,,,,,,,,,,,,,,,,,,,,,,,,,,,,,,,,,,,,,,
,,,,,,,,,R_3LZ7oGrWve20dcZ,2022-07-07_01h15.11.561,jpn_C02,2022.1.2,MacIntel,62.5,,,space,3.824,0,44,44,8,1,セル　ピポ　ドキ,,,CartoonStims/doctor_kick_boxer_r.jpg,audio/serupipodoki.mp3,,,,,,,,,,,,,,,,,,,,,,,,,,,,,,,,,,,,,,,,,,,,,,,,,,,,,,,,,,,,,,,,,,,,,
,,,,,,,,,R_3LZ7oGrWve20dcZ,2022-07-07_01h15.11.561,jpn_C02,2022.1.2,MacIntel,62.5,,,space,2.037,0,45,45,25,1,パツ　シド　ピポ,,,CartoonStims/artist_shoot_doctor_r.jpg,audio/patsusidopipo.mp3,,,,,,,,,,,,,,,,,,,,,,,,,,,,,,,,,,,,,,,,,,,,,,,,,,,,,,,,,,,,,,,,,,,,,
,,,,,,,,,R_3LZ7oGrWve20dcZ,2022-07-07_01h15.11.561,jpn_C02,2022.1.2,MacIntel,62.5,,,space,1.788,0,46,46,35,1,パツ　ドキ　ムク,,,CartoonStims/boxer_shoot_cowboy_r.jpg,audio/patsudokimuku.mp3,,,,,,,,,,,,,,,,,,,,,,,,,,,,,,,,,,,,,,,,,,,,,,,,,,,,,,,,,,,,,,,,,,,,,
,,,,,,,,,R_3LZ7oGrWve20dcZ,2022-07-07_01h15.11.561,jpn_C02,2022.1.2,MacIntel,62.5,,,space,7.706,0,47,47,43,1,プミ　ムク　ホレト,,,CartoonStims/cowboy_punch_chef_r.jpg,audio/pumimukuhoreto.mp3,,,,,,,,,,,,,,,,,,,,,,,,,,,,,,,,,,,,,,,,,,,,,,,,,,,,,,,,,,,,,,,,,,,,,
,,,,,,,,,R_3LZ7oGrWve20dcZ,2022-07-07_01h15.11.561,jpn_C02,2022.1.2,MacIntel,62.5,,,,,,,,,,,,,,,space,0.186,right,1,5.938,0,0,0,0,1,,,,,,,,,,,,,,,,,,,,,,,,,,,,,,,,,,,,,,,,,,,,,,,,,,,,,,,,,,,
,,,,,,,,,R_3LZ7oGrWve20dcZ,2022-07-07_01h15.11.561,jpn_C02,2022.1.2,MacIntel,62.5,,,,,,,,,,,,,,,,,,,,,,,,,0,0,0,9,1,CartoonStims/chef_kick_artist_r.jpg,セル　ムク　シド,CartoonStims/cowboy_kick_artist_r.jpg,right,CartoonStims/cowboy_kick_artist_r.jpg,audio/serumukusido.mp3,残念！ こちらが正しい画像です。,,,,,,,,,,,,,,,,,,,,,,,,,,,,,,,,,,,,,,,,,,,,,,,
,,,,,,,,,R_3LZ7oGrWve20dcZ,2022-07-07_01h15.11.561,jpn_C02,2022.1.2,MacIntel,62.5,,,,,,,,,,,,,,,,,right,1,1.777,0,0,0,0,1,,,,,,,,,,,,,,,,,,,,,,,,,,,,,,,,,,,,,,,,,,,,,,,,,,,,,,,,,,,
,,,,,,,,,R_3LZ7oGrWve20dcZ,2022-07-07_01h15.11.561,jpn_C02,2022.1.2,MacIntel,62.5,,,,,,,,,,,,,,,,,,,,,,,,,0,1,1,5,1,CartoonStims/cowboy_point_chef_r.jpg,パツ　ムク　ホレト,CartoonStims/cowboy_shoot_chef_r.jpg,right,CartoonStims/cowboy_shoot_chef_r.jpg,audio/patsumukuhoreto.mp3,残念！ こちらが正しい画像です。,,,,,,,,,,,,,,,,,,,,,,,,,,,,,,,,,,,,,,,,,,,,,,,
,,,,,,,,,R_3LZ7oGrWve20dcZ,2022-07-07_01h15.11.561,jpn_C02,2022.1.2,MacIntel,62.5,,,,,,,,,,,,,,,,,left,1,3.191,,,,,,,,,,,,,,,,,,0,0,0,0,1,,,,,,,,,,,,,,,,,,,,,,,,,,,,,,,,,,,,,,,,,,
,,,,,,,,,R_3LZ7oGrWve20dcZ,2022-07-07_01h15.11.561,jpn_C02,2022.1.2,MacIntel,62.5,,,,,,,,,,,,,,,,,,,,,,,,,0,2,2,2,1,CartoonStims/boxer_shoot_doctor_r.jpg,パツ　ドキ　ピポ,CartoonStims/boxer_shoot_artist_r.jpg,left,CartoonStims/boxer_shoot_doctor_r.jpg,audio/patsudokipipo.mp3,残念！ こちらが正しい画像です。,,,,,,,,,,,,,,,,,,,,,,,,,,,,,,,,,,,,,,,,,,,,,,,
,,,,,,,,,R_3LZ7oGrWve20dcZ,2022-07-07_01h15.11.561,jpn_C02,2022.1.2,MacIntel,62.5,,,,,,,,,,,,,,,,,right,1,4.692,0,0,0,0,1,,,,,,,,,,,,,,,,,,,,,,,,,,,,,,,,,,,,,,,,,,,,,,,,,,,,,,,,,,,
,,,,,,,,,R_3LZ7oGrWve20dcZ,2022-07-07_01h15.11.561,jpn_C02,2022.1.2,MacIntel,62.5,,,,,,,,,,,,,,,,,,,,,,,,,0,3,3,1,1,CartoonStims/chef_point_burglar_r.jpg,トマ　ホレト　シド,CartoonStims/chef_point_artist_r.jpg,right,CartoonStims/chef_point_artist_r.jpg,audio/tomahoretosido.mp3,残念！ こちらが正しい画像です。,,,,,,,,,,,,,,,,,,,,,,,,,,,,,,,,,,,,,,,,,,,,,,,
,,,,,,,,,R_3LZ7oGrWve20dcZ,2022-07-07_01h15.11.561,jpn_C02,2022.1.2,MacIntel,62.5,,,,,,,,,,,,,,,,,right,1,1.939,0,0,0,0,1,,,,,,,,,,,,,,,,,,,,,,,,,,,,,,,,,,,,,,,,,,,,,,,,,,,,,,,,,,,
,,,,,,,,,R_3LZ7oGrWve20dcZ,2022-07-07_01h15.11.561,jpn_C02,2022.1.2,MacIntel,62.5,,,,,,,,,,,,,,,,,,,,,,,,,0,4,4,3,1,CartoonStims/cowboy_punch_doctor_r.jpg,プミ　ムク　ドキ,CartoonStims/cowboy_punch_boxer_r.jpg,right,CartoonStims/cowboy_punch_boxer_r.jpg,audio/pumimukudoki.mp3,残念！ こちらが正しい画像です。,,,,,,,,,,,,,,,,,,,,,,,,,,,,,,,,,,,,,,,,,,,,,,,
,,,,,,,,,R_3LZ7oGrWve20dcZ,2022-07-07_01h15.11.561,jpn_C02,2022.1.2,MacIntel,62.5,,,,,,,,,,,,,,,,,left,1,3.591,,,,,,,,,,,,,,,,,,0,0,0,0,1,,,,,,,,,,,,,,,,,,,,,,,,,,,,,,,,,,,,,,,,,,
,,,,,,,,,R_3LZ7oGrWve20dcZ,2022-07-07_01h15.11.561,jpn_C02,2022.1.2,MacIntel,62.5,,,,,,,,,,,,,,,,,,,,,,,,,0,5,5,10,1,CartoonStims/artist_shoot_burglar_r.jpg,パツ　シド　ルピン,CartoonStims/chef_shoot_burglar_r.jpg,left,CartoonStims/artist_shoot_burglar_r.jpg,audio/patsusidolupin.mp3,残念！ こちらが正しい画像です。,,,,,,,,,,,,,,,,,,,,,,,,,,,,,,,,,,,,,,,,,,,,,,,
,,,,,,,,,R_3LZ7oGrWve20dcZ,2022-07-07_01h15.11.561,jpn_C02,2022.1.2,MacIntel,62.5,,,,,,,,,,,,,,,,,right,1,2.209,0,0,0,0,1,,,,,,,,,,,,,,,,,,,,,,,,,,,,,,,,,,,,,,,,,,,,,,,,,,,,,,,,,,,
,,,,,,,,,R_3LZ7oGrWve20dcZ,2022-07-07_01h15.11.561,jpn_C02,2022.1.2,MacIntel,62.5,,,,,,,,,,,,,,,,,,,,,,,,,0,6,6,11,1,CartoonStims/burglar_punch_cowboy_r.jpg,プミ　ホレト　ムク,CartoonStims/chef_punch_cowboy_r.jpg,right,CartoonStims/chef_punch_cowboy_r.jpg,audio/pumihoretomuku.mp3,残念！ こちらが正しい画像です。,,,,,,,,,,,,,,,,,,,,,,,,,,,,,,,,,,,,,,,,,,,,,,,
,,,,,,,,,R_3LZ7oGrWve20dcZ,2022-07-07_01h15.11.561,jpn_C02,2022.1.2,MacIntel,62.5,,,,,,,,,,,,,,,,,left,1,4.521,,,,,,,,,,,,,,,,,,0,0,0,0,1,,,,,,,,,,,,,,,,,,,,,,,,,,,,,,,,,,,,,,,,,,
,,,,,,,,,R_3LZ7oGrWve20dcZ,2022-07-07_01h15.11.561,jpn_C02,2022.1.2,MacIntel,62.5,,,,,,,,,,,,,,,,,,,,,,,,,0,7,7,8,1,CartoonStims/doctor_point_cowboy_r.jpg,トマ　ピポ　ムク,CartoonStims/boxer_point_cowboy_r.jpg,left,CartoonStims/doctor_point_cowboy_r.jpg,audio/tomapipomuku.mp3,残念！ こちらが正しい画像です。,,,,,,,,,,,,,,,,,,,,,,,,,,,,,,,,,,,,,,,,,,,,,,,
,,,,,,,,,R_3LZ7oGrWve20dcZ,2022-07-07_01h15.11.561,jpn_C02,2022.1.2,MacIntel,62.5,,,,,,,,,,,,,,,,,left,1,2.987,,,,,,,,,,,,,,,,,,0,0,0,0,1,,,,,,,,,,,,,,,,,,,,,,,,,,,,,,,,,,,,,,,,,,
,,,,,,,,,R_3LZ7oGrWve20dcZ,2022-07-07_01h15.11.561,jpn_C02,2022.1.2,MacIntel,62.5,,,,,,,,,,,,,,,,,,,,,,,,,0,8,8,6,1,CartoonStims/doctor_punch_boxer_r.jpg,プミ　ピポ　ドキ,CartoonStims/doctor_shoot_boxer_r.jpg,left,CartoonStims/doctor_punch_boxer_r.jpg,audio/pumipipodoki.mp3,残念！ こちらが正しい画像です。,,,,,,,,,,,,,,,,,,,,,,,,,,,,,,,,,,,,,,,,,,,,,,,
,,,,,,,,,R_3LZ7oGrWve20dcZ,2022-07-07_01h15.11.561,jpn_C02,2022.1.2,MacIntel,62.5,,,,,,,,,,,,,,,,,right,1,1.375,0,0,0,0,1,,,,,,,,,,,,,,,,,,,,,,,,,,,,,,,,,,,,,,,,,,,,,,,,,,,,,,,,,,,
,,,,,,,,,R_3LZ7oGrWve20dcZ,2022-07-07_01h15.11.561,jpn_C02,2022.1.2,MacIntel,62.5,,,,,,,,,,,,,,,,,,,,,,,,,0,9,9,7,1,CartoonStims/artist_punch_cowboy_r.jpg,セル　シド　ムク,CartoonStims/artist_kick_cowboy_r.jpg,right,CartoonStims/artist_kick_cowboy_r.jpg,audio/serusidomuku.mp3,残念！ こちらが正しい画像です。,,,,,,,,,,,,,,,,,,,,,,,,,,,,,,,,,,,,,,,,,,,,,,,
,,,,,,,,,R_3LZ7oGrWve20dcZ,2022-07-07_01h15.11.561,jpn_C02,2022.1.2,MacIntel,62.5,,,,,,,,,,,,,,,,,left,1,2.723,,,,,,,,,,,,,,,,,,0,0,0,0,1,,,,,,,,,,,,,,,,,,,,,,,,,,,,,,,,,,,,,,,,,,
,,,,,,,,,R_3LZ7oGrWve20dcZ,2022-07-07_01h15.11.561,jpn_C02,2022.1.2,MacIntel,62.5,,,,,,,,,,,,,,,,,,,,,,,,,0,10,10,4,1,CartoonStims/burglar_point_boxer_r.jpg,トマ　ルピン　ドキ,CartoonStims/burglar_kick_boxer_r.jpg,left,CartoonStims/burglar_point_boxer_r.jpg,audio/tomalupindoki.mp3,残念！ こちらが正しい画像です。,,,,,,,,,,,,,,,,,,,,,,,,,,,,,,,,,,,,,,,,,,,,,,,
,,,,,,,,,R_3LZ7oGrWve20dcZ,2022-07-07_01h15.11.561,jpn_C02,2022.1.2,MacIntel,62.5,,,,,,,,,,,,,,,,,left,1,2.584,,,,,,,,,,,,,,,,,,0,0,0,0,1,,,,,,,,,,,,,,,,,,,,,,,,,,,,,,,,,,,,,,,,,,
,,,,,,,,,R_3LZ7oGrWve20dcZ,2022-07-07_01h15.11.561,jpn_C02,2022.1.2,MacIntel,62.5,,,,,,,,,,,,,,,,,,,,,,,,,0,11,11,0,1,CartoonStims/doctor_kick_burglar_r.jpg,セル　ピポ　ルピン,CartoonStims/doctor_kick_chef_r.jpg,left,CartoonStims/doctor_kick_burglar_r.jpg,audio/serupipolupin.mp3,残念！ こちらが正しい画像です。,,,,,,,,,,,,,,,,,,,,,,,,,,,,,,,,,,,,,,,,,,,,,,,
,,,,,,,,,R_3LZ7oGrWve20dcZ,2022-07-07_01h15.11.561,jpn_C02,2022.1.2,MacIntel,62.5,,,,,,,,,,,,,,,,,,,,,,,,,,,,,,,,,,,,,,,,,,space,2.784,セル　ドキ　シド,right,16.762,0,0,0,0,1,,,,,,,,,,,,,,,,,,,,,,,,,,,,,,,,
,,,,,,,,,R_3LZ7oGrWve20dcZ,2022-07-07_01h15.11.561,jpn_C02,2022.1.2,MacIntel,62.5,,,,,,,,,,,,,CartoonStims/boxer_kick_cowboy_r.jpg,audio/serudokimuku.mp3,,,,,,,,,,,,,,,,,,,,,,,,,,,,,,,,,,,,,,0,0,0,2,1,セル　ドキ　ムク,,,,,,,,,,,,,,,,,,,,,,,,,,
,,,,,,,,,R_3LZ7oGrWve20dcZ,2022-07-07_01h15.11.561,jpn_C02,2022.1.2,MacIntel,62.5,,,,,,,,,,,,,,,,,,,,,,,,,,,,,,,,,,,,,,,,,,,,トマ　ムク　ドキ,right,16.216,0,0,0,0,1,,,,,,,,,,,,,,,,,,,,,,,,,,,,,,,,
,,,,,,,,,R_3LZ7oGrWve20dcZ,2022-07-07_01h15.11.561,jpn_C02,2022.1.2,MacIntel,62.5,,,,,,,,,,,,,CartoonStims/artist_point_boxer_r.jpg,audio/tomasidodoki.mp3,,,,,,,,,,,,,,,,,,,,,,,,,,,,,,,,,,,,,,0,1,1,3,1,トマ　シド　ドキ,,,,,,,,,,,,,,,,,,,,,,,,,,
,,,,,,,,,R_3LZ7oGrWve20dcZ,2022-07-07_01h15.11.561,jpn_C02,2022.1.2,MacIntel,62.5,,,,,,,,,,,,,,,,,,,,,,,,,,,,,,,,,,,,,,,,,,,,セル　ピポ　ホレト,right,14.532,0,0,0,0,1,,,,,,,,,,,,,,,,,,,,,,,,,,,,,,,,
,,,,,,,,,R_3LZ7oGrWve20dcZ,2022-07-07_01h15.11.561,jpn_C02,2022.1.2,MacIntel,62.5,,,,,,,,,,,,,CartoonStims/doctor_kick_chef_r.jpg,audio/serupipohoreto.mp3,,,,,,,,,,,,,,,,,,,,,,,,,,,,,,,,,,,,,,0,2,2,1,1,セル　ピポ　ホレト,,,,,,,,,,,,,,,,,,,,,,,,,,
,,,,,,,,,R_3LZ7oGrWve20dcZ,2022-07-07_01h15.11.561,jpn_C02,2022.1.2,MacIntel,62.5,,,,,,,,,,,,,,,,,,,,,,,,,,,,,,,,,,,,,,,,,,,,ムク　ルピン,right,36.185,0,0,0,0,1,,,,,,,,,,,,,,,,,,,,,,,,,,,,,,,,
,,,,,,,,,R_3LZ7oGrWve20dcZ,2022-07-07_01h15.11.561,jpn_C02,2022.1.2,MacIntel,62.5,,,,,,,,,,,,,CartoonStims/artist_punch_burglar_r.jpg,audio/pumisidolupin.mp3,,,,,,,,,,,,,,,,,,,,,,,,,,,,,,,,,,,,,,0,3,3,9,1,プミ　シド　ルピン,,,,,,,,,,,,,,,,,,,,,,,,,,
,,,,,,,,,R_3LZ7oGrWve20dcZ,2022-07-07_01h15.11.561,jpn_C02,2022.1.2,MacIntel,62.5,,,,,,,,,,,,,,,,,,,,,,,,,,,,,,,,,,,,,,,,,,,,トマ　ルピン　シド,right,14.808,0,0,0,0,1,,,,,,,,,,,,,,,,,,,,,,,,,,,,,,,,
,,,,,,,,,R_3LZ7oGrWve20dcZ,2022-07-07_01h15.11.561,jpn_C02,2022.1.2,MacIntel,62.5,,,,,,,,,,,,,CartoonStims/burglar_point_artist_r.jpg,audio/tomalupinsido.mp3,,,,,,,,,,,,,,,,,,,,,,,,,,,,,,,,,,,,,,0,4,4,4,1,トマ　ルピン　シド,,,,,,,,,,,,,,,,,,,,,,,,,,
,,,,,,,,,R_3LZ7oGrWve20dcZ,2022-07-07_01h15.11.561,jpn_C02,2022.1.2,MacIntel,62.5,,,,,,,,,,,,,,,,,,,,,,,,,,,,,,,,,,,,,,,,,,,,ピポ,right,3.791,0,0,0,0,1,,,,,,,,,,,,,,,,,,,,,,,,,,,,,,,,
,,,,,,,,,R_3LZ7oGrWve20dcZ,2022-07-07_01h15.11.561,jpn_C02,2022.1.2,MacIntel,62.5,,,,,,,,,,,,,CartoonStims/doctor_punch_boxer_r.jpg,audio/pumipipodoki.mp3,,,,,,,,,,,,,,,,,,,,,,,,,,,,,,,,,,,,,,0,5,5,10,1,プミ　ピポ　ドキ,,,,,,,,,,,,,,,,,,,,,,,,,,
,,,,,,,,,R_3LZ7oGrWve20dcZ,2022-07-07_01h15.11.561,jpn_C02,2022.1.2,MacIntel,62.5,,,,,,,,,,,,,,,,,,,,,,,,,,,,,,,,,,,,,,,,,,,,トマ　ホレト　ルピン,right,15.15,0,0,0,0,1,,,,,,,,,,,,,,,,,,,,,,,,,,,,,,,,
,,,,,,,,,R_3LZ7oGrWve20dcZ,2022-07-07_01h15.11.561,jpn_C02,2022.1.2,MacIntel,62.5,,,,,,,,,,,,,CartoonStims/chef_point_burglar_r.jpg,audio/tomahoretolupin.mp3,,,,,,,,,,,,,,,,,,,,,,,,,,,,,,,,,,,,,,0,6,6,5,1,トマ　ホレト　ルピン,,,,,,,,,,,,,,,,,,,,,,,,,,
,,,,,,,,,R_3LZ7oGrWve20dcZ,2022-07-07_01h15.11.561,jpn_C02,2022.1.2,MacIntel,62.5,,,,,,,,,,,,,,,,,,,,,,,,,,,,,,,,,,,,,,,,,,,,パツ,right,6.167,0,0,0,0,1,,,,,,,,,,,,,,,,,,,,,,,,,,,,,,,,
,,,,,,,,,R_3LZ7oGrWve20dcZ,2022-07-07_01h15.11.561,jpn_C02,2022.1.2,MacIntel,62.5,,,,,,,,,,,,,CartoonStims/chef_shoot_cowboy_r.jpg,audio/patsuhoretomuku.mp3,,,,,,,,,,,,,,,,,,,,,,,,,,,,,,,,,,,,,,0,7,7,7,1,パツ　ホレト　ムク,,,,,,,,,,,,,,,,,,,,,,,,,,
,,,,,,,,,R_3LZ7oGrWve20dcZ,2022-07-07_01h15.11.561,jpn_C02,2022.1.2,MacIntel,62.5,,,,,,,,,,,,,,,,,,,,,,,,,,,,,,,,,,,,,,,,,,,,セル　ムク　ルピン,right,14.719,0,0,0,0,1,,,,,,,,,,,,,,,,,,,,,,,,,,,,,,,,
,,,,,,,,,R_3LZ7oGrWve20dcZ,2022-07-07_01h15.11.561,jpn_C02,2022.1.2,MacIntel,62.5,,,,,,,,,,,,,CartoonStims/cowboy_kick_burglar_r.jpg,audio/serumukulupin.mp3,,,,,,,,,,,,,,,,,,,,,,,,,,,,,,,,,,,,,,0,8,8,0,1,セル　ムク　ルピン,,,,,,,,,,,,,,,,,,,,,,,,,,
,,,,,,,,,R_3LZ7oGrWve20dcZ,2022-07-07_01h15.11.561,jpn_C02,2022.1.2,MacIntel,62.5,,,,,,,,,,,,,,,,,,,,,,,,,,,,,,,,,,,,,,,,,,,,パツ　シド　ピポ,right,24.832,0,0,0,0,1,,,,,,,,,,,,,,,,,,,,,,,,,,,,,,,,
,,,,,,,,,R_3LZ7oGrWve20dcZ,2022-07-07_01h15.11.561,jpn_C02,2022.1.2,MacIntel,62.5,,,,,,,,,,,,,CartoonStims/cowboy_shoot_doctor_r.jpg,audio/patsumukupipo.mp3,,,,,,,,,,,,,,,,,,,,,,,,,,,,,,,,,,,,,,0,9,9,8,1,パツ　ムク　ピポ,,,,,,,,,,,,,,,,,,,,,,,,,,
,,,,,,,,,R_3LZ7oGrWve20dcZ,2022-07-07_01h15.11.561,jpn_C02,2022.1.2,MacIntel,62.5,,,,,,,,,,,,,,,,,,,,,,,,,,,,,,,,,,,,,,,,,,,,,right,0.576,0,0,0,0,1,,,,,,,,,,,,,,,,,,,,,,,,,,,,,,,,
,,,,,,,,,R_3LZ7oGrWve20dcZ,2022-07-07_01h15.11.561,jpn_C02,2022.1.2,MacIntel,62.5,,,,,,,,,,,,,CartoonStims/boxer_punch_artist_r.jpg,audio/pumidokisido.mp3,,,,,,,,,,,,,,,,,,,,,,,,,,,,,,,,,,,,,,0,10,10,11,1,プミ　ドキ　シド,,,,,,,,,,,,,,,,,,,,,,,,,,
,,,,,,,,,R_3LZ7oGrWve20dcZ,2022-07-07_01h15.11.561,jpn_C02,2022.1.2,MacIntel,62.5,,,,,,,,,,,,,,,,,,,,,,,,,,,,,,,,,,,,,,,,,,,,パツ　ルピン　ホレト,right,20.05,0,0,0,0,1,,,,,,,,,,,,,,,,,,,,,,,,,,,,,,,,
,,,,,,,,,R_3LZ7oGrWve20dcZ,2022-07-07_01h15.11.561,jpn_C02,2022.1.2,MacIntel,62.5,,,,,,,,,,,,,CartoonStims/burglar_shoot_chef_r.jpg,audio/patsulupinhoreto.mp3,,,,,,,,,,,,,,,,,,,,,,,,,,,,,,,,,,,,,,0,11,11,6,1,パツ　ルピン　ホレト,,,,,,,,,,,,,,,,,,,,,,,,,,
,,,,,,,,,R_3LZ7oGrWve20dcZ,2022-07-07_01h15.11.561,jpn_C02,2022.1.2,MacIntel,62.5,,,,,,,,,,,,,,,,,,,,,,,,,,,,,,,,,,,,,,,,,,,,,,,,,,,,,,,,,,,space,0.824,0,1,1,1,1,AffExposure.xlsx,"第二のトライアルの学習では、この言語で書かれた文を見ていただきます。引き続き注意して、 聞こえた音を復唱してください。


スペースキーを押してください。",1,AffFCT.xlsx,ここからクイズが始まります。 スクリーンに表示されるテキストに合う画像を選んでください。,AffTest.xlsx,1,次にここまで学んだことをアウトプットしていただきます。 表示される画像を描写していると思う単語を、テキストボックスにタイプしてください。 答えを提出したあとに正しい正解が少しの間画面に写ります。,1,"これで第二のトライアルが終了しました。 ここで休憩をとっていただいても構いません。

休憩が終わりましたら、 スペースキーを押して続きの学習を行いましょう。",,,,,,,,
,,,,,,,,,R_3LZ7oGrWve20dcZ,2022-07-07_01h15.11.561,jpn_C02,2022.1.2,MacIntel,62.5,space,2.454,space,6.014,0,0,0,16,1,ピク　トマ　ホレト　ピポ,,,CartoonStims/chef_point_doctor_r_no.jpg,audio/pikutomahoretopipo.mp3,,,,,,,,,,,,,,,,,,,,,,,,,,,,,,,,,,,,,,,,,,,,,,,,,,,,,,,,,,,,,,,,,,,,,
,,,,,,,,,R_3LZ7oGrWve20dcZ,2022-07-07_01h15.11.561,jpn_C02,2022.1.2,MacIntel,62.5,,,space,6.526,0,1,1,31,1,ピク　パツ　ムク　ルピン,,,CartoonStims/cowboy_shoot_burglar_r_no.jpg,audio/pikupatsumukulupin.mp3,,,,,,,,,,,,,,,,,,,,,,,,,,,,,,,,,,,,,,,,,,,,,,,,,,,,,,,,,,,,,,,,,,,,,
,,,,,,,,,R_3LZ7oGrWve20dcZ,2022-07-07_01h15.11.561,jpn_C02,2022.1.2,MacIntel,62.5,,,space,3.73,0,2,2,32,1,ピク　パツ　ピポ　ルピン,,,CartoonStims/doctor_shoot_burglar_r_no.jpg,audio/pikupatsupipolupin.mp3,,,,,,,,,,,,,,,,,,,,,,,,,,,,,,,,,,,,,,,,,,,,,,,,,,,,,,,,,,,,,,,,,,,,,
,,,,,,,,,R_3LZ7oGrWve20dcZ,2022-07-07_01h15.11.561,jpn_C02,2022.1.2,MacIntel,62.5,,,space,3.759,0,3,3,26,1,ピク　パツ　ルピン　ピポ,,,CartoonStims/burglar_shoot_doctor_r_no.jpg,audio/pikupatsulupinpipo.mp3,,,,,,,,,,,,,,,,,,,,,,,,,,,,,,,,,,,,,,,,,,,,,,,,,,,,,,,,,,,,,,,,,,,,,
,,,,,,,,,R_3LZ7oGrWve20dcZ,2022-07-07_01h15.11.561,jpn_C02,2022.1.2,MacIntel,62.5,,,space,17.71,0,4,4,29,1,パツ　ピク　ホレト　シド,,,CartoonStims/chef_shoot_artist_r_no.jpg,audio/patsupikuhoretosido.mp3,,,,,,,,,,,,,,,,,,,,,,,,,,,,,,,,,,,,,,,,,,,,,,,,,,,,,,,,,,,,,,,,,,,,,
,,,,,,,,,R_3LZ7oGrWve20dcZ,2022-07-07_01h15.11.561,jpn_C02,2022.1.2,MacIntel,62.5,,,space,4.505,0,5,5,36,1,ピク　プミ　シド　ピポ,,,CartoonStims/artist_punch_doctor_r_no.jpg,audio/pikupumisidopipo.mp3,,,,,,,,,,,,,,,,,,,,,,,,,,,,,,,,,,,,,,,,,,,,,,,,,,,,,,,,,,,,,,,,,,,,,
,,,,,,,,,R_3LZ7oGrWve20dcZ,2022-07-07_01h15.11.561,jpn_C02,2022.1.2,MacIntel,62.5,,,space,2.421,0,6,6,3,1,ピク　セル　ルピン　ムク,,,CartoonStims/burglar_kick_cowboy_r_no.jpg,audio/pikuserulupinmuku.mp3,,,,,,,,,,,,,,,,,,,,,,,,,,,,,,,,,,,,,,,,,,,,,,,,,,,,,,,,,,,,,,,,,,,,,
,,,,,,,,,R_3LZ7oGrWve20dcZ,2022-07-07_01h15.11.561,jpn_C02,2022.1.2,MacIntel,62.5,,,space,1.818,0,7,7,13,1,ピク　トマ　シド　ムク,,,CartoonStims/artist_point_cowboy_r_no.jpg,audio/pikutomasidomuku.mp3,,,,,,,,,,,,,,,,,,,,,,,,,,,,,,,,,,,,,,,,,,,,,,,,,,,,,,,,,,,,,,,,,,,,,
,,,,,,,,,R_3LZ7oGrWve20dcZ,2022-07-07_01h15.11.561,jpn_C02,2022.1.2,MacIntel,62.5,,,space,2.306,0,8,8,15,1,トマ　ピク　ルピン　ピポ,,,CartoonStims/burglar_point_doctor_r_no.jpg,audio/tomapikulupinpipo.mp3,,,,,,,,,,,,,,,,,,,,,,,,,,,,,,,,,,,,,,,,,,,,,,,,,,,,,,,,,,,,,,,,,,,,,
,,,,,,,,,R_3LZ7oGrWve20dcZ,2022-07-07_01h15.11.561,jpn_C02,2022.1.2,MacIntel,62.5,,,space,9.388,0,9,9,30,1,ピク　パツ　ムク　シド,,,CartoonStims/cowboy_shoot_artist_r_no.jpg,audio/pikupatsumukusido.mp3,,,,,,,,,,,,,,,,,,,,,,,,,,,,,,,,,,,,,,,,,,,,,,,,,,,,,,,,,,,,,,,,,,,,,
,,,,,,,,,R_3LZ7oGrWve20dcZ,2022-07-07_01h15.11.561,jpn_C02,2022.1.2,MacIntel,62.5,,,space,4.017,0,10,10,28,1,ピク　パツ　ホレト　ドキ,,,CartoonStims/chef_shoot_boxer_r_no.jpg,audio/pikupatsuhoretodoki.mp3,,,,,,,,,,,,,,,,,,,,,,,,,,,,,,,,,,,,,,,,,,,,,,,,,,,,,,,,,,,,,,,,,,,,,
,,,,,,,,,R_3LZ7oGrWve20dcZ,2022-07-07_01h15.11.561,jpn_C02,2022.1.2,MacIntel,62.5,,,space,3.693,0,11,11,40,1,ピク　プミ　ホレト　シド,,,CartoonStims/chef_punch_artist_r_no.jpg,audio/pikupumihoretosido.mp3,,,,,,,,,,,,,,,,,,,,,,,,,,,,,,,,,,,,,,,,,,,,,,,,,,,,,,,,,,,,,,,,,,,,,
,,,,,,,,,R_3LZ7oGrWve20dcZ,2022-07-07_01h15.11.561,jpn_C02,2022.1.2,MacIntel,62.5,,,space,3.818,0,12,12,37,1,ピク　プミ　シド　ドキ,,,CartoonStims/artist_punch_boxer_r_no.jpg,audio/pikupumisidodoki.mp3,,,,,,,,,,,,,,,,,,,,,,,,,,,,,,,,,,,,,,,,,,,,,,,,,,,,,,,,,,,,,,,,,,,,,
,,,,,,,,,R_3LZ7oGrWve20dcZ,2022-07-07_01h15.11.561,jpn_C02,2022.1.2,MacIntel,62.5,,,space,9.018,0,13,13,19,1,トマ　ピク　ムク　シド,,,CartoonStims/cowboy_point_artist_r_no.jpg,audio/tomapikumukusido.mp3,,,,,,,,,,,,,,,,,,,,,,,,,,,,,,,,,,,,,,,,,,,,,,,,,,,,,,,,,,,,,,,,,,,,,
,,,,,,,,,R_3LZ7oGrWve20dcZ,2022-07-07_01h15.11.561,jpn_C02,2022.1.2,MacIntel,62.5,,,space,0.767,0,14,14,2,1,ピク　セル　ルピン　ホレト,,,CartoonStims/burglar_kick_chef_r_no.jpg,audio/pikuserulupinhoreto.mp3,,,,,,,,,,,,,,,,,,,,,,,,,,,,,,,,,,,,,,,,,,,,,,,,,,,,,,,,,,,,,,,,,,,,,
,,,,,,,,,R_3LZ7oGrWve20dcZ,2022-07-07_01h15.11.561,jpn_C02,2022.1.2,MacIntel,62.5,,,space,1.882,0,15,15,42,1,プミ　ピク　ムク　ルピン,,,CartoonStims/cowboy_punch_burglar_r_no.jpg,audio/pumipikumukulupin.mp3,,,,,,,,,,,,,,,,,,,,,,,,,,,,,,,,,,,,,,,,,,,,,,,,,,,,,,,,,,,,,,,,,,,,,
,,,,,,,,,R_3LZ7oGrWve20dcZ,2022-07-07_01h15.11.561,jpn_C02,2022.1.2,MacIntel,62.5,,,space,12.804,0,16,16,25,1,パツ　ピク　シド　ピポ,,,CartoonStims/artist_shoot_doctor_r_no.jpg,audio/patsupikusidopipo.mp3,,,,,,,,,,,,,,,,,,,,,,,,,,,,,,,,,,,,,,,,,,,,,,,,,,,,,,,,,,,,,,,,,,,,,
,,,,,,,,,R_3LZ7oGrWve20dcZ,2022-07-07_01h15.11.561,jpn_C02,2022.1.2,MacIntel,62.5,,,space,6.221,0,17,17,33,1,ピク　パツ　ピポ　ホレト,,,CartoonStims/doctor_shoot_chef_r_no.jpg,audio/pikupatsupipohoreto.mp3,,,,,,,,,,,,,,,,,,,,,,,,,,,,,,,,,,,,,,,,,,,,,,,,,,,,,,,,,,,,,,,,,,,,,
,,,,,,,,,R_3LZ7oGrWve20dcZ,2022-07-07_01h15.11.561,jpn_C02,2022.1.2,MacIntel,62.5,,,space,4.487,0,18,18,7,1,ピク　セル　ムク　ドキ,,,CartoonStims/cowboy_kick_boxer_r_no.jpg,audio/pikuserumukudoki.mp3,,,,,,,,,,,,,,,,,,,,,,,,,,,,,,,,,,,,,,,,,,,,,,,,,,,,,,,,,,,,,,,,,,,,,
,,,,,,,,,R_3LZ7oGrWve20dcZ,2022-07-07_01h15.11.561,jpn_C02,2022.1.2,MacIntel,62.5,,,space,1,0,19,19,9,1,ピク　セル　ピポ　シド,,,CartoonStims/doctor_kick_artist_r_no.jpg,audio/pikuserupiposido.mp3,,,,,,,,,,,,,,,,,,,,,,,,,,,,,,,,,,,,,,,,,,,,,,,,,,,,,,,,,,,,,,,,,,,,,
,,,,,,,,,R_3LZ7oGrWve20dcZ,2022-07-07_01h15.11.561,jpn_C02,2022.1.2,MacIntel,62.5,,,space,1.044,0,20,20,10,1,ピク　セル　ドキ　シド,,,CartoonStims/boxer_kick_artist_r_no.jpg,audio/pikuserudokisido.mp3,,,,,,,,,,,,,,,,,,,,,,,,,,,,,,,,,,,,,,,,,,,,,,,,,,,,,,,,,,,,,,,,,,,,,
,,,,,,,,,R_3LZ7oGrWve20dcZ,2022-07-07_01h15.11.561,jpn_C02,2022.1.2,MacIntel,62.5,,,space,0.584,0,21,21,47,1,ピク　プミ　ドキ　ピポ,,,CartoonStims/boxer_punch_doctor_r_no.jpg,audio/pikupumidokipipo.mp3,,,,,,,,,,,,,,,,,,,,,,,,,,,,,,,,,,,,,,,,,,,,,,,,,,,,,,,,,,,,,,,,,,,,,
,,,,,,,,,R_3LZ7oGrWve20dcZ,2022-07-07_01h15.11.561,jpn_C02,2022.1.2,MacIntel,62.5,,,space,12.001,0,22,22,12,1,ピク　トマ　シド　ホレト,,,CartoonStims/artist_point_chef_r_no.jpg,audio/pikutomasidohoreto.mp3,,,,,,,,,,,,,,,,,,,,,,,,,,,,,,,,,,,,,,,,,,,,,,,,,,,,,,,,,,,,,,,,,,,,,
,,,,,,,,,R_3LZ7oGrWve20dcZ,2022-07-07_01h15.11.561,jpn_C02,2022.1.2,MacIntel,62.5,,,space,2.336,0,23,23,45,1,ピク　プミ　ピポ　ムク,,,CartoonStims/doctor_punch_cowboy_r_no.jpg,audio/pikupumipipomuku.mp3,,,,,,,,,,,,,,,,,,,,,,,,,,,,,,,,,,,,,,,,,,,,,,,,,,,,,,,,,,,,,,,,,,,,,
,,,,,,,,,R_3LZ7oGrWve20dcZ,2022-07-07_01h15.11.561,jpn_C02,2022.1.2,MacIntel,62.5,,,space,2.694,0,24,24,14,1,ピク　トマ　ルピン　ムク,,,CartoonStims/burglar_point_cowboy_r_no.jpg,audio/pikutomalupinmuku.mp3,,,,,,,,,,,,,,,,,,,,,,,,,,,,,,,,,,,,,,,,,,,,,,,,,,,,,,,,,,,,,,,,,,,,,
,,,,,,,,,R_3LZ7oGrWve20dcZ,2022-07-07_01h15.11.561,jpn_C02,2022.1.2,MacIntel,62.5,,,space,2.288,0,25,25,17,1,ピク　トマ　ホレト　ドキ,,,CartoonStims/chef_point_boxer_r_no.jpg,audio/pikutomahoretodoki.mp3,,,,,,,,,,,,,,,,,,,,,,,,,,,,,,,,,,,,,,,,,,,,,,,,,,,,,,,,,,,,,,,,,,,,,
,,,,,,,,,R_3LZ7oGrWve20dcZ,2022-07-07_01h15.11.561,jpn_C02,2022.1.2,MacIntel,62.5,,,space,1.62,0,26,26,11,1,ピク　セル　ドキ　ルピン,,,CartoonStims/boxer_kick_burglar_r_no.jpg,audio/pikuserudokilupin.mp3,,,,,,,,,,,,,,,,,,,,,,,,,,,,,,,,,,,,,,,,,,,,,,,,,,,,,,,,,,,,,,,,,,,,,
,,,,,,,,,R_3LZ7oGrWve20dcZ,2022-07-07_01h15.11.561,jpn_C02,2022.1.2,MacIntel,62.5,,,space,3.739,0,27,27,44,1,プミ　ピク　ピポ　ホレト,,,CartoonStims/doctor_punch_chef_r_no.jpg,audio/pumipikupipohoreto.mp3,,,,,,,,,,,,,,,,,,,,,,,,,,,,,,,,,,,,,,,,,,,,,,,,,,,,,,,,,,,,,,,,,,,,,
,,,,,,,,,R_3LZ7oGrWve20dcZ,2022-07-07_01h15.11.561,jpn_C02,2022.1.2,MacIntel,62.5,,,space,4.818,0,28,28,35,1,ピク　パツ　ドキ　ムク,,,CartoonStims/boxer_shoot_cowboy_r_no.jpg,audio/pikupatsudokimuku.mp3,,,,,,,,,,,,,,,,,,,,,,,,,,,,,,,,,,,,,,,,,,,,,,,,,,,,,,,,,,,,,,,,,,,,,
,,,,,,,,,R_3LZ7oGrWve20dcZ,2022-07-07_01h15.11.561,jpn_C02,2022.1.2,MacIntel,62.5,,,space,4.991,0,29,29,27,1,パツ　ピク　ルピン　ドキ,,,CartoonStims/burglar_shoot_boxer_r_no.jpg,audio/patsupikulupindoki.mp3,,,,,,,,,,,,,,,,,,,,,,,,,,,,,,,,,,,,,,,,,,,,,,,,,,,,,,,,,,,,,,,,,,,,,
,,,,,,,,,R_3LZ7oGrWve20dcZ,2022-07-07_01h15.11.561,jpn_C02,2022.1.2,MacIntel,62.5,,,space,1.685,0,30,30,22,1,ピク　トマ　ドキ　ルピン,,,CartoonStims/boxer_point_burglar_r_no.jpg,audio/pikutomadokilupin.mp3,,,,,,,,,,,,,,,,,,,,,,,,,,,,,,,,,,,,,,,,,,,,,,,,,,,,,,,,,,,,,,,,,,,,,
,,,,,,,,,R_3LZ7oGrWve20dcZ,2022-07-07_01h15.11.561,jpn_C02,2022.1.2,MacIntel,62.5,,,space,1.666,0,31,31,20,1,ピク　トマ　ピポ　シド,,,CartoonStims/doctor_point_artist_r_no.jpg,audio/pikutomapiposido.mp3,,,,,,,,,,,,,,,,,,,,,,,,,,,,,,,,,,,,,,,,,,,,,,,,,,,,,,,,,,,,,,,,,,,,,
,,,,,,,,,R_3LZ7oGrWve20dcZ,2022-07-07_01h15.11.561,jpn_C02,2022.1.2,MacIntel,62.5,,,space,8.426,0,32,32,4,1,セル　ピク　ホレト　ムク,,,CartoonStims/chef_kick_cowboy_r_no.jpg,audio/serupikuhoretomuku.mp3,,,,,,,,,,,,,,,,,,,,,,,,,,,,,,,,,,,,,,,,,,,,,,,,,,,,,,,,,,,,,,,,,,,,,
,,,,,,,,,R_3LZ7oGrWve20dcZ,2022-07-07_01h15.11.561,jpn_C02,2022.1.2,MacIntel,62.5,,,space,2.644,0,33,33,24,1,ピク　パツ　シド　ムク,,,CartoonStims/artist_shoot_cowboy_r_no.jpg,audio/pikupatsusidomuku.mp3,,,,,,,,,,,,,,,,,,,,,,,,,,,,,,,,,,,,,,,,,,,,,,,,,,,,,,,,,,,,,,,,,,,,,
,,,,,,,,,R_3LZ7oGrWve20dcZ,2022-07-07_01h15.11.561,jpn_C02,2022.1.2,MacIntel,62.5,,,space,2.67,0,34,34,5,1,ピク　セル　ホレト　ピポ,,,CartoonStims/chef_kick_doctor_r_no.jpg,audio/pikuseruhoretopipo.mp3,,,,,,,,,,,,,,,,,,,,,,,,,,,,,,,,,,,,,,,,,,,,,,,,,,,,,,,,,,,,,,,,,,,,,
,,,,,,,,,R_3LZ7oGrWve20dcZ,2022-07-07_01h15.11.561,jpn_C02,2022.1.2,MacIntel,62.5,,,space,2.936,0,35,35,41,1,ピク　プミ　ホレト　ルピン,,,CartoonStims/chef_punch_burglar_r_no.jpg,audio/pikupumihoretolupin.mp3,,,,,,,,,,,,,,,,,,,,,,,,,,,,,,,,,,,,,,,,,,,,,,,,,,,,,,,,,,,,,,,,,,,,,
,,,,,,,,,R_3LZ7oGrWve20dcZ,2022-07-07_01h15.11.561,jpn_C02,2022.1.2,MacIntel,62.5,,,space,3.313,0,36,36,0,1,セル　ピク　シド　ルピン,,,CartoonStims/artist_kick_burglar_r_no.jpg,audio/serupikusidolupin.mp3,,,,,,,,,,,,,,,,,,,,,,,,,,,,,,,,,,,,,,,,,,,,,,,,,,,,,,,,,,,,,,,,,,,,,
,,,,,,,,,R_3LZ7oGrWve20dcZ,2022-07-07_01h15.11.561,jpn_C02,2022.1.2,MacIntel,62.5,,,space,10.118,0,37,37,6,1,ピク　セル　ムク　ピポ,,,CartoonStims/cowboy_kick_doctor_r_no.jpg,audio/pikuserumukupipo.mp3,,,,,,,,,,,,,,,,,,,,,,,,,,,,,,,,,,,,,,,,,,,,,,,,,,,,,,,,,,,,,,,,,,,,,
,,,,,,,,,R_3LZ7oGrWve20dcZ,2022-07-07_01h15.11.561,jpn_C02,2022.1.2,MacIntel,62.5,,,space,2.885,0,38,38,38,1,ピク　プミ　ルピン　ドキ,,,CartoonStims/burglar_punch_boxer_r_no.jpg,audio/pikupumilupindoki.mp3,,,,,,,,,,,,,,,,,,,,,,,,,,,,,,,,,,,,,,,,,,,,,,,,,,,,,,,,,,,,,,,,,,,,,
,,,,,,,,,R_3LZ7oGrWve20dcZ,2022-07-07_01h15.11.561,jpn_C02,2022.1.2,MacIntel,62.5,,,space,1.56,0,39,39,34,1,ピク　パツ　ドキ　ホレト,,,CartoonStims/boxer_shoot_chef_r_no.jpg,audio/pikupatsudokihoreto.mp3,,,,,,,,,,,,,,,,,,,,,,,,,,,,,,,,,,,,,,,,,,,,,,,,,,,,,,,,,,,,,,,,,,,,,
,,,,,,,,,R_3LZ7oGrWve20dcZ,2022-07-07_01h15.11.561,jpn_C02,2022.1.2,MacIntel,62.5,,,space,5.272,0,40,40,46,1,プミ　ピク　ドキ　ムク,,,CartoonStims/boxer_punch_cowboy_r_no.jpg,audio/pumipikudokimuku.mp3,,,,,,,,,,,,,,,,,,,,,,,,,,,,,,,,,,,,,,,,,,,,,,,,,,,,,,,,,,,,,,,,,,,,,
,,,,,,,,,R_3LZ7oGrWve20dcZ,2022-07-07_01h15.11.561,jpn_C02,2022.1.2,MacIntel,62.5,,,space,1.668,0,41,41,23,1,トマ　ピク　ドキ　ホレト,,,CartoonStims/boxer_point_chef_r_no.jpg,audio/tomapikudokihoreto.mp3,,,,,,,,,,,,,,,,,,,,,,,,,,,,,,,,,,,,,,,,,,,,,,,,,,,,,,,,,,,,,,,,,,,,,
,,,,,,,,,R_3LZ7oGrWve20dcZ,2022-07-07_01h15.11.561,jpn_C02,2022.1.2,MacIntel,62.5,,,space,1.412,0,42,42,43,1,ピク　プミ　ムク　ホレト,,,CartoonStims/cowboy_punch_chef_r_no.jpg,audio/pikupumimukuhoreto.mp3,,,,,,,,,,,,,,,,,,,,,,,,,,,,,,,,,,,,,,,,,,,,,,,,,,,,,,,,,,,,,,,,,,,,,
,,,,,,,,,R_3LZ7oGrWve20dcZ,2022-07-07_01h15.11.561,jpn_C02,2022.1.2,MacIntel,62.5,,,space,1.621,0,43,43,18,1,ピク　トマ　ムク　ドキ,,,CartoonStims/cowboy_point_boxer_r_no.jpg,audio/pikutomamukudoki.mp3,,,,,,,,,,,,,,,,,,,,,,,,,,,,,,,,,,,,,,,,,,,,,,,,,,,,,,,,,,,,,,,,,,,,,
,,,,,,,,,R_3LZ7oGrWve20dcZ,2022-07-07_01h15.11.561,jpn_C02,2022.1.2,MacIntel,62.5,,,space,4.386,0,44,44,1,1,ピク　セル　シド　ホレト,,,CartoonStims/artist_kick_chef_r_no.jpg,audio/pikuserusidohoreto.mp3,,,,,,,,,,,,,,,,,,,,,,,,,,,,,,,,,,,,,,,,,,,,,,,,,,,,,,,,,,,,,,,,,,,,,
,,,,,,,,,R_3LZ7oGrWve20dcZ,2022-07-07_01h15.11.561,jpn_C02,2022.1.2,MacIntel,62.5,,,space,3.115,0,45,45,21,1,ピク　トマ　ピポ　ルピン,,,CartoonStims/doctor_point_burglar_r_no.jpg,audio/pikutomapipolupin.mp3,,,,,,,,,,,,,,,,,,,,,,,,,,,,,,,,,,,,,,,,,,,,,,,,,,,,,,,,,,,,,,,,,,,,,
,,,,,,,,,R_3LZ7oGrWve20dcZ,2022-07-07_01h15.11.561,jpn_C02,2022.1.2,MacIntel,62.5,,,space,3.152,0,46,46,39,1,ピク　プミ　ルピン　シド,,,CartoonStims/burglar_punch_artist_r_no.jpg,audio/pikupumilupinsido.mp3,,,,,,,,,,,,,,,,,,,,,,,,,,,,,,,,,,,,,,,,,,,,,,,,,,,,,,,,,,,,,,,,,,,,,
,,,,,,,,,R_3LZ7oGrWve20dcZ,2022-07-07_01h15.11.561,jpn_C02,2022.1.2,MacIntel,62.5,,,space,4.92,0,47,47,8,1,セル　ピク　ピポ　ドキ,,,CartoonStims/doctor_kick_boxer_r_no.jpg,audio/serupikupipodoki.mp3,,,,,,,,,,,,,,,,,,,,,,,,,,,,,,,,,,,,,,,,,,,,,,,,,,,,,,,,,,,,,,,,,,,,,
,,,,,,,,,R_3LZ7oGrWve20dcZ,2022-07-07_01h15.11.561,jpn_C02,2022.1.2,MacIntel,62.5,,,,,,,,,,,,,,,space,0.138,right,0,4.154,,,,,,,,,,,,,,,,,,,,,,,,,,,,,,,,,,,,,,,,,,,,,,,,,,,,,,,,,0,0,0,0,1,,,
,,,,,,,,,R_3LZ7oGrWve20dcZ,2022-07-07_01h15.11.561,jpn_C02,2022.1.2,MacIntel,62.5,,,,,,,,,,,,,,,,,,,,,,,,,0,0,0,4,1,CartoonStims/burglar_shoot_doctor_r.jpg,ピク　セル　ルピン　ピポ,CartoonStims/burglar_kick_doctor_r.jpg,left,CartoonStims/burglar_shoot_doctor_r.jpg,audio/pikuserulupinpipo.mp3,"残念！ こちらが正しい画像です。

否定文は起きていないことを示しているのを思い出してください。",,,,,,,,,,,,,,,,,,,,,,,,,,,,,,,,,,,,,,,,,,,,,,,
,,,,,,,,,R_3LZ7oGrWve20dcZ,2022-07-07_01h15.11.561,jpn_C02,2022.1.2,MacIntel,62.5,,,,,,,,,,,,,,,,,left,1,11.419,,,,,,,,,,,,,,,,,,0,0,0,0,1,,,,,,,,,,,,,,,,,,,,,,,,,,,,,,,,,,,,,,,,,,
,,,,,,,,,R_3LZ7oGrWve20dcZ,2022-07-07_01h15.11.561,jpn_C02,2022.1.2,MacIntel,62.5,,,,,,,,,,,,,,,,,,,,,,,,,0,1,1,10,1,CartoonStims/doctor_punch_cowboy_r.jpg,パツ　ピク　ピポ　ムク,CartoonStims/doctor_shoot_cowboy_r.jpg,left,CartoonStims/doctor_punch_cowboy_r.jpg,audio/patsupikupipomuku.mp3,"残念！ こちらが正しい画像です。

否定文は起きていないことを示しているのを思い出してください。",,,,,,,,,,,,,,,,,,,,,,,,,,,,,,,,,,,,,,,,,,,,,,,
,,,,,,,,,R_3LZ7oGrWve20dcZ,2022-07-07_01h15.11.561,jpn_C02,2022.1.2,MacIntel,62.5,,,,,,,,,,,,,,,,,right,1,6.428,0,0,0,0,1,,,,,,,,,,,,,,,,,,,,,,,,,,,,,,,,,,,,,,,,,,,,,,,,,,,,,,,,,,,
,,,,,,,,,R_3LZ7oGrWve20dcZ,2022-07-07_01h15.11.561,jpn_C02,2022.1.2,MacIntel,62.5,,,,,,,,,,,,,,,,,,,,,,,,,0,2,2,5,1,CartoonStims/boxer_kick_cowboy_r.jpg,ピク　セル　ドキ　ムク,CartoonStims/boxer_punch_cowboy_r.jpg,right,CartoonStims/boxer_punch_cowboy_r.jpg,audio/pikuserudokimuku.mp3,"残念！ こちらが正しい画像です。

否定文は起きていないことを示しているのを思い出してください。",,,,,,,,,,,,,,,,,,,,,,,,,,,,,,,,,,,,,,,,,,,,,,,
,,,,,,,,,R_3LZ7oGrWve20dcZ,2022-07-07_01h15.11.561,jpn_C02,2022.1.2,MacIntel,62.5,,,,,,,,,,,,,,,,,right,1,1.376,0,0,0,0,1,,,,,,,,,,,,,,,,,,,,,,,,,,,,,,,,,,,,,,,,,,,,,,,,,,,,,,,,,,,
,,,,,,,,,R_3LZ7oGrWve20dcZ,2022-07-07_01h15.11.561,jpn_C02,2022.1.2,MacIntel,62.5,,,,,,,,,,,,,,,,,,,,,,,,,0,3,3,9,1,CartoonStims/boxer_shoot_doctor_r.jpg,ピク　パツ　ドキ　ピポ,CartoonStims/boxer_point_doctor_r.jpg,right,CartoonStims/boxer_point_doctor_r.jpg,audio/pikupatsudokipipo.mp3,"残念！ こちらが正しい画像です。

否定文は起きていないことを示しているのを思い出してください。",,,,,,,,,,,,,,,,,,,,,,,,,,,,,,,,,,,,,,,,,,,,,,,
,,,,,,,,,R_3LZ7oGrWve20dcZ,2022-07-07_01h15.11.561,jpn_C02,2022.1.2,MacIntel,62.5,,,,,,,,,,,,,,,,,left,1,2.092,,,,,,,,,,,,,,,,,,0,0,0,0,1,,,,,,,,,,,,,,,,,,,,,,,,,,,,,,,,,,,,,,,,,,
,,,,,,,,,R_3LZ7oGrWve20dcZ,2022-07-07_01h15.11.561,jpn_C02,2022.1.2,MacIntel,62.5,,,,,,,,,,,,,,,,,,,,,,,,,0,4,4,6,1,CartoonStims/artist_shoot_boxer_r.jpg,ピク　トマ　シド　ドキ,CartoonStims/artist_point_boxer_r.jpg,left,CartoonStims/artist_shoot_boxer_r.jpg,audio/pikutomasidodoki.mp3,"残念！ こちらが正しい画像です。

否定文は起きていないことを示しているのを思い出してください。",,,,,,,,,,,,,,,,,,,,,,,,,,,,,,,,,,,,,,,,,,,,,,,
,,,,,,,,,R_3LZ7oGrWve20dcZ,2022-07-07_01h15.11.561,jpn_C02,2022.1.2,MacIntel,62.5,,,,,,,,,,,,,,,,,right,1,1.583,0,0,0,0,1,,,,,,,,,,,,,,,,,,,,,,,,,,,,,,,,,,,,,,,,,,,,,,,,,,,,,,,,,,,
,,,,,,,,,R_3LZ7oGrWve20dcZ,2022-07-07_01h15.11.561,jpn_C02,2022.1.2,MacIntel,62.5,,,,,,,,,,,,,,,,,,,,,,,,,0,5,5,11,1,CartoonStims/chef_shoot_burglar_r.jpg,ピク　パツ　ホレト　ルピン,CartoonStims/chef_kick_burglar_r.jpg,right,CartoonStims/chef_kick_burglar_r.jpg,audio/pikupatsuhoretolupin.mp3,"残念！ こちらが正しい画像です。

否定文は起きていないことを示しているのを思い出してください。",,,,,,,,,,,,,,,,,,,,,,,,,,,,,,,,,,,,,,,,,,,,,,,
,,,,,,,,,R_3LZ7oGrWve20dcZ,2022-07-07_01h15.11.561,jpn_C02,2022.1.2,MacIntel,62.5,,,,,,,,,,,,,,,,,right,1,5.684,0,0,0,0,1,,,,,,,,,,,,,,,,,,,,,,,,,,,,,,,,,,,,,,,,,,,,,,,,,,,,,,,,,,,
,,,,,,,,,R_3LZ7oGrWve20dcZ,2022-07-07_01h15.11.561,jpn_C02,2022.1.2,MacIntel,62.5,,,,,,,,,,,,,,,,,,,,,,,,,0,6,6,1,1,CartoonStims/chef_punch_cowboy_r.jpg,ピク　プミ　ホレト　ムク,CartoonStims/chef_kick_cowboy_r.jpg,right,CartoonStims/chef_kick_cowboy_r.jpg,audio/pikupumihoretomuku.mp3,"残念！ こちらが正しい画像です。

否定文は起きていないことを示しているのを思い出してください。",,,,,,,,,,,,,,,,,,,,,,,,,,,,,,,,,,,,,,,,,,,,,,,
,,,,,,,,,R_3LZ7oGrWve20dcZ,2022-07-07_01h15.11.561,jpn_C02,2022.1.2,MacIntel,62.5,,,,,,,,,,,,,,,,,left,1,1.138,,,,,,,,,,,,,,,,,,0,0,0,0,1,,,,,,,,,,,,,,,,,,,,,,,,,,,,,,,,,,,,,,,,,,
,,,,,,,,,R_3LZ7oGrWve20dcZ,2022-07-07_01h15.11.561,jpn_C02,2022.1.2,MacIntel,62.5,,,,,,,,,,,,,,,,,,,,,,,,,0,7,7,8,1,CartoonStims/burglar_punch_artist_r.jpg,ピク　トマ　ルピン　シド,CartoonStims/burglar_point_artist_r.jpg,left,CartoonStims/burglar_punch_artist_r.jpg,audio/pikutomalupinsido.mp3,"残念！ こちらが正しい画像です。

否定文は起きていないことを示しているのを思い出してください。",,,,,,,,,,,,,,,,,,,,,,,,,,,,,,,,,,,,,,,,,,,,,,,
,,,,,,,,,R_3LZ7oGrWve20dcZ,2022-07-07_01h15.11.561,jpn_C02,2022.1.2,MacIntel,62.5,,,,,,,,,,,,,,,,,right,1,2.716,0,0,0,0,1,,,,,,,,,,,,,,,,,,,,,,,,,,,,,,,,,,,,,,,,,,,,,,,,,,,,,,,,,,,
,,,,,,,,,R_3LZ7oGrWve20dcZ,2022-07-07_01h15.11.561,jpn_C02,2022.1.2,MacIntel,62.5,,,,,,,,,,,,,,,,,,,,,,,,,0,8,8,3,1,CartoonStims/chef_kick_artist_r.jpg,セル　ピク　ホレト　シド,CartoonStims/chef_point_artist_r.jpg,right,CartoonStims/chef_point_artist_r.jpg,audio/serupikuhoretosido.mp3,"残念！ こちらが正しい画像です。

否定文は起きていないことを示しているのを思い出してください。",,,,,,,,,,,,,,,,,,,,,,,,,,,,,,,,,,,,,,,,,,,,,,,
,,,,,,,,,R_3LZ7oGrWve20dcZ,2022-07-07_01h15.11.561,jpn_C02,2022.1.2,MacIntel,62.5,,,,,,,,,,,,,,,,,left,1,0.953,,,,,,,,,,,,,,,,,,0,0,0,0,1,,,,,,,,,,,,,,,,,,,,,,,,,,,,,,,,,,,,,,,,,,
,,,,,,,,,R_3LZ7oGrWve20dcZ,2022-07-07_01h15.11.561,jpn_C02,2022.1.2,MacIntel,62.5,,,,,,,,,,,,,,,,,,,,,,,,,0,9,9,2,1,CartoonStims/doctor_point_boxer_r.jpg,ピク　プミ　ピポ　ドキ,CartoonStims/doctor_punch_boxer_r.jpg,left,CartoonStims/doctor_point_boxer_r.jpg,audio/pikupumipipodoki.mp3,"残念！ こちらが正しい画像です。

否定文は起きていないことを示しているのを思い出してください。",,,,,,,,,,,,,,,,,,,,,,,,,,,,,,,,,,,,,,,,,,,,,,,
,,,,,,,,,R_3LZ7oGrWve20dcZ,2022-07-07_01h15.11.561,jpn_C02,2022.1.2,MacIntel,62.5,,,,,,,,,,,,,,,,,left,1,1.376,,,,,,,,,,,,,,,,,,0,0,0,0,1,,,,,,,,,,,,,,,,,,,,,,,,,,,,,,,,,,,,,,,,,,
,,,,,,,,,R_3LZ7oGrWve20dcZ,2022-07-07_01h15.11.561,jpn_C02,2022.1.2,MacIntel,62.5,,,,,,,,,,,,,,,,,,,,,,,,,0,10,10,0,1,CartoonStims/artist_shoot_burglar_r.jpg,プミ　ピク　シド　ルピン,CartoonStims/artist_punch_burglar_r.jpg,left,CartoonStims/artist_shoot_burglar_r.jpg,audio/pumipikusidolupin.mp3,"残念！ こちらが正しい画像です。

否定文は起きていないことを示しているのを思い出してください。",,,,,,,,,,,,,,,,,,,,,,,,,,,,,,,,,,,,,,,,,,,,,,,
,,,,,,,,,R_3LZ7oGrWve20dcZ,2022-07-07_01h15.11.561,jpn_C02,2022.1.2,MacIntel,62.5,,,,,,,,,,,,,,,,,right,1,5.778,0,0,0,0,1,,,,,,,,,,,,,,,,,,,,,,,,,,,,,,,,,,,,,,,,,,,,,,,,,,,,,,,,,,,
,,,,,,,,,R_3LZ7oGrWve20dcZ,2022-07-07_01h15.11.561,jpn_C02,2022.1.2,MacIntel,62.5,,,,,,,,,,,,,,,,,,,,,,,,,0,11,11,7,1,CartoonStims/cowboy_point_chef_r.jpg,トマ　ピク　ムク　ホレト,CartoonStims/cowboy_kick_chef_r.jpg,right,CartoonStims/cowboy_kick_chef_r.jpg,audio/tomapikumukuhoreto.mp3,"残念！ こちらが正しい画像です。

否定文は起きていないことを示しているのを思い出してください。",,,,,,,,,,,,,,,,,,,,,,,,,,,,,,,,,,,,,,,,,,,,,,,
,,,,,,,,,R_3LZ7oGrWve20dcZ,2022-07-07_01h15.11.561,jpn_C02,2022.1.2,MacIntel,62.5,,,,,,,,,,,,,CartoonStims/chef_kick_burglar_r_no.jpg,,,,,,,,,,,,,,,,,,,,,,,,,,,,,space,1.592,ピク　セル　ホレト　ルピン,right,25.521,,,,,,0,0,0,2,1,,,,,,,,,,,,,,,,,,,,,,,,,ピク　セル　ホレト　ルピン,セル　ピク　ホレト　ルピン,1
,,,,,,,,,R_3LZ7oGrWve20dcZ,2022-07-07_01h15.11.561,jpn_C02,2022.1.2,MacIntel,62.5,,,,,,,,,,,,,CartoonStims/boxer_kick_doctor_r_no.jpg,,,,,,,,,,,,,,,,,,,,,,,,,,,,,,,ピク　セル　ドキ　ピポ,right,18.764,,,,,,0,1,1,5,1,,,,,,,,,,,,,,,,,,,,,,,,,ピク　セル　ドキ　ピポ,セル　ピク　ドキ　ピポ,1
,,,,,,,,,R_3LZ7oGrWve20dcZ,2022-07-07_01h15.11.561,jpn_C02,2022.1.2,MacIntel,62.5,,,,,,,,,,,,,CartoonStims/boxer_punch_artist_r.jpg,,,,,,,,,,,,,,,,,,,,,,,,,,,,,,,プミ　ドキ　ムク,right,49.422,,,,,,0,2,2,35,1,,,,,,,,,,,,,,,,,,,,,,,,,プミ　ドキ　シド,プミ　ドキ　シド,0
,,,,,,,,,R_3LZ7oGrWve20dcZ,2022-07-07_01h15.11.561,jpn_C02,2022.1.2,MacIntel,62.5,,,,,,,,,,,,,CartoonStims/doctor_punch_burglar_r_no.jpg,,,,,,,,,,,,,,,,,,,,,,,,,,,,,,,ピク　プミ　ピポ　ルピン,right,54.149,,,,,,0,3,3,22,1,,,,,,,,,,,,,,,,,,,,,,,,,ピク　プミ　ピポ　ルピン,プミ　ピク　ピポ　ルピン,1
,,,,,,,,,R_3LZ7oGrWve20dcZ,2022-07-07_01h15.11.561,jpn_C02,2022.1.2,MacIntel,62.5,,,,,,,,,,,,,CartoonStims/cowboy_kick_burglar_r.jpg,,,,,,,,,,,,,,,,,,,,,,,,,,,,,,,セル　シド　ルピン,right,10.534,,,,,,0,4,4,24,1,,,,,,,,,,,,,,,,,,,,,,,,,セル　ムク　ルピン,セル　ムク　ルピン,0
,,,,,,,,,R_3LZ7oGrWve20dcZ,2022-07-07_01h15.11.561,jpn_C02,2022.1.2,MacIntel,62.5,,,,,,,,,,,,,CartoonStims/burglar_punch_doctor_r_no.jpg,,,,,,,,,,,,,,,,,,,,,,,,,,,,,,,プミ　ピク　ルピン　ピポ,right,28.06,,,,,,0,5,5,19,1,,,,,,,,,,,,,,,,,,,,,,,,,ピク　プミ　ルピン　ピポ,プミ　ピク　ルピン　ピポ,1
,,,,,,,,,R_3LZ7oGrWve20dcZ,2022-07-07_01h15.11.561,jpn_C02,2022.1.2,MacIntel,62.5,,,,,,,,,,,,,CartoonStims/boxer_shoot_burglar_r_no.jpg,,,,,,,,,,,,,,,,,,,,,,,,,,,,,,,ピク　パツ　ドキ　ルピン,right,18.243,,,,,,0,6,6,17,1,,,,,,,,,,,,,,,,,,,,,,,,,ピク　パツ　ドキ　ルピン,パツ　ピク　ドキ　ルピン,1
,,,,,,,,,R_3LZ7oGrWve20dcZ,2022-07-07_01h15.11.561,jpn_C02,2022.1.2,MacIntel,62.5,,,,,,,,,,,,,CartoonStims/doctor_shoot_artist_r_no.jpg,,,,,,,,,,,,,,,,,,,,,,,,,,,,,,,ピク　パツ　ピポ　ムク,right,25.325,,,,,,0,7,7,16,1,,,,,,,,,,,,,,,,,,,,,,,,,ピク　パツ　ピポ　シド,パツ　ピク　ピポ　シド,1
,,,,,,,,,R_3LZ7oGrWve20dcZ,2022-07-07_01h15.11.561,jpn_C02,2022.1.2,MacIntel,62.5,,,,,,,,,,,,,CartoonStims/boxer_point_artist_r_no.jpg,,,,,,,,,,,,,,,,,,,,,,,,,,,,,,,トマ　ピク　ドキ　ムク,right,18.881,,,,,,0,8,8,11,1,,,,,,,,,,,,,,,,,,,,,,,,,ピク　トマ　ドキ　シド,トマ　ピク　ドキ　シド,1
,,,,,,,,,R_3LZ7oGrWve20dcZ,2022-07-07_01h15.11.561,jpn_C02,2022.1.2,MacIntel,62.5,,,,,,,,,,,,,CartoonStims/cowboy_punch_artist_r_no.jpg,,,,,,,,,,,,,,,,,,,,,,,,,,,,,,,ピク　プミ　シド　ムク,right,19.384,,,,,,0,9,9,21,1,,,,,,,,,,,,,,,,,,,,,,,,,ピク　プミ　ムク　シド,プミ　ピク　ムク　シド,1
,,,,,,,,,R_3LZ7oGrWve20dcZ,2022-07-07_01h15.11.561,jpn_C02,2022.1.2,MacIntel,62.5,,,,,,,,,,,,,CartoonStims/burglar_point_artist_r.jpg,,,,,,,,,,,,,,,,,,,,,,,,,,,,,,,トマ　ルピン　ムク,right,13.046,,,,,,0,10,10,28,1,,,,,,,,,,,,,,,,,,,,,,,,,トマ　ルピン　シド,トマ　ルピン　シド,0
,,,,,,,,,R_3LZ7oGrWve20dcZ,2022-07-07_01h15.11.561,jpn_C02,2022.1.2,MacIntel,62.5,,,,,,,,,,,,,CartoonStims/artist_point_boxer_r.jpg,,,,,,,,,,,,,,,,,,,,,,,,,,,,,,,トマ　ムク,right,4.537,,,,,,0,11,11,27,1,,,,,,,,,,,,,,,,,,,,,,,,,トマ　シド　ドキ,トマ　シド　ドキ,0
,,,,,,,,,R_3LZ7oGrWve20dcZ,2022-07-07_01h15.11.561,jpn_C02,2022.1.2,MacIntel,62.5,,,,,,,,,,,,,CartoonStims/cowboy_kick_chef_r_no.jpg,,,,,,,,,,,,,,,,,,,,,,,,,,,,,,,ピク　セル　シド　ホレト,right,16.937,,,,,,0,12,12,3,1,,,,,,,,,,,,,,,,,,,,,,,,,ピク　セル　ムク　ホレト,セル　ピク　ムク　ホレト,1
,,,,,,,,,R_3LZ7oGrWve20dcZ,2022-07-07_01h15.11.561,jpn_C02,2022.1.2,MacIntel,62.5,,,,,,,,,,,,,CartoonStims/chef_point_cowboy_r_no.jpg,,,,,,,,,,,,,,,,,,,,,,,,,,,,,,,ピク　トマ　ホレト　シド,right,16.446,,,,,,0,13,13,8,1,,,,,,,,,,,,,,,,,,,,,,,,,ピク　トマ　ホレト　ムク,トマ　ピク　ホレト　ムク,1
,,,,,,,,,R_3LZ7oGrWve20dcZ,2022-07-07_01h15.11.561,jpn_C02,2022.1.2,MacIntel,62.5,,,,,,,,,,,,,CartoonStims/boxer_kick_cowboy_r.jpg,,,,,,,,,,,,,,,,,,,,,,,,,,,,,,,セル　ドキ　シド,right,12.296,,,,,,0,14,14,26,1,,,,,,,,,,,,,,,,,,,,,,,,,セル　ドキ　ムク,セル　ドキ　ムク,0
,,,,,,,,,R_3LZ7oGrWve20dcZ,2022-07-07_01h15.11.561,jpn_C02,2022.1.2,MacIntel,62.5,,,,,,,,,,,,,CartoonStims/artist_kick_boxer_r_no.jpg,,,,,,,,,,,,,,,,,,,,,,,,,,,,,,,ピク　セル　ムク　ドキ,right,12.363,,,,,,0,15,15,0,1,,,,,,,,,,,,,,,,,,,,,,,,,ピク　セル　シド　ドキ,セル　ピク　シド　ドキ,1
,,,,,,,,,R_3LZ7oGrWve20dcZ,2022-07-07_01h15.11.561,jpn_C02,2022.1.2,MacIntel,62.5,,,,,,,,,,,,,CartoonStims/chef_shoot_doctor_r_no.jpg,,,,,,,,,,,,,,,,,,,,,,,,,,,,,,,ピク　パツ　ホレト　ピポ,right,20.816,,,,,,0,16,16,14,1,,,,,,,,,,,,,,,,,,,,,,,,,ピク　パツ　ホレト　ピポ,パツ　ピク　ホレト　ピポ,1
,,,,,,,,,R_3LZ7oGrWve20dcZ,2022-07-07_01h15.11.561,jpn_C02,2022.1.2,MacIntel,62.5,,,,,,,,,,,,,CartoonStims/burglar_shoot_chef_r.jpg,,,,,,,,,,,,,,,,,,,,,,,,,,,,,,,パツ　ルピン　ホレト,right,26.642,,,,,,0,17,17,30,1,,,,,,,,,,,,,,,,,,,,,,,,,パツ　ルピン　ホレト,パツ　ルピン　ホレト,0
,,,,,,,,,R_3LZ7oGrWve20dcZ,2022-07-07_01h15.11.561,jpn_C02,2022.1.2,MacIntel,62.5,,,,,,,,,,,,,CartoonStims/burglar_shoot_cowboy_r_no.jpg,,,,,,,,,,,,,,,,,,,,,,,,,,,,,,,ピク　パツ　ルピン　ムク,right,11.045,,,,,,0,18,18,13,1,,,,,,,,,,,,,,,,,,,,,,,,,ピク　パツ　ルピン　ムク,パツ　ピク　ルピン　ムク,1
,,,,,,,,,R_3LZ7oGrWve20dcZ,2022-07-07_01h15.11.561,jpn_C02,2022.1.2,MacIntel,62.5,,,,,,,,,,,,,CartoonStims/cowboy_shoot_boxer_r_no.jpg,,,,,,,,,,,,,,,,,,,,,,,,,,,,,,,ピク　パツ　ムク　ドキ,right,10.014,,,,,,0,19,19,15,1,,,,,,,,,,,,,,,,,,,,,,,,,ピク　パツ　ムク　ドキ,パツ　ピク　ムク　ドキ,1
,,,,,,,,,R_3LZ7oGrWve20dcZ,2022-07-07_01h15.11.561,jpn_C02,2022.1.2,MacIntel,62.5,,,,,,,,,,,,,CartoonStims/artist_shoot_chef_r_no.jpg,,,,,,,,,,,,,,,,,,,,,,,,,,,,,,,ピク　パツ　ムク　ホレト,right,16.515,,,,,,0,20,20,12,1,,,,,,,,,,,,,,,,,,,,,,,,,ピク　パツ　シド　ホレト,パツ　ピク　シド　ホレト,1
,,,,,,,,,R_3LZ7oGrWve20dcZ,2022-07-07_01h15.11.561,jpn_C02,2022.1.2,MacIntel,62.5,,,,,,,,,,,,,CartoonStims/artist_punch_burglar_r.jpg,,,,,,,,,,,,,,,,,,,,,,,,,,,,,,,プミ　ムク　ルピン,right,16.553,,,,,,0,21,21,33,1,,,,,,,,,,,,,,,,,,,,,,,,,プミ　シド　ルピン,プミ　シド　ルピン,0
,,,,,,,,,R_3LZ7oGrWve20dcZ,2022-07-07_01h15.11.561,jpn_C02,2022.1.2,MacIntel,62.5,,,,,,,,,,,,,CartoonStims/boxer_punch_chef_r_no.jpg,,,,,,,,,,,,,,,,,,,,,,,,,,,,,,,ピク　プミ　ドキ　ホレト,right,18.579,,,,,,0,22,22,23,1,,,,,,,,,,,,,,,,,,,,,,,,,ピク　プミ　ドキ　ホレト,プミ　ピク　ドキ　ホレト,1
,,,,,,,,,R_3LZ7oGrWve20dcZ,2022-07-07_01h15.11.561,jpn_C02,2022.1.2,MacIntel,62.5,,,,,,,,,,,,,CartoonStims/doctor_kick_chef_r.jpg,,,,,,,,,,,,,,,,,,,,,,,,,,,,,,,セル　ピポ　ホレト,right,98.641,,,,,,0,23,23,25,1,,,,,,,,,,,,,,,,,,,,,,,,,セル　ピポ　ホレト,セル　ピポ　ホレト,0
,,,,,,,,,R_3LZ7oGrWve20dcZ,2022-07-07_01h15.11.561,jpn_C02,2022.1.2,MacIntel,62.5,,,,,,,,,,,,,CartoonStims/chef_shoot_cowboy_r.jpg,,,,,,,,,,,,,,,,,,,,,,,,,,,,,,,パツ　ホレト　ムク,right,21.106,,,,,,0,24,24,31,1,,,,,,,,,,,,,,,,,,,,,,,,,パツ　ホレト　ムク,パツ　ホレト　ムク,0
,,,,,,,,,R_3LZ7oGrWve20dcZ,2022-07-07_01h15.11.561,jpn_C02,2022.1.2,MacIntel,62.5,,,,,,,,,,,,,CartoonStims/artist_point_burglar_r_no.jpg,,,,,,,,,,,,,,,,,,,,,,,,,,,,,,,ピク　トマ　ムク　ルピン,right,13.744,,,,,,0,25,25,6,1,,,,,,,,,,,,,,,,,,,,,,,,,ピク　トマ　シド　ルピン,トマ　ピク　シド　ルピン,1
,,,,,,,,,R_3LZ7oGrWve20dcZ,2022-07-07_01h15.11.561,jpn_C02,2022.1.2,MacIntel,62.5,,,,,,,,,,,,,CartoonStims/doctor_point_boxer_r_no.jpg,,,,,,,,,,,,,,,,,,,,,,,,,,,,,,,ピク　トマ　ピポ,right,36.266,,,,,,0,26,26,10,1,,,,,,,,,,,,,,,,,,,,,,,,,ピク　トマ　ピポ　ドキ,トマ　ピク　ピポ　ドキ,1
,,,,,,,,,R_3LZ7oGrWve20dcZ,2022-07-07_01h15.11.561,jpn_C02,2022.1.2,MacIntel,62.5,,,,,,,,,,,,,CartoonStims/burglar_point_chef_r_no.jpg,,,,,,,,,,,,,,,,,,,,,,,,,,,,,,,ピク　トマ　ルピン　ホレト,right,14.101,,,,,,0,27,27,7,1,,,,,,,,,,,,,,,,,,,,,,,,,ピク　トマ　ルピン　ホレト,トマ　ピク　ルピン　ホレト,1
,,,,,,,,,R_3LZ7oGrWve20dcZ,2022-07-07_01h15.11.561,jpn_C02,2022.1.2,MacIntel,62.5,,,,,,,,,,,,,CartoonStims/chef_punch_boxer_r_no.jpg,,,,,,,,,,,,,,,,,,,,,,,,,,,,,,,ピク　トマ　ホレト　ドキ,right,16.399,,,,,,0,28,28,20,1,,,,,,,,,,,,,,,,,,,,,,,,,ピク　プミ　ホレト　ドキ,プミ　ピク　ホレト　ドキ,1
,,,,,,,,,R_3LZ7oGrWve20dcZ,2022-07-07_01h15.11.561,jpn_C02,2022.1.2,MacIntel,62.5,,,,,,,,,,,,,CartoonStims/doctor_punch_boxer_r.jpg,,,,,,,,,,,,,,,,,,,,,,,,,,,,,,,トマ　ピポ　ドキ,right,17.548,,,,,,0,29,29,34,1,,,,,,,,,,,,,,,,,,,,,,,,,プミ　ピポ　ドキ,プミ　ピポ　ドキ,0
,,,,,,,,,R_3LZ7oGrWve20dcZ,2022-07-07_01h15.11.561,jpn_C02,2022.1.2,MacIntel,62.5,,,,,,,,,,,,,CartoonStims/cowboy_shoot_doctor_r.jpg,,,,,,,,,,,,,,,,,,,,,,,,,,,,,,,パツ　ムク　ピポ　,right,24.335,,,,,,0,30,30,32,1,,,,,,,,,,,,,,,,,,,,,,,,,パツ　ムク　ピポ,パツ　ムク　ピポ,0
,,,,,,,,,R_3LZ7oGrWve20dcZ,2022-07-07_01h15.11.561,jpn_C02,2022.1.2,MacIntel,62.5,,,,,,,,,,,,,CartoonStims/artist_punch_cowboy_r_no.jpg,,,,,,,,,,,,,,,,,,,,,,,,,,,,,,,ピク　プミ　ムク　シド,right,35.864,,,,,,0,31,31,18,1,,,,,,,,,,,,,,,,,,,,,,,,,ピク　プミ　シド　ムク,プミ　ピク　シド　ムク,1
,,,,,,,,,R_3LZ7oGrWve20dcZ,2022-07-07_01h15.11.561,jpn_C02,2022.1.2,MacIntel,62.5,,,,,,,,,,,,,CartoonStims/doctor_kick_cowboy_r_no.jpg,,,,,,,,,,,,,,,,,,,,,,,,,,,,,,,ピク　セル　ピポ　シド,right,15.763,,,,,,0,32,32,4,1,,,,,,,,,,,,,,,,,,,,,,,,,ピク　セル　ピポ　ムク,セル　ピク　ピポ　ムク,1
,,,,,,,,,R_3LZ7oGrWve20dcZ,2022-07-07_01h15.11.561,jpn_C02,2022.1.2,MacIntel,62.5,,,,,,,,,,,,,CartoonStims/burglar_kick_artist_r_no.jpg,,,,,,,,,,,,,,,,,,,,,,,,,,,,,,,ピク　セル　ルピン　シド,right,27.816,,,,,,0,33,33,1,1,,,,,,,,,,,,,,,,,,,,,,,,,ピク　セル　ルピン　シド,セル　ピク　ルピン　シド,1
,,,,,,,,,R_3LZ7oGrWve20dcZ,2022-07-07_01h15.11.561,jpn_C02,2022.1.2,MacIntel,62.5,,,,,,,,,,,,,CartoonStims/chef_point_burglar_r.jpg,,,,,,,,,,,,,,,,,,,,,,,,,,,,,,,トマ　ホレト　ルピン,right,44.416,,,,,,0,34,34,29,1,,,,,,,,,,,,,,,,,,,,,,,,,トマ　ホレト　ルピン,トマ　ホレト　ルピン,0
,,,,,,,,,R_3LZ7oGrWve20dcZ,2022-07-07_01h15.11.561,jpn_C02,2022.1.2,MacIntel,62.5,,,,,,,,,,,,,CartoonStims/cowboy_point_doctor_r_no.jpg,,,,,,,,,,,,,,,,,,,,,,,,,,,,,,,ピク　トマ　シド　ピポ,right,22.31,,,,,,0,35,35,9,1,,,,,,,,,,,,,,,,,,,,,,,,,ピク　トマ　ムク　ピポ,トマ　ピク　ムク　ピポ,1
,,,,,,,,,R_3LZ7oGrWve20dcZ,2022-07-07_01h15.11.561,jpn_C02,2022.1.2,MacIntel,62.5,,,,,,,,,,,,,,,,,,,,,,,,,,,,,,,,,,,,,,,,,,,,,,,,,,,,,,,,,,,space,2.417,0,2,2,2,1,NegVCondition.xlsx,"ここではこの言語における否定の文を学習していただきます。引き続き注意して、 聞こえた音を復唱してください。

スペースキーを押してください。",1,NegVFCT.xlsx,ここからクイズが始まります。 スクリーンに表示されるテキストに合うイメージを選んでください。,NegTest.xlsx,1,最後にここまで学んだことをアウトプットしていただきます。 テキストボックスにあるイメージを描写するテキストを入力してください。 このタスクでは、 答え合わせは行いません。,0,これですべての実験が終わりました。 お疲れさまです。 この後はアンケートに答えていただきます。,,,,,,,,