key_resp_instr_a.keys,key_resp_instr_a.rt,key_resp_instr_b.keys,key_resp_instr_b.rt,dummy.thisRepN,dummy.thisTrialN,dummy.thisN,dummy.thisIndex,dummy.ran,participant,date,expName,psychopyVersion,OS,frameRate,key_resp_instr1.keys,key_resp_instr1.rt,key_resp.keys,key_resp.rt,exp_loop.thisRepN,exp_loop.thisTrialN,exp_loop.thisN,exp_loop.thisIndex,exp_loop.ran,Word,English,Flip,Path,Audio,key_resp_instr2.keys,key_resp_instr2.rt,key_resp_fct.keys,key_resp_fct.corr,key_resp_fct.rt,trials_2.thisRepN,trials_2.thisTrialN,trials_2.thisN,trials_2.thisIndex,trials_2.ran,fct_loop.thisRepN,fct_loop.thisTrialN,fct_loop.thisN,fct_loop.thisIndex,fct_loop.ran,left_img,word,right_img,correctans,correct_img,audio,incorrect_feedback,trials.thisRepN,trials.thisTrialN,trials.thisN,trials.thisIndex,trials.ran,trials_4.thisRepN,trials_4.thisTrialN,trials_4.thisN,trials_4.thisIndex,trials_4.ran,key_resp_instr3.keys,key_resp_instr3.rt,textbox.text,key_resp_2.keys,key_resp_2.rt,fb_yn.thisRepN,fb_yn.thisTrialN,fb_yn.thisN,fb_yn.thisIndex,fb_yn.ran,gather_loop.thisRepN,gather_loop.thisTrialN,gather_loop.thisN,gather_loop.thisIndex,gather_loop.ran,Text,Wordbank,key_resp_instr4.keys,key_resp_instr4.rt,master_loop.thisRepN,master_loop.thisTrialN,master_loop.thisN,master_loop.thisIndex,master_loop.ran,exposure_file,instr_1,exp_reps,fct_file,instr_2,gather_file,gather_reps,instr_3,fReps,instr_4,trials_3.thisRepN,trials_3.thisTrialN,trials_3.thisN,trials_3.thisIndex,trials_3.ran,NegVSentence,VNegSentence,NegTF
space,0.9147,space,0.2907,0,0,0,0,1,R_3nlnuIzdAYVnZgf,2022-10-14_20h13.28.519,jpn_C03,2022.1.2,Win32,59.99880002,,,,,,,,,,,,,,,,,,,,,,,,,,,,,,,,,,,,,,,,,,,,,,,,,,,,,,,,,,,,,,,,,,,,,,,,,,,,,,,,,,,,,,,,
,,,,,,,,,R_3nlnuIzdAYVnZgf,2022-10-14_20h13.28.519,jpn_C03,2022.1.2,Win32,59.99880002,space,0.7173,space,0.6431,0,0,0,3,1,ムク,cowboy,,CartoonStims/cowboy_r.jpg,audio/muku.mp3,,,,,,,,,,,,,,,,,,,,,,,,,,,,,,,,,,,,,,,,,,,,,,,,,,,,,,,,,,,,,,,,,,,,,,,,,,
,,,,,,,,,R_3nlnuIzdAYVnZgf,2022-10-14_20h13.28.519,jpn_C03,2022.1.2,Win32,59.99880002,,,space,0.4167,0,1,1,2,1,ホレト,chef,,CartoonStims/chef_r.jpg,audio/horeto.mp3,,,,,,,,,,,,,,,,,,,,,,,,,,,,,,,,,,,,,,,,,,,,,,,,,,,,,,,,,,,,,,,,,,,,,,,,,,
,,,,,,,,,R_3nlnuIzdAYVnZgf,2022-10-14_20h13.28.519,jpn_C03,2022.1.2,Win32,59.99880002,,,space,0.2898,0,2,2,5,1,ドキ,boxer,,CartoonStims/boxer_r.jpg,audio/doki.mp3,,,,,,,,,,,,,,,,,,,,,,,,,,,,,,,,,,,,,,,,,,,,,,,,,,,,,,,,,,,,,,,,,,,,,,,,,,
,,,,,,,,,R_3nlnuIzdAYVnZgf,2022-10-14_20h13.28.519,jpn_C03,2022.1.2,Win32,59.99880002,,,space,0.1323,0,3,3,4,1,ピポ,doctor,,CartoonStims/doctor_r.jpg,audio/pipo.mp3,,,,,,,,,,,,,,,,,,,,,,,,,,,,,,,,,,,,,,,,,,,,,,,,,,,,,,,,,,,,,,,,,,,,,,,,,,
,,,,,,,,,R_3nlnuIzdAYVnZgf,2022-10-14_20h13.28.519,jpn_C03,2022.1.2,Win32,59.99880002,,,space,0.036,0,4,4,1,1,ルピン,burglar,,CartoonStims/burglar_r.jpg,audio/lupin.mp3,,,,,,,,,,,,,,,,,,,,,,,,,,,,,,,,,,,,,,,,,,,,,,,,,,,,,,,,,,,,,,,,,,,,,,,,,,
,,,,,,,,,R_3nlnuIzdAYVnZgf,2022-10-14_20h13.28.519,jpn_C03,2022.1.2,Win32,59.99880002,,,space,0.0005,0,5,5,0,1,シド,artist,,CartoonStims/artist_r.jpg,audio/sido.mp3,,,,,,,,,,,,,,,,,,,,,,,,,,,,,,,,,,,,,,,,,,,,,,,,,,,,,,,,,,,,,,,,,,,,,,,,,,
,,,,,,,,,R_3nlnuIzdAYVnZgf,2022-10-14_20h13.28.519,jpn_C03,2022.1.2,Win32,59.99880002,,,space,0.4173,1,0,6,2,1,ホレト,chef,,CartoonStims/chef_r.jpg,audio/horeto.mp3,,,,,,,,,,,,,,,,,,,,,,,,,,,,,,,,,,,,,,,,,,,,,,,,,,,,,,,,,,,,,,,,,,,,,,,,,,
,,,,,,,,,R_3nlnuIzdAYVnZgf,2022-10-14_20h13.28.519,jpn_C03,2022.1.2,Win32,59.99880002,,,space,0.1339,1,1,7,3,1,ムク,cowboy,,CartoonStims/cowboy_r.jpg,audio/muku.mp3,,,,,,,,,,,,,,,,,,,,,,,,,,,,,,,,,,,,,,,,,,,,,,,,,,,,,,,,,,,,,,,,,,,,,,,,,,
,,,,,,,,,R_3nlnuIzdAYVnZgf,2022-10-14_20h13.28.519,jpn_C03,2022.1.2,Win32,59.99880002,,,space,0.2015,1,2,8,1,1,ルピン,burglar,,CartoonStims/burglar_r.jpg,audio/lupin.mp3,,,,,,,,,,,,,,,,,,,,,,,,,,,,,,,,,,,,,,,,,,,,,,,,,,,,,,,,,,,,,,,,,,,,,,,,,,
,,,,,,,,,R_3nlnuIzdAYVnZgf,2022-10-14_20h13.28.519,jpn_C03,2022.1.2,Win32,59.99880002,,,space,0.069,1,3,9,0,1,シド,artist,,CartoonStims/artist_r.jpg,audio/sido.mp3,,,,,,,,,,,,,,,,,,,,,,,,,,,,,,,,,,,,,,,,,,,,,,,,,,,,,,,,,,,,,,,,,,,,,,,,,,
,,,,,,,,,R_3nlnuIzdAYVnZgf,2022-10-14_20h13.28.519,jpn_C03,2022.1.2,Win32,59.99880002,,,space,0.2826,1,4,10,5,1,ドキ,boxer,,CartoonStims/boxer_r.jpg,audio/doki.mp3,,,,,,,,,,,,,,,,,,,,,,,,,,,,,,,,,,,,,,,,,,,,,,,,,,,,,,,,,,,,,,,,,,,,,,,,,,
,,,,,,,,,R_3nlnuIzdAYVnZgf,2022-10-14_20h13.28.519,jpn_C03,2022.1.2,Win32,59.99880002,,,space,0.3059,1,5,11,4,1,ピポ,doctor,,CartoonStims/doctor_r.jpg,audio/pipo.mp3,,,,,,,,,,,,,,,,,,,,,,,,,,,,,,,,,,,,,,,,,,,,,,,,,,,,,,,,,,,,,,,,,,,,,,,,,,
,,,,,,,,,R_3nlnuIzdAYVnZgf,2022-10-14_20h13.28.519,jpn_C03,2022.1.2,Win32,59.99880002,,,space,0.142,2,0,12,1,1,ルピン,burglar,,CartoonStims/burglar_r.jpg,audio/lupin.mp3,,,,,,,,,,,,,,,,,,,,,,,,,,,,,,,,,,,,,,,,,,,,,,,,,,,,,,,,,,,,,,,,,,,,,,,,,,
,,,,,,,,,R_3nlnuIzdAYVnZgf,2022-10-14_20h13.28.519,jpn_C03,2022.1.2,Win32,59.99880002,,,space,0.4501,2,1,13,2,1,ホレト,chef,,CartoonStims/chef_r.jpg,audio/horeto.mp3,,,,,,,,,,,,,,,,,,,,,,,,,,,,,,,,,,,,,,,,,,,,,,,,,,,,,,,,,,,,,,,,,,,,,,,,,,
,,,,,,,,,R_3nlnuIzdAYVnZgf,2022-10-14_20h13.28.519,jpn_C03,2022.1.2,Win32,59.99880002,,,space,0.2426,2,2,14,3,1,ムク,cowboy,,CartoonStims/cowboy_r.jpg,audio/muku.mp3,,,,,,,,,,,,,,,,,,,,,,,,,,,,,,,,,,,,,,,,,,,,,,,,,,,,,,,,,,,,,,,,,,,,,,,,,,
,,,,,,,,,R_3nlnuIzdAYVnZgf,2022-10-14_20h13.28.519,jpn_C03,2022.1.2,Win32,59.99880002,,,space,0.1544,2,3,15,0,1,シド,artist,,CartoonStims/artist_r.jpg,audio/sido.mp3,,,,,,,,,,,,,,,,,,,,,,,,,,,,,,,,,,,,,,,,,,,,,,,,,,,,,,,,,,,,,,,,,,,,,,,,,,
,,,,,,,,,R_3nlnuIzdAYVnZgf,2022-10-14_20h13.28.519,jpn_C03,2022.1.2,Win32,59.99880002,,,space,0.3508,2,4,16,5,1,ドキ,boxer,,CartoonStims/boxer_r.jpg,audio/doki.mp3,,,,,,,,,,,,,,,,,,,,,,,,,,,,,,,,,,,,,,,,,,,,,,,,,,,,,,,,,,,,,,,,,,,,,,,,,,
,,,,,,,,,R_3nlnuIzdAYVnZgf,2022-10-14_20h13.28.519,jpn_C03,2022.1.2,Win32,59.99880002,,,space,0.2667,2,5,17,4,1,ピポ,doctor,,CartoonStims/doctor_r.jpg,audio/pipo.mp3,,,,,,,,,,,,,,,,,,,,,,,,,,,,,,,,,,,,,,,,,,,,,,,,,,,,,,,,,,,,,,,,,,,,,,,,,,
,,,,,,,,,R_3nlnuIzdAYVnZgf,2022-10-14_20h13.28.519,jpn_C03,2022.1.2,Win32,59.99880002,,,,,,,,,,,,,,,space,3.4876,right,1,1.921,0,0,0,0,1,,,,,,,,,,,,,,,,,,,,,,,,,,,,,,,,,,,,,,,,,,,,,,,,,,,,,,,,,,,,,,,,
,,,,,,,,,R_3nlnuIzdAYVnZgf,2022-10-14_20h13.28.519,jpn_C03,2022.1.2,Win32,59.99880002,,,,,,,,,,,,,,,,,,,,,,,,,0,0,0,10,1,CartoonStims/artist_r.jpg,ピポ,CartoonStims/doctor_r.jpg,right,CartoonStims/doctor_r.jpg,audio/pipo.mp3,残念！ こちらが正しい画像です。,,,,,,,,,,,,,,,,,,,,,,,,,,,,,,,,,,,,,,,,,,,,,,,,,,,,
,,,,,,,,,R_3nlnuIzdAYVnZgf,2022-10-14_20h13.28.519,jpn_C03,2022.1.2,Win32,59.99880002,,,,,,,,,,,,,,,,,right,1,0.6077,0,0,0,0,1,,,,,,,,,,,,,,,,,,,,,,,,,,,,,,,,,,,,,,,,,,,,,,,,,,,,,,,,,,,,,,,,
,,,,,,,,,R_3nlnuIzdAYVnZgf,2022-10-14_20h13.28.519,jpn_C03,2022.1.2,Win32,59.99880002,,,,,,,,,,,,,,,,,,,,,,,,,0,1,1,7,1,CartoonStims/cowboy_r.jpg,ルピン,CartoonStims/burglar_r.jpg,right,CartoonStims/burglar_r.jpg,audio/lupin.mp3,残念！ こちらが正しい画像です。,,,,,,,,,,,,,,,,,,,,,,,,,,,,,,,,,,,,,,,,,,,,,,,,,,,,
,,,,,,,,,R_3nlnuIzdAYVnZgf,2022-10-14_20h13.28.519,jpn_C03,2022.1.2,Win32,59.99880002,,,,,,,,,,,,,,,,,right,1,1.1157,0,0,0,0,1,,,,,,,,,,,,,,,,,,,,,,,,,,,,,,,,,,,,,,,,,,,,,,,,,,,,,,,,,,,,,,,,
,,,,,,,,,R_3nlnuIzdAYVnZgf,2022-10-14_20h13.28.519,jpn_C03,2022.1.2,Win32,59.99880002,,,,,,,,,,,,,,,,,,,,,,,,,0,2,2,9,1,CartoonStims/boxer_r.jpg,ムク,CartoonStims/cowboy_r.jpg,right,CartoonStims/cowboy_r.jpg,audio/muku.mp3,残念！ こちらが正しい画像です。,,,,,,,,,,,,,,,,,,,,,,,,,,,,,,,,,,,,,,,,,,,,,,,,,,,,
,,,,,,,,,R_3nlnuIzdAYVnZgf,2022-10-14_20h13.28.519,jpn_C03,2022.1.2,Win32,59.99880002,,,,,,,,,,,,,,,,,left,1,0.255,,,,,,,,,,,,,,,,,,0,0,0,0,1,,,,,,,,,,,,,,,,,,,,,,,,,,,,,,,,,,,,,,,,,,,,,,,
,,,,,,,,,R_3nlnuIzdAYVnZgf,2022-10-14_20h13.28.519,jpn_C03,2022.1.2,Win32,59.99880002,,,,,,,,,,,,,,,,,,,,,,,,,0,3,3,2,1,CartoonStims/chef_r.jpg,ホレト,CartoonStims/cowboy_r.jpg,left,CartoonStims/chef_r.jpg,audio/horeto.mp3,残念！ こちらが正しい画像です。,,,,,,,,,,,,,,,,,,,,,,,,,,,,,,,,,,,,,,,,,,,,,,,,,,,,
,,,,,,,,,R_3nlnuIzdAYVnZgf,2022-10-14_20h13.28.519,jpn_C03,2022.1.2,Win32,59.99880002,,,,,,,,,,,,,,,,,left,1,1.6734,,,,,,,,,,,,,,,,,,0,0,0,0,1,,,,,,,,,,,,,,,,,,,,,,,,,,,,,,,,,,,,,,,,,,,,,,,
,,,,,,,,,R_3nlnuIzdAYVnZgf,2022-10-14_20h13.28.519,jpn_C03,2022.1.2,Win32,59.99880002,,,,,,,,,,,,,,,,,,,,,,,,,0,4,4,4,1,CartoonStims/doctor_r.jpg,ピポ,CartoonStims/boxer_r.jpg,left,CartoonStims/doctor_r.jpg,audio/pipo.mp3,残念！ こちらが正しい画像です。,,,,,,,,,,,,,,,,,,,,,,,,,,,,,,,,,,,,,,,,,,,,,,,,,,,,
,,,,,,,,,R_3nlnuIzdAYVnZgf,2022-10-14_20h13.28.519,jpn_C03,2022.1.2,Win32,59.99880002,,,,,,,,,,,,,,,,,left,1,0.4169,,,,,,,,,,,,,,,,,,0,0,0,0,1,,,,,,,,,,,,,,,,,,,,,,,,,,,,,,,,,,,,,,,,,,,,,,,
,,,,,,,,,R_3nlnuIzdAYVnZgf,2022-10-14_20h13.28.519,jpn_C03,2022.1.2,Win32,59.99880002,,,,,,,,,,,,,,,,,,,,,,,,,0,5,5,0,1,CartoonStims/artist_r.jpg,シド,CartoonStims/burglar_r.jpg,left,CartoonStims/artist_r.jpg,audio/sido.mp3,残念！ こちらが正しい画像です。,,,,,,,,,,,,,,,,,,,,,,,,,,,,,,,,,,,,,,,,,,,,,,,,,,,,
,,,,,,,,,R_3nlnuIzdAYVnZgf,2022-10-14_20h13.28.519,jpn_C03,2022.1.2,Win32,59.99880002,,,,,,,,,,,,,,,,,left,1,0.9356,,,,,,,,,,,,,,,,,,0,0,0,0,1,,,,,,,,,,,,,,,,,,,,,,,,,,,,,,,,,,,,,,,,,,,,,,,
,,,,,,,,,R_3nlnuIzdAYVnZgf,2022-10-14_20h13.28.519,jpn_C03,2022.1.2,Win32,59.99880002,,,,,,,,,,,,,,,,,,,,,,,,,0,6,6,3,1,CartoonStims/cowboy_r.jpg,ムク,CartoonStims/doctor_r.jpg,left,CartoonStims/cowboy_r.jpg,audio/muku.mp3,残念！ こちらが正しい画像です。,,,,,,,,,,,,,,,,,,,,,,,,,,,,,,,,,,,,,,,,,,,,,,,,,,,,
,,,,,,,,,R_3nlnuIzdAYVnZgf,2022-10-14_20h13.28.519,jpn_C03,2022.1.2,Win32,59.99880002,,,,,,,,,,,,,,,,,left,1,0.4987,,,,,,,,,,,,,,,,,,0,0,0,0,1,,,,,,,,,,,,,,,,,,,,,,,,,,,,,,,,,,,,,,,,,,,,,,,
,,,,,,,,,R_3nlnuIzdAYVnZgf,2022-10-14_20h13.28.519,jpn_C03,2022.1.2,Win32,59.99880002,,,,,,,,,,,,,,,,,,,,,,,,,0,7,7,1,1,CartoonStims/burglar_r.jpg,ルピン,CartoonStims/chef_r.jpg,left,CartoonStims/burglar_r.jpg,audio/lupin.mp3,残念！ こちらが正しい画像です。,,,,,,,,,,,,,,,,,,,,,,,,,,,,,,,,,,,,,,,,,,,,,,,,,,,,
,,,,,,,,,R_3nlnuIzdAYVnZgf,2022-10-14_20h13.28.519,jpn_C03,2022.1.2,Win32,59.99880002,,,,,,,,,,,,,,,,,left,1,0.5016,,,,,,,,,,,,,,,,,,0,0,0,0,1,,,,,,,,,,,,,,,,,,,,,,,,,,,,,,,,,,,,,,,,,,,,,,,
,,,,,,,,,R_3nlnuIzdAYVnZgf,2022-10-14_20h13.28.519,jpn_C03,2022.1.2,Win32,59.99880002,,,,,,,,,,,,,,,,,,,,,,,,,0,8,8,5,1,CartoonStims/boxer_r.jpg,ドキ,CartoonStims/artist_r.jpg,left,CartoonStims/boxer_r.jpg,audio/doki.mp3,残念！ こちらが正しい画像です。,,,,,,,,,,,,,,,,,,,,,,,,,,,,,,,,,,,,,,,,,,,,,,,,,,,,
,,,,,,,,,R_3nlnuIzdAYVnZgf,2022-10-14_20h13.28.519,jpn_C03,2022.1.2,Win32,59.99880002,,,,,,,,,,,,,,,,,right,1,0.5911,0,0,0,0,1,,,,,,,,,,,,,,,,,,,,,,,,,,,,,,,,,,,,,,,,,,,,,,,,,,,,,,,,,,,,,,,,
,,,,,,,,,R_3nlnuIzdAYVnZgf,2022-10-14_20h13.28.519,jpn_C03,2022.1.2,Win32,59.99880002,,,,,,,,,,,,,,,,,,,,,,,,,0,9,9,11,1,CartoonStims/burglar_r.jpg,ドキ,CartoonStims/boxer_r.jpg,right,CartoonStims/boxer_r.jpg,audio/doki.mp3,残念！ こちらが正しい画像です。,,,,,,,,,,,,,,,,,,,,,,,,,,,,,,,,,,,,,,,,,,,,,,,,,,,,
,,,,,,,,,R_3nlnuIzdAYVnZgf,2022-10-14_20h13.28.519,jpn_C03,2022.1.2,Win32,59.99880002,,,,,,,,,,,,,,,,,right,1,1.6338,0,0,0,0,1,,,,,,,,,,,,,,,,,,,,,,,,,,,,,,,,,,,,,,,,,,,,,,,,,,,,,,,,,,,,,,,,
,,,,,,,,,R_3nlnuIzdAYVnZgf,2022-10-14_20h13.28.519,jpn_C03,2022.1.2,Win32,59.99880002,,,,,,,,,,,,,,,,,,,,,,,,,0,10,10,6,1,CartoonStims/chef_r.jpg,シド,CartoonStims/artist_r.jpg,right,CartoonStims/artist_r.jpg,audio/sido.mp3,残念！ こちらが正しい画像です。,,,,,,,,,,,,,,,,,,,,,,,,,,,,,,,,,,,,,,,,,,,,,,,,,,,,
,,,,,,,,,R_3nlnuIzdAYVnZgf,2022-10-14_20h13.28.519,jpn_C03,2022.1.2,Win32,59.99880002,,,,,,,,,,,,,,,,,left,0,0.0743,,,,,,,,,,,,,,,,,,,,,,,0,0,0,0,1,,,,,,,,,,,,,,,,,,,,,,,,,,,,,,,,,,,,,,,,,,
,,,,,,,,,R_3nlnuIzdAYVnZgf,2022-10-14_20h13.28.519,jpn_C03,2022.1.2,Win32,59.99880002,,,,,,,,,,,,,,,,,,,,,,,,,0,11,11,8,1,CartoonStims/doctor_r.jpg,ホレト,CartoonStims/chef_r.jpg,right,CartoonStims/chef_r.jpg,audio/horeto.mp3,残念！ こちらが正しい画像です。,,,,,,,,,,,,,,,,,,,,,,,,,,,,,,,,,,,,,,,,,,,,,,,,,,,,
,,,,,,,,,R_3nlnuIzdAYVnZgf,2022-10-14_20h13.28.519,jpn_C03,2022.1.2,Win32,59.99880002,,,,,,,,,,,,,,,,,,,,,,,,,,,,,,,,,,,,,,,,,,,,,,,space,3.8127,ピ歩,right,7.8534,0,0,0,0,1,,,,,,,,,,,,,,,,,,,,,,,,,,,,,,,,
,,,,,,,,,R_3nlnuIzdAYVnZgf,2022-10-14_20h13.28.519,jpn_C03,2022.1.2,Win32,59.99880002,,,,,,,,,,,,,CartoonStims/cowboy_r.jpg,audio/muku.mp3,,,,,,,,,,,,,,,,,,,,,,,,,,,,,,,,,,,,,,,,,,,0,0,0,3,1,ムク,,,,,,,,,,,,,,,,,,,,,,,,,,
,,,,,,,,,R_3nlnuIzdAYVnZgf,2022-10-14_20h13.28.519,jpn_C03,2022.1.2,Win32,59.99880002,,,,,,,,,,,,,,,,,,,,,,,,,,,,,,,,,,,,,,,,,,,,,,,,,ホレト,right,6.4855,0,0,0,0,1,,,,,,,,,,,,,,,,,,,,,,,,,,,,,,,,
,,,,,,,,,R_3nlnuIzdAYVnZgf,2022-10-14_20h13.28.519,jpn_C03,2022.1.2,Win32,59.99880002,,,,,,,,,,,,,CartoonStims/chef_r.jpg,audio/horeto.mp3,,,,,,,,,,,,,,,,,,,,,,,,,,,,,,,,,,,,,,,,,,,0,1,1,2,1,ホレト,,,,,,,,,,,,,,,,,,,,,,,,,,
,,,,,,,,,R_3nlnuIzdAYVnZgf,2022-10-14_20h13.28.519,jpn_C03,2022.1.2,Win32,59.99880002,,,,,,,,,,,,,,,,,,,,,,,,,,,,,,,,,,,,,,,,,,,,,,,,,ピ歩,right,3.2966,0,0,0,0,1,,,,,,,,,,,,,,,,,,,,,,,,,,,,,,,,
,,,,,,,,,R_3nlnuIzdAYVnZgf,2022-10-14_20h13.28.519,jpn_C03,2022.1.2,Win32,59.99880002,,,,,,,,,,,,,CartoonStims/doctor_r.jpg,audio/pipo.mp3,,,,,,,,,,,,,,,,,,,,,,,,,,,,,,,,,,,,,,,,,,,0,2,2,4,1,ピポ,,,,,,,,,,,,,,,,,,,,,,,,,,
,,,,,,,,,R_3nlnuIzdAYVnZgf,2022-10-14_20h13.28.519,jpn_C03,2022.1.2,Win32,59.99880002,,,,,,,,,,,,,,,,,,,,,,,,,,,,,,,,,,,,,,,,,,,,,,,,,ルピン,right,3.8168,0,0,0,0,1,,,,,,,,,,,,,,,,,,,,,,,,,,,,,,,,
,,,,,,,,,R_3nlnuIzdAYVnZgf,2022-10-14_20h13.28.519,jpn_C03,2022.1.2,Win32,59.99880002,,,,,,,,,,,,,CartoonStims/burglar_r.jpg,audio/lupin.mp3,,,,,,,,,,,,,,,,,,,,,,,,,,,,,,,,,,,,,,,,,,,0,3,3,1,1,ルピン,,,,,,,,,,,,,,,,,,,,,,,,,,
,,,,,,,,,R_3nlnuIzdAYVnZgf,2022-10-14_20h13.28.519,jpn_C03,2022.1.2,Win32,59.99880002,,,,,,,,,,,,,,,,,,,,,,,,,,,,,,,,,,,,,,,,,,,,,,,,,ドキ,right,4.2448,0,0,0,0,1,,,,,,,,,,,,,,,,,,,,,,,,,,,,,,,,
,,,,,,,,,R_3nlnuIzdAYVnZgf,2022-10-14_20h13.28.519,jpn_C03,2022.1.2,Win32,59.99880002,,,,,,,,,,,,,CartoonStims/boxer_r.jpg,audio/doki.mp3,,,,,,,,,,,,,,,,,,,,,,,,,,,,,,,,,,,,,,,,,,,0,4,4,5,1,ドキ,,,,,,,,,,,,,,,,,,,,,,,,,,
,,,,,,,,,R_3nlnuIzdAYVnZgf,2022-10-14_20h13.28.519,jpn_C03,2022.1.2,Win32,59.99880002,,,,,,,,,,,,,,,,,,,,,,,,,,,,,,,,,,,,,,,,,,,,,,,,,ムク,right,8.536,0,0,0,0,1,,,,,,,,,,,,,,,,,,,,,,,,,,,,,,,,
,,,,,,,,,R_3nlnuIzdAYVnZgf,2022-10-14_20h13.28.519,jpn_C03,2022.1.2,Win32,59.99880002,,,,,,,,,,,,,CartoonStims/artist_r.jpg,audio/sido.mp3,,,,,,,,,,,,,,,,,,,,,,,,,,,,,,,,,,,,,,,,,,,0,5,5,0,1,シド,,,,,,,,,,,,,,,,,,,,,,,,,,
,,,,,,,,,R_3nlnuIzdAYVnZgf,2022-10-14_20h13.28.519,jpn_C03,2022.1.2,Win32,59.99880002,,,,,,,,,,,,,,,,,,,,,,,,,,,,,,,,,,,,,,,,,,,,,,,,,ホレト,right,2.5259,0,0,0,0,1,,,,,,,,,,,,,,,,,,,,,,,,,,,,,,,,
,,,,,,,,,R_3nlnuIzdAYVnZgf,2022-10-14_20h13.28.519,jpn_C03,2022.1.2,Win32,59.99880002,,,,,,,,,,,,,CartoonStims/chef_r.jpg,audio/horeto.mp3,,,,,,,,,,,,,,,,,,,,,,,,,,,,,,,,,,,,,,,,,,,1,0,6,2,1,ホレト,,,,,,,,,,,,,,,,,,,,,,,,,,
,,,,,,,,,R_3nlnuIzdAYVnZgf,2022-10-14_20h13.28.519,jpn_C03,2022.1.2,Win32,59.99880002,,,,,,,,,,,,,,,,,,,,,,,,,,,,,,,,,,,,,,,,,,,,,,,,,ピポ,right,11.8951,0,0,0,0,1,,,,,,,,,,,,,,,,,,,,,,,,,,,,,,,,
,,,,,,,,,R_3nlnuIzdAYVnZgf,2022-10-14_20h13.28.519,jpn_C03,2022.1.2,Win32,59.99880002,,,,,,,,,,,,,CartoonStims/doctor_r.jpg,audio/pipo.mp3,,,,,,,,,,,,,,,,,,,,,,,,,,,,,,,,,,,,,,,,,,,1,1,7,4,1,ピポ,,,,,,,,,,,,,,,,,,,,,,,,,,
,,,,,,,,,R_3nlnuIzdAYVnZgf,2022-10-14_20h13.28.519,jpn_C03,2022.1.2,Win32,59.99880002,,,,,,,,,,,,,,,,,,,,,,,,,,,,,,,,,,,,,,,,,,,,,,,,,ルピン,right,3.2291,0,0,0,0,1,,,,,,,,,,,,,,,,,,,,,,,,,,,,,,,,
,,,,,,,,,R_3nlnuIzdAYVnZgf,2022-10-14_20h13.28.519,jpn_C03,2022.1.2,Win32,59.99880002,,,,,,,,,,,,,CartoonStims/burglar_r.jpg,audio/lupin.mp3,,,,,,,,,,,,,,,,,,,,,,,,,,,,,,,,,,,,,,,,,,,1,2,8,1,1,ルピン,,,,,,,,,,,,,,,,,,,,,,,,,,
,,,,,,,,,R_3nlnuIzdAYVnZgf,2022-10-14_20h13.28.519,jpn_C03,2022.1.2,Win32,59.99880002,,,,,,,,,,,,,,,,,,,,,,,,,,,,,,,,,,,,,,,,,,,,,,,,,シド,right,6.6591,0,0,0,0,1,,,,,,,,,,,,,,,,,,,,,,,,,,,,,,,,
,,,,,,,,,R_3nlnuIzdAYVnZgf,2022-10-14_20h13.28.519,jpn_C03,2022.1.2,Win32,59.99880002,,,,,,,,,,,,,CartoonStims/cowboy_r.jpg,audio/muku.mp3,,,,,,,,,,,,,,,,,,,,,,,,,,,,,,,,,,,,,,,,,,,1,3,9,3,1,ムク,,,,,,,,,,,,,,,,,,,,,,,,,,
,,,,,,,,,R_3nlnuIzdAYVnZgf,2022-10-14_20h13.28.519,jpn_C03,2022.1.2,Win32,59.99880002,,,,,,,,,,,,,,,,,,,,,,,,,,,,,,,,,,,,,,,,,,,,,,,,,ドキ,right,2.1904,0,0,0,0,1,,,,,,,,,,,,,,,,,,,,,,,,,,,,,,,,
,,,,,,,,,R_3nlnuIzdAYVnZgf,2022-10-14_20h13.28.519,jpn_C03,2022.1.2,Win32,59.99880002,,,,,,,,,,,,,CartoonStims/boxer_r.jpg,audio/doki.mp3,,,,,,,,,,,,,,,,,,,,,,,,,,,,,,,,,,,,,,,,,,,1,4,10,5,1,ドキ,,,,,,,,,,,,,,,,,,,,,,,,,,
,,,,,,,,,R_3nlnuIzdAYVnZgf,2022-10-14_20h13.28.519,jpn_C03,2022.1.2,Win32,59.99880002,,,,,,,,,,,,,,,,,,,,,,,,,,,,,,,,,,,,,,,,,,,,,,,,,ムク,right,6.8014,0,0,0,0,1,,,,,,,,,,,,,,,,,,,,,,,,,,,,,,,,
,,,,,,,,,R_3nlnuIzdAYVnZgf,2022-10-14_20h13.28.519,jpn_C03,2022.1.2,Win32,59.99880002,,,,,,,,,,,,,CartoonStims/artist_r.jpg,audio/sido.mp3,,,,,,,,,,,,,,,,,,,,,,,,,,,,,,,,,,,,,,,,,,,1,5,11,0,1,シド,,,,,,,,,,,,,,,,,,,,,,,,,,
,,,,,,,,,R_3nlnuIzdAYVnZgf,2022-10-14_20h13.28.519,jpn_C03,2022.1.2,Win32,59.99880002,,,,,,,,,,,,,,,,,,,,,,,,,,,,,,,,,,,,,,,,,,,,,,,,,,,,,,,,,,,,,,,,space,0.7995,0,0,0,0,1,NounExposure.xlsx,"最初のトライアルでは、 画像が表示され、 その画像の下に単語が出てきます。 またこの単語の音も聞くことができます。 この音を大きな声で復唱してください。 そしてこの画像がどのような単語を示しているのか, 考えてみてください。 その後、 続きのボタンを押すと次の単語の学習が始まります。

スペースキーを押して、学習を始めましょう。",3,NounFCT.xlsx,ここから語彙のクイズが始まります。スクリーンに表示される単語に合う画像をキーボードの右と左の矢印キーを使って選択してください。,NounTest.xlsx,2,次に、これまで学習してきたことをアウトプットしていただきます。 表示される画像を描写していると思う単語を、テキストボックスにタイプしてください。,1,"ここまでが最初のトライアルです。ここで休憩をとっても構いません。

休憩が済みましたら、スペースキーを押して続きを始めましょう。",,,,,,,,
,,,,,,,,,R_3nlnuIzdAYVnZgf,2022-10-14_20h13.28.519,jpn_C03,2022.1.2,Win32,59.99880002,space,3.1727,space,12.5888,0,0,0,25,1,パツ　シド　ピポ,,,CartoonStims/artist_shoot_doctor_r.jpg,audio/patsusidopipo.mp3,,,,,,,,,,,,,,,,,,,,,,,,,,,,,,,,,,,,,,,,,,,,,,,,,,,,,,,,,,,,,,,,,,,,,,,,,,
,,,,,,,,,R_3nlnuIzdAYVnZgf,2022-10-14_20h13.28.519,jpn_C03,2022.1.2,Win32,59.99880002,,,space,3.5816,0,1,1,17,1,トマ　ホレト　ドキ,,,CartoonStims/chef_point_boxer_r.jpg,audio/tomahoretodoki.mp3,,,,,,,,,,,,,,,,,,,,,,,,,,,,,,,,,,,,,,,,,,,,,,,,,,,,,,,,,,,,,,,,,,,,,,,,,,
,,,,,,,,,R_3nlnuIzdAYVnZgf,2022-10-14_20h13.28.519,jpn_C03,2022.1.2,Win32,59.99880002,,,space,4.5116,0,2,2,0,1,セル　シド　ルピン,,,CartoonStims/artist_kick_burglar_r.jpg,audio/serusidolupin.mp3,,,,,,,,,,,,,,,,,,,,,,,,,,,,,,,,,,,,,,,,,,,,,,,,,,,,,,,,,,,,,,,,,,,,,,,,,,
,,,,,,,,,R_3nlnuIzdAYVnZgf,2022-10-14_20h13.28.519,jpn_C03,2022.1.2,Win32,59.99880002,,,space,3.063,0,3,3,21,1,トマ　ピポ　ルピン,,,CartoonStims/doctor_point_burglar_r.jpg,audio/tomapipolupin.mp3,,,,,,,,,,,,,,,,,,,,,,,,,,,,,,,,,,,,,,,,,,,,,,,,,,,,,,,,,,,,,,,,,,,,,,,,,,
,,,,,,,,,R_3nlnuIzdAYVnZgf,2022-10-14_20h13.28.519,jpn_C03,2022.1.2,Win32,59.99880002,,,space,1.9428,0,4,4,28,1,パツ　ホレト　ドキ,,,CartoonStims/chef_shoot_boxer_r.jpg,audio/patsuhoretodoki.mp3,,,,,,,,,,,,,,,,,,,,,,,,,,,,,,,,,,,,,,,,,,,,,,,,,,,,,,,,,,,,,,,,,,,,,,,,,,
,,,,,,,,,R_3nlnuIzdAYVnZgf,2022-10-14_20h13.28.519,jpn_C03,2022.1.2,Win32,59.99880002,,,space,1.6199,0,5,5,27,1,パツ　ルピン　ドキ,,,CartoonStims/burglar_shoot_boxer_r.jpg,audio/patsulupindoki.mp3,,,,,,,,,,,,,,,,,,,,,,,,,,,,,,,,,,,,,,,,,,,,,,,,,,,,,,,,,,,,,,,,,,,,,,,,,,
,,,,,,,,,R_3nlnuIzdAYVnZgf,2022-10-14_20h13.28.519,jpn_C03,2022.1.2,Win32,59.99880002,,,space,1.9091,0,6,6,46,1,プミ　ドキ　ムク,,,CartoonStims/boxer_punch_cowboy_r.jpg,audio/pumidokimuku.mp3,,,,,,,,,,,,,,,,,,,,,,,,,,,,,,,,,,,,,,,,,,,,,,,,,,,,,,,,,,,,,,,,,,,,,,,,,,
,,,,,,,,,R_3nlnuIzdAYVnZgf,2022-10-14_20h13.28.519,jpn_C03,2022.1.2,Win32,59.99880002,,,space,2.7243,0,7,7,7,1,セル　ムク　ドキ,,,CartoonStims/cowboy_kick_boxer_r.jpg,audio/serumukudoki.mp3,,,,,,,,,,,,,,,,,,,,,,,,,,,,,,,,,,,,,,,,,,,,,,,,,,,,,,,,,,,,,,,,,,,,,,,,,,
,,,,,,,,,R_3nlnuIzdAYVnZgf,2022-10-14_20h13.28.519,jpn_C03,2022.1.2,Win32,59.99880002,,,space,2.1899,0,8,8,3,1,セル　ルピン　ムク,,,CartoonStims/burglar_kick_cowboy_r.jpg,audio/serulupinmuku.mp3,,,,,,,,,,,,,,,,,,,,,,,,,,,,,,,,,,,,,,,,,,,,,,,,,,,,,,,,,,,,,,,,,,,,,,,,,,
,,,,,,,,,R_3nlnuIzdAYVnZgf,2022-10-14_20h13.28.519,jpn_C03,2022.1.2,Win32,59.99880002,,,space,2.348,0,9,9,12,1,トマ　シド　ホレト,,,CartoonStims/artist_point_chef_r.jpg,audio/tomasidohoreto.mp3,,,,,,,,,,,,,,,,,,,,,,,,,,,,,,,,,,,,,,,,,,,,,,,,,,,,,,,,,,,,,,,,,,,,,,,,,,
,,,,,,,,,R_3nlnuIzdAYVnZgf,2022-10-14_20h13.28.519,jpn_C03,2022.1.2,Win32,59.99880002,,,space,2.1478,0,10,10,30,1,パツ　ムク　シド,,,CartoonStims/cowboy_shoot_artist_r.jpg,audio/patsumukusido.mp3,,,,,,,,,,,,,,,,,,,,,,,,,,,,,,,,,,,,,,,,,,,,,,,,,,,,,,,,,,,,,,,,,,,,,,,,,,
,,,,,,,,,R_3nlnuIzdAYVnZgf,2022-10-14_20h13.28.519,jpn_C03,2022.1.2,Win32,59.99880002,,,space,2.1199,0,11,11,45,1,プミ　ピポ　ムク,,,CartoonStims/doctor_punch_cowboy_r.jpg,audio/pumipipomuku.mp3,,,,,,,,,,,,,,,,,,,,,,,,,,,,,,,,,,,,,,,,,,,,,,,,,,,,,,,,,,,,,,,,,,,,,,,,,,
,,,,,,,,,R_3nlnuIzdAYVnZgf,2022-10-14_20h13.28.519,jpn_C03,2022.1.2,Win32,59.99880002,,,space,8.3598,0,12,12,33,1,パツ　ピポ　ホレト,,,CartoonStims/doctor_shoot_chef_r.jpg,audio/patsupipohoreto.mp3,,,,,,,,,,,,,,,,,,,,,,,,,,,,,,,,,,,,,,,,,,,,,,,,,,,,,,,,,,,,,,,,,,,,,,,,,,
,,,,,,,,,R_3nlnuIzdAYVnZgf,2022-10-14_20h13.28.519,jpn_C03,2022.1.2,Win32,59.99880002,,,space,4.0791,0,13,13,42,1,プミ　ムク　ルピン,,,CartoonStims/cowboy_punch_burglar_r.jpg,audio/pumimukulupin.mp3,,,,,,,,,,,,,,,,,,,,,,,,,,,,,,,,,,,,,,,,,,,,,,,,,,,,,,,,,,,,,,,,,,,,,,,,,,
,,,,,,,,,R_3nlnuIzdAYVnZgf,2022-10-14_20h13.28.519,jpn_C03,2022.1.2,Win32,59.99880002,,,space,1.8356,0,14,14,24,1,パツ　シド　ムク,,,CartoonStims/artist_shoot_cowboy_r.jpg,audio/patsusidomuku.mp3,,,,,,,,,,,,,,,,,,,,,,,,,,,,,,,,,,,,,,,,,,,,,,,,,,,,,,,,,,,,,,,,,,,,,,,,,,
,,,,,,,,,R_3nlnuIzdAYVnZgf,2022-10-14_20h13.28.519,jpn_C03,2022.1.2,Win32,59.99880002,,,space,0.6173,0,15,15,4,1,セル　ホレト　ムク,,,CartoonStims/chef_kick_cowboy_r.jpg,audio/seruhoretomuku.mp3,,,,,,,,,,,,,,,,,,,,,,,,,,,,,,,,,,,,,,,,,,,,,,,,,,,,,,,,,,,,,,,,,,,,,,,,,,
,,,,,,,,,R_3nlnuIzdAYVnZgf,2022-10-14_20h13.28.519,jpn_C03,2022.1.2,Win32,59.99880002,,,space,0.8829,0,16,16,5,1,セル　ホレト　ピポ,,,CartoonStims/chef_kick_doctor_r.jpg,audio/seruhoretopipo.mp3,,,,,,,,,,,,,,,,,,,,,,,,,,,,,,,,,,,,,,,,,,,,,,,,,,,,,,,,,,,,,,,,,,,,,,,,,,
,,,,,,,,,R_3nlnuIzdAYVnZgf,2022-10-14_20h13.28.519,jpn_C03,2022.1.2,Win32,59.99880002,,,space,2.2151,0,17,17,39,1,プミ　ルピン　シド,,,CartoonStims/burglar_punch_artist_r.jpg,audio/pumilupinsido.mp3,,,,,,,,,,,,,,,,,,,,,,,,,,,,,,,,,,,,,,,,,,,,,,,,,,,,,,,,,,,,,,,,,,,,,,,,,,
,,,,,,,,,R_3nlnuIzdAYVnZgf,2022-10-14_20h13.28.519,jpn_C03,2022.1.2,Win32,59.99880002,,,space,0.774,0,18,18,29,1,パツ　ホレト　シド,,,CartoonStims/chef_shoot_artist_r.jpg,audio/patsuhoretosido.mp3,,,,,,,,,,,,,,,,,,,,,,,,,,,,,,,,,,,,,,,,,,,,,,,,,,,,,,,,,,,,,,,,,,,,,,,,,,
,,,,,,,,,R_3nlnuIzdAYVnZgf,2022-10-14_20h13.28.519,jpn_C03,2022.1.2,Win32,59.99880002,,,space,0.7827,0,19,19,23,1,トマ　ドキ　ホレト,,,CartoonStims/boxer_point_chef_r.jpg,audio/tomadokihoreto.mp3,,,,,,,,,,,,,,,,,,,,,,,,,,,,,,,,,,,,,,,,,,,,,,,,,,,,,,,,,,,,,,,,,,,,,,,,,,
,,,,,,,,,R_3nlnuIzdAYVnZgf,2022-10-14_20h13.28.519,jpn_C03,2022.1.2,Win32,59.99880002,,,space,0.672,0,20,20,16,1,トマ　ホレト　ピポ,,,CartoonStims/chef_point_doctor_r.jpg,audio/tomahoretopipo.mp3,,,,,,,,,,,,,,,,,,,,,,,,,,,,,,,,,,,,,,,,,,,,,,,,,,,,,,,,,,,,,,,,,,,,,,,,,,
,,,,,,,,,R_3nlnuIzdAYVnZgf,2022-10-14_20h13.28.519,jpn_C03,2022.1.2,Win32,59.99880002,,,space,0.5737,0,21,21,38,1,プミ　ルピン　ドキ,,,CartoonStims/burglar_punch_boxer_r.jpg,audio/pumilupindoki.mp3,,,,,,,,,,,,,,,,,,,,,,,,,,,,,,,,,,,,,,,,,,,,,,,,,,,,,,,,,,,,,,,,,,,,,,,,,,
,,,,,,,,,R_3nlnuIzdAYVnZgf,2022-10-14_20h13.28.519,jpn_C03,2022.1.2,Win32,59.99880002,,,space,0.5556,0,22,22,19,1,トマ　ムク　シド,,,CartoonStims/cowboy_point_artist_r.jpg,audio/tomamukusido.mp3,,,,,,,,,,,,,,,,,,,,,,,,,,,,,,,,,,,,,,,,,,,,,,,,,,,,,,,,,,,,,,,,,,,,,,,,,,
,,,,,,,,,R_3nlnuIzdAYVnZgf,2022-10-14_20h13.28.519,jpn_C03,2022.1.2,Win32,59.99880002,,,space,0.7173,0,23,23,18,1,トマ　ムク　ドキ,,,CartoonStims/cowboy_point_boxer_r.jpg,audio/tomamukudoki.mp3,,,,,,,,,,,,,,,,,,,,,,,,,,,,,,,,,,,,,,,,,,,,,,,,,,,,,,,,,,,,,,,,,,,,,,,,,,
,,,,,,,,,R_3nlnuIzdAYVnZgf,2022-10-14_20h13.28.519,jpn_C03,2022.1.2,Win32,59.99880002,,,space,0.6005,0,24,24,40,1,プミ　ホレト　シド,,,CartoonStims/chef_punch_artist_r.jpg,audio/pumihoretosido.mp3,,,,,,,,,,,,,,,,,,,,,,,,,,,,,,,,,,,,,,,,,,,,,,,,,,,,,,,,,,,,,,,,,,,,,,,,,,
,,,,,,,,,R_3nlnuIzdAYVnZgf,2022-10-14_20h13.28.519,jpn_C03,2022.1.2,Win32,59.99880002,,,space,0.1671,0,25,25,14,1,トマ　ルピン　ムク,,,CartoonStims/burglar_point_cowboy_r.jpg,audio/tomalupinmuku.mp3,,,,,,,,,,,,,,,,,,,,,,,,,,,,,,,,,,,,,,,,,,,,,,,,,,,,,,,,,,,,,,,,,,,,,,,,,,
,,,,,,,,,R_3nlnuIzdAYVnZgf,2022-10-14_20h13.28.519,jpn_C03,2022.1.2,Win32,59.99880002,,,space,0.1665,0,26,26,34,1,パツ　ドキ　ホレト,,,CartoonStims/boxer_shoot_chef_r.jpg,audio/patsudokihoreto.mp3,,,,,,,,,,,,,,,,,,,,,,,,,,,,,,,,,,,,,,,,,,,,,,,,,,,,,,,,,,,,,,,,,,,,,,,,,,
,,,,,,,,,R_3nlnuIzdAYVnZgf,2022-10-14_20h13.28.519,jpn_C03,2022.1.2,Win32,59.99880002,,,space,0.7687,0,27,27,26,1,パツ　ルピン　ピポ,,,CartoonStims/burglar_shoot_doctor_r.jpg,audio/patsulupinpipo.mp3,,,,,,,,,,,,,,,,,,,,,,,,,,,,,,,,,,,,,,,,,,,,,,,,,,,,,,,,,,,,,,,,,,,,,,,,,,
,,,,,,,,,R_3nlnuIzdAYVnZgf,2022-10-14_20h13.28.519,jpn_C03,2022.1.2,Win32,59.99880002,,,space,0.6327,0,28,28,37,1,プミ　シド　ドキ,,,CartoonStims/artist_punch_boxer_r.jpg,audio/pumisidodoki.mp3,,,,,,,,,,,,,,,,,,,,,,,,,,,,,,,,,,,,,,,,,,,,,,,,,,,,,,,,,,,,,,,,,,,,,,,,,,
,,,,,,,,,R_3nlnuIzdAYVnZgf,2022-10-14_20h13.28.519,jpn_C03,2022.1.2,Win32,59.99880002,,,space,0.3084,0,29,29,32,1,パツ　ピポ　ルピン,,,CartoonStims/doctor_shoot_burglar_r.jpg,audio/patsupipolupin.mp3,,,,,,,,,,,,,,,,,,,,,,,,,,,,,,,,,,,,,,,,,,,,,,,,,,,,,,,,,,,,,,,,,,,,,,,,,,
,,,,,,,,,R_3nlnuIzdAYVnZgf,2022-10-14_20h13.28.519,jpn_C03,2022.1.2,Win32,59.99880002,,,space,0.0055,0,30,30,6,1,セル　ムク　ピポ,,,CartoonStims/cowboy_kick_doctor_r.jpg,audio/serumukupipo.mp3,,,,,,,,,,,,,,,,,,,,,,,,,,,,,,,,,,,,,,,,,,,,,,,,,,,,,,,,,,,,,,,,,,,,,,,,,,
,,,,,,,,,R_3nlnuIzdAYVnZgf,2022-10-14_20h13.28.519,jpn_C03,2022.1.2,Win32,59.99880002,,,space,0.3021,0,31,31,9,1,セル　ピポ　シド,,,CartoonStims/doctor_kick_artist_r.jpg,audio/serupiposido.mp3,,,,,,,,,,,,,,,,,,,,,,,,,,,,,,,,,,,,,,,,,,,,,,,,,,,,,,,,,,,,,,,,,,,,,,,,,,
,,,,,,,,,R_3nlnuIzdAYVnZgf,2022-10-14_20h13.28.519,jpn_C03,2022.1.2,Win32,59.99880002,,,space,0.1368,0,32,32,47,1,プミ　ドキ　ピポ,,,CartoonStims/boxer_punch_doctor_r.jpg,audio/pumidokipipo.mp3,,,,,,,,,,,,,,,,,,,,,,,,,,,,,,,,,,,,,,,,,,,,,,,,,,,,,,,,,,,,,,,,,,,,,,,,,,
,,,,,,,,,R_3nlnuIzdAYVnZgf,2022-10-14_20h13.28.519,jpn_C03,2022.1.2,Win32,59.99880002,,,space,0.7997,0,33,33,1,1,セル 　シド 　ホレト,,,CartoonStims/artist_kick_chef_r.jpg,audio/serusidohoreto.mp3,,,,,,,,,,,,,,,,,,,,,,,,,,,,,,,,,,,,,,,,,,,,,,,,,,,,,,,,,,,,,,,,,,,,,,,,,,
,,,,,,,,,R_3nlnuIzdAYVnZgf,2022-10-14_20h13.28.519,jpn_C03,2022.1.2,Win32,59.99880002,,,space,0.192,0,34,34,10,1,セル　ドキ　シド,,,CartoonStims/boxer_kick_artist_r.jpg,audio/serudokisido.mp3,,,,,,,,,,,,,,,,,,,,,,,,,,,,,,,,,,,,,,,,,,,,,,,,,,,,,,,,,,,,,,,,,,,,,,,,,,
,,,,,,,,,R_3nlnuIzdAYVnZgf,2022-10-14_20h13.28.519,jpn_C03,2022.1.2,Win32,59.99880002,,,space,0.101,0,35,35,43,1,プミ　ムク　ホレト,,,CartoonStims/cowboy_punch_chef_r.jpg,audio/pumimukuhoreto.mp3,,,,,,,,,,,,,,,,,,,,,,,,,,,,,,,,,,,,,,,,,,,,,,,,,,,,,,,,,,,,,,,,,,,,,,,,,,
,,,,,,,,,R_3nlnuIzdAYVnZgf,2022-10-14_20h13.28.519,jpn_C03,2022.1.2,Win32,59.99880002,,,space,0.2266,0,36,36,35,1,パツ　ドキ　ムク,,,CartoonStims/boxer_shoot_cowboy_r.jpg,audio/patsudokimuku.mp3,,,,,,,,,,,,,,,,,,,,,,,,,,,,,,,,,,,,,,,,,,,,,,,,,,,,,,,,,,,,,,,,,,,,,,,,,,
,,,,,,,,,R_3nlnuIzdAYVnZgf,2022-10-14_20h13.28.519,jpn_C03,2022.1.2,Win32,59.99880002,,,space,0.2191,0,37,37,11,1,セル　ドキ　ルピン,,,CartoonStims/boxer_kick_burglar_r.jpg,audio/serudokilupin.mp3,,,,,,,,,,,,,,,,,,,,,,,,,,,,,,,,,,,,,,,,,,,,,,,,,,,,,,,,,,,,,,,,,,,,,,,,,,
,,,,,,,,,R_3nlnuIzdAYVnZgf,2022-10-14_20h13.28.519,jpn_C03,2022.1.2,Win32,59.99880002,,,space,0.2508,0,38,38,13,1,トマ　シド　ムク,,,CartoonStims/artist_point_cowboy_r.jpg,audio/tomasidomuku.mp3,,,,,,,,,,,,,,,,,,,,,,,,,,,,,,,,,,,,,,,,,,,,,,,,,,,,,,,,,,,,,,,,,,,,,,,,,,
,,,,,,,,,R_3nlnuIzdAYVnZgf,2022-10-14_20h13.28.519,jpn_C03,2022.1.2,Win32,59.99880002,,,space,0.017,0,39,39,15,1,トマ　ルピン　ピポ,,,CartoonStims/burglar_point_doctor_r.jpg,audio/tomalupinpipo.mp3,,,,,,,,,,,,,,,,,,,,,,,,,,,,,,,,,,,,,,,,,,,,,,,,,,,,,,,,,,,,,,,,,,,,,,,,,,
,,,,,,,,,R_3nlnuIzdAYVnZgf,2022-10-14_20h13.28.519,jpn_C03,2022.1.2,Win32,59.99880002,,,space,0.2018,0,40,40,22,1,トマ　ドキ　ルピン,,,CartoonStims/boxer_point_burglar_r.jpg,audio/tomadokilupin.mp3,,,,,,,,,,,,,,,,,,,,,,,,,,,,,,,,,,,,,,,,,,,,,,,,,,,,,,,,,,,,,,,,,,,,,,,,,,
,,,,,,,,,R_3nlnuIzdAYVnZgf,2022-10-14_20h13.28.519,jpn_C03,2022.1.2,Win32,59.99880002,,,space,0.4015,0,41,41,44,1,プミ　ピポ　ホレト,,,CartoonStims/doctor_punch_chef_r.jpg,audio/pumipipohoreto.mp3,,,,,,,,,,,,,,,,,,,,,,,,,,,,,,,,,,,,,,,,,,,,,,,,,,,,,,,,,,,,,,,,,,,,,,,,,,
,,,,,,,,,R_3nlnuIzdAYVnZgf,2022-10-14_20h13.28.519,jpn_C03,2022.1.2,Win32,59.99880002,,,space,0.2362,0,42,42,36,1,プミ　シド　ピポ,,,CartoonStims/artist_punch_doctor_r.jpg,audio/pumisidopipo.mp3,,,,,,,,,,,,,,,,,,,,,,,,,,,,,,,,,,,,,,,,,,,,,,,,,,,,,,,,,,,,,,,,,,,,,,,,,,
,,,,,,,,,R_3nlnuIzdAYVnZgf,2022-10-14_20h13.28.519,jpn_C03,2022.1.2,Win32,59.99880002,,,space,0.1501,0,43,43,31,1,パツ　ムク　ルピン,,,CartoonStims/cowboy_shoot_burglar_r.jpg,audio/patsumukulupin.mp3,,,,,,,,,,,,,,,,,,,,,,,,,,,,,,,,,,,,,,,,,,,,,,,,,,,,,,,,,,,,,,,,,,,,,,,,,,
,,,,,,,,,R_3nlnuIzdAYVnZgf,2022-10-14_20h13.28.519,jpn_C03,2022.1.2,Win32,59.99880002,,,space,0.1544,0,44,44,20,1,トマ　ピポ　シド,,,CartoonStims/doctor_point_artist_r.jpg,audio/tomapiposido.mp3,,,,,,,,,,,,,,,,,,,,,,,,,,,,,,,,,,,,,,,,,,,,,,,,,,,,,,,,,,,,,,,,,,,,,,,,,,
,,,,,,,,,R_3nlnuIzdAYVnZgf,2022-10-14_20h13.28.519,jpn_C03,2022.1.2,Win32,59.99880002,,,space,0.0338,0,45,45,2,1,セル 　ルピン 　ホレト,,,CartoonStims/burglar_kick_chef_r.jpg,audio/serulupinhoreto.mp3,,,,,,,,,,,,,,,,,,,,,,,,,,,,,,,,,,,,,,,,,,,,,,,,,,,,,,,,,,,,,,,,,,,,,,,,,,
,,,,,,,,,R_3nlnuIzdAYVnZgf,2022-10-14_20h13.28.519,jpn_C03,2022.1.2,Win32,59.99880002,,,space,0.0835,0,46,46,8,1,セル　ピポ　ドキ,,,CartoonStims/doctor_kick_boxer_r.jpg,audio/serupipodoki.mp3,,,,,,,,,,,,,,,,,,,,,,,,,,,,,,,,,,,,,,,,,,,,,,,,,,,,,,,,,,,,,,,,,,,,,,,,,,
,,,,,,,,,R_3nlnuIzdAYVnZgf,2022-10-14_20h13.28.519,jpn_C03,2022.1.2,Win32,59.99880002,,,space,0.2014,0,47,47,41,1,プミ　ホレト　ルピン,,,CartoonStims/chef_punch_burglar_r.jpg,audio/pumihoretolupin.mp3,,,,,,,,,,,,,,,,,,,,,,,,,,,,,,,,,,,,,,,,,,,,,,,,,,,,,,,,,,,,,,,,,,,,,,,,,,
,,,,,,,,,R_3nlnuIzdAYVnZgf,2022-10-14_20h13.28.519,jpn_C03,2022.1.2,Win32,59.99880002,,,,,,,,,,,,,,,space,0.2672,right,1,2.265,0,0,0,0,1,,,,,,,,,,,,,,,,,,,,,,,,,,,,,,,,,,,,,,,,,,,,,,,,,,,,,,,,,,,,,,,,
,,,,,,,,,R_3nlnuIzdAYVnZgf,2022-10-14_20h13.28.519,jpn_C03,2022.1.2,Win32,59.99880002,,,,,,,,,,,,,,,,,,,,,,,,,0,0,0,5,1,CartoonStims/cowboy_point_chef_r.jpg,パツ　ムク　ホレト,CartoonStims/cowboy_shoot_chef_r.jpg,right,CartoonStims/cowboy_shoot_chef_r.jpg,audio/patsumukuhoreto.mp3,残念！ こちらが正しい画像です。,,,,,,,,,,,,,,,,,,,,,,,,,,,,,,,,,,,,,,,,,,,,,,,,,,,,
,,,,,,,,,R_3nlnuIzdAYVnZgf,2022-10-14_20h13.28.519,jpn_C03,2022.1.2,Win32,59.99880002,,,,,,,,,,,,,,,,,left,1,4.2681,,,,,,,,,,,,,,,,,,0,0,0,0,1,,,,,,,,,,,,,,,,,,,,,,,,,,,,,,,,,,,,,,,,,,,,,,,
,,,,,,,,,R_3nlnuIzdAYVnZgf,2022-10-14_20h13.28.519,jpn_C03,2022.1.2,Win32,59.99880002,,,,,,,,,,,,,,,,,,,,,,,,,0,1,1,0,1,CartoonStims/doctor_kick_burglar_r.jpg,セル　ピポ　ルピン,CartoonStims/doctor_kick_chef_r.jpg,left,CartoonStims/doctor_kick_burglar_r.jpg,audio/serupipolupin.mp3,残念！ こちらが正しい画像です。,,,,,,,,,,,,,,,,,,,,,,,,,,,,,,,,,,,,,,,,,,,,,,,,,,,,
,,,,,,,,,R_3nlnuIzdAYVnZgf,2022-10-14_20h13.28.519,jpn_C03,2022.1.2,Win32,59.99880002,,,,,,,,,,,,,,,,,right,1,5.2841,0,0,0,0,1,,,,,,,,,,,,,,,,,,,,,,,,,,,,,,,,,,,,,,,,,,,,,,,,,,,,,,,,,,,,,,,,
,,,,,,,,,R_3nlnuIzdAYVnZgf,2022-10-14_20h13.28.519,jpn_C03,2022.1.2,Win32,59.99880002,,,,,,,,,,,,,,,,,,,,,,,,,0,2,2,11,1,CartoonStims/burglar_punch_cowboy_r.jpg,プミ　ホレト　ムク,CartoonStims/chef_punch_cowboy_r.jpg,right,CartoonStims/chef_punch_cowboy_r.jpg,audio/pumihoretomuku.mp3,残念！ こちらが正しい画像です。,,,,,,,,,,,,,,,,,,,,,,,,,,,,,,,,,,,,,,,,,,,,,,,,,,,,
,,,,,,,,,R_3nlnuIzdAYVnZgf,2022-10-14_20h13.28.519,jpn_C03,2022.1.2,Win32,59.99880002,,,,,,,,,,,,,,,,,right,1,3.397,0,0,0,0,1,,,,,,,,,,,,,,,,,,,,,,,,,,,,,,,,,,,,,,,,,,,,,,,,,,,,,,,,,,,,,,,,
,,,,,,,,,R_3nlnuIzdAYVnZgf,2022-10-14_20h13.28.519,jpn_C03,2022.1.2,Win32,59.99880002,,,,,,,,,,,,,,,,,,,,,,,,,0,3,3,1,1,CartoonStims/chef_point_burglar_r.jpg,トマ　ホレト　シド,CartoonStims/chef_point_artist_r.jpg,right,CartoonStims/chef_point_artist_r.jpg,audio/tomahoretosido.mp3,残念！ こちらが正しい画像です。,,,,,,,,,,,,,,,,,,,,,,,,,,,,,,,,,,,,,,,,,,,,,,,,,,,,
,,,,,,,,,R_3nlnuIzdAYVnZgf,2022-10-14_20h13.28.519,jpn_C03,2022.1.2,Win32,59.99880002,,,,,,,,,,,,,,,,,right,0,2.3895,,,,,,,,,,,,,,,,,,,,,,,,,,,,,,,,,,,,,,,,,,,,,,,,,,,,,,,,,,,,,,0,0,0,0,1,,,
,,,,,,,,,R_3nlnuIzdAYVnZgf,2022-10-14_20h13.28.519,jpn_C03,2022.1.2,Win32,59.99880002,,,,,,,,,,,,,,,,,,,,,,,,,0,4,4,4,1,CartoonStims/burglar_point_boxer_r.jpg,トマ　ルピン　ドキ,CartoonStims/burglar_kick_boxer_r.jpg,left,CartoonStims/burglar_point_boxer_r.jpg,audio/tomalupindoki.mp3,残念！ こちらが正しい画像です。,,,,,,,,,,,,,,,,,,,,,,,,,,,,,,,,,,,,,,,,,,,,,,,,,,,,
,,,,,,,,,R_3nlnuIzdAYVnZgf,2022-10-14_20h13.28.519,jpn_C03,2022.1.2,Win32,59.99880002,,,,,,,,,,,,,,,,,right,1,9.8802,0,0,0,0,1,,,,,,,,,,,,,,,,,,,,,,,,,,,,,,,,,,,,,,,,,,,,,,,,,,,,,,,,,,,,,,,,
,,,,,,,,,R_3nlnuIzdAYVnZgf,2022-10-14_20h13.28.519,jpn_C03,2022.1.2,Win32,59.99880002,,,,,,,,,,,,,,,,,,,,,,,,,0,5,5,9,1,CartoonStims/chef_kick_artist_r.jpg,セル　ムク　シド,CartoonStims/cowboy_kick_artist_r.jpg,right,CartoonStims/cowboy_kick_artist_r.jpg,audio/serumukusido.mp3,残念！ こちらが正しい画像です。,,,,,,,,,,,,,,,,,,,,,,,,,,,,,,,,,,,,,,,,,,,,,,,,,,,,
,,,,,,,,,R_3nlnuIzdAYVnZgf,2022-10-14_20h13.28.519,jpn_C03,2022.1.2,Win32,59.99880002,,,,,,,,,,,,,,,,,right,1,6.41,0,0,0,0,1,,,,,,,,,,,,,,,,,,,,,,,,,,,,,,,,,,,,,,,,,,,,,,,,,,,,,,,,,,,,,,,,
,,,,,,,,,R_3nlnuIzdAYVnZgf,2022-10-14_20h13.28.519,jpn_C03,2022.1.2,Win32,59.99880002,,,,,,,,,,,,,,,,,,,,,,,,,0,6,6,7,1,CartoonStims/artist_punch_cowboy_r.jpg,セル　シド　ムク,CartoonStims/artist_kick_cowboy_r.jpg,right,CartoonStims/artist_kick_cowboy_r.jpg,audio/serusidomuku.mp3,残念！ こちらが正しい画像です。,,,,,,,,,,,,,,,,,,,,,,,,,,,,,,,,,,,,,,,,,,,,,,,,,,,,
,,,,,,,,,R_3nlnuIzdAYVnZgf,2022-10-14_20h13.28.519,jpn_C03,2022.1.2,Win32,59.99880002,,,,,,,,,,,,,,,,,left,1,3.3792,,,,,,,,,,,,,,,,,,0,0,0,0,1,,,,,,,,,,,,,,,,,,,,,,,,,,,,,,,,,,,,,,,,,,,,,,,
,,,,,,,,,R_3nlnuIzdAYVnZgf,2022-10-14_20h13.28.519,jpn_C03,2022.1.2,Win32,59.99880002,,,,,,,,,,,,,,,,,,,,,,,,,0,7,7,2,1,CartoonStims/boxer_shoot_doctor_r.jpg,パツ　ドキ　ピポ,CartoonStims/boxer_shoot_artist_r.jpg,left,CartoonStims/boxer_shoot_doctor_r.jpg,audio/patsudokipipo.mp3,残念！ こちらが正しい画像です。,,,,,,,,,,,,,,,,,,,,,,,,,,,,,,,,,,,,,,,,,,,,,,,,,,,,
,,,,,,,,,R_3nlnuIzdAYVnZgf,2022-10-14_20h13.28.519,jpn_C03,2022.1.2,Win32,59.99880002,,,,,,,,,,,,,,,,,left,1,3.7707,,,,,,,,,,,,,,,,,,0,0,0,0,1,,,,,,,,,,,,,,,,,,,,,,,,,,,,,,,,,,,,,,,,,,,,,,,
,,,,,,,,,R_3nlnuIzdAYVnZgf,2022-10-14_20h13.28.519,jpn_C03,2022.1.2,Win32,59.99880002,,,,,,,,,,,,,,,,,,,,,,,,,0,8,8,8,1,CartoonStims/doctor_point_cowboy_r.jpg,トマ　ピポ　ムク,CartoonStims/boxer_point_cowboy_r.jpg,left,CartoonStims/doctor_point_cowboy_r.jpg,audio/tomapipomuku.mp3,残念！ こちらが正しい画像です。,,,,,,,,,,,,,,,,,,,,,,,,,,,,,,,,,,,,,,,,,,,,,,,,,,,,
,,,,,,,,,R_3nlnuIzdAYVnZgf,2022-10-14_20h13.28.519,jpn_C03,2022.1.2,Win32,59.99880002,,,,,,,,,,,,,,,,,left,1,2.7803,,,,,,,,,,,,,,,,,,0,0,0,0,1,,,,,,,,,,,,,,,,,,,,,,,,,,,,,,,,,,,,,,,,,,,,,,,
,,,,,,,,,R_3nlnuIzdAYVnZgf,2022-10-14_20h13.28.519,jpn_C03,2022.1.2,Win32,59.99880002,,,,,,,,,,,,,,,,,,,,,,,,,0,9,9,6,1,CartoonStims/doctor_punch_boxer_r.jpg,プミ　ピポ　ドキ,CartoonStims/doctor_shoot_boxer_r.jpg,left,CartoonStims/doctor_punch_boxer_r.jpg,audio/pumipipodoki.mp3,残念！ こちらが正しい画像です。,,,,,,,,,,,,,,,,,,,,,,,,,,,,,,,,,,,,,,,,,,,,,,,,,,,,
,,,,,,,,,R_3nlnuIzdAYVnZgf,2022-10-14_20h13.28.519,jpn_C03,2022.1.2,Win32,59.99880002,,,,,,,,,,,,,,,,,right,1,2.3837,0,0,0,0,1,,,,,,,,,,,,,,,,,,,,,,,,,,,,,,,,,,,,,,,,,,,,,,,,,,,,,,,,,,,,,,,,
,,,,,,,,,R_3nlnuIzdAYVnZgf,2022-10-14_20h13.28.519,jpn_C03,2022.1.2,Win32,59.99880002,,,,,,,,,,,,,,,,,,,,,,,,,0,10,10,3,1,CartoonStims/cowboy_punch_doctor_r.jpg,プミ　ムク　ドキ,CartoonStims/cowboy_punch_boxer_r.jpg,right,CartoonStims/cowboy_punch_boxer_r.jpg,audio/pumimukudoki.mp3,残念！ こちらが正しい画像です。,,,,,,,,,,,,,,,,,,,,,,,,,,,,,,,,,,,,,,,,,,,,,,,,,,,,
,,,,,,,,,R_3nlnuIzdAYVnZgf,2022-10-14_20h13.28.519,jpn_C03,2022.1.2,Win32,59.99880002,,,,,,,,,,,,,,,,,left,1,6.5264,,,,,,,,,,,,,,,,,,0,0,0,0,1,,,,,,,,,,,,,,,,,,,,,,,,,,,,,,,,,,,,,,,,,,,,,,,
,,,,,,,,,R_3nlnuIzdAYVnZgf,2022-10-14_20h13.28.519,jpn_C03,2022.1.2,Win32,59.99880002,,,,,,,,,,,,,,,,,,,,,,,,,0,11,11,10,1,CartoonStims/artist_shoot_burglar_r.jpg,パツ　シド　ルピン,CartoonStims/chef_shoot_burglar_r.jpg,left,CartoonStims/artist_shoot_burglar_r.jpg,audio/patsusidolupin.mp3,残念！ こちらが正しい画像です。,,,,,,,,,,,,,,,,,,,,,,,,,,,,,,,,,,,,,,,,,,,,,,,,,,,,
,,,,,,,,,R_3nlnuIzdAYVnZgf,2022-10-14_20h13.28.519,jpn_C03,2022.1.2,Win32,59.99880002,,,,,,,,,,,,,,,,,,,,,,,,,,,,,,,,,,,,,,,,,,,,,,,space,3.2241,パツ　ルピン　ホレト,right,10.6642,0,0,0,0,1,,,,,,,,,,,,,,,,,,,,,,,,,,,,,,,,
,,,,,,,,,R_3nlnuIzdAYVnZgf,2022-10-14_20h13.28.519,jpn_C03,2022.1.2,Win32,59.99880002,,,,,,,,,,,,,CartoonStims/burglar_shoot_chef_r.jpg,audio/patsulupinhoreto.mp3,,,,,,,,,,,,,,,,,,,,,,,,,,,,,,,,,,,,,,,,,,,0,0,0,6,1,パツ　ルピン　ホレト,,,,,,,,,,,,,,,,,,,,,,,,,,
,,,,,,,,,R_3nlnuIzdAYVnZgf,2022-10-14_20h13.28.519,jpn_C03,2022.1.2,Win32,59.99880002,,,,,,,,,,,,,,,,,,,,,,,,,,,,,,,,,,,,,,,,,,,,,,,,,ムク　プピ　ドキ,right,11.2559,0,0,0,0,1,,,,,,,,,,,,,,,,,,,,,,,,,,,,,,,,
,,,,,,,,,R_3nlnuIzdAYVnZgf,2022-10-14_20h13.28.519,jpn_C03,2022.1.2,Win32,59.99880002,,,,,,,,,,,,,CartoonStims/doctor_punch_boxer_r.jpg,audio/pumipipodoki.mp3,,,,,,,,,,,,,,,,,,,,,,,,,,,,,,,,,,,,,,,,,,,0,1,1,10,1,プミ　ピポ　ドキ,,,,,,,,,,,,,,,,,,,,,,,,,,
,,,,,,,,,R_3nlnuIzdAYVnZgf,2022-10-14_20h13.28.519,jpn_C03,2022.1.2,Win32,59.99880002,,,,,,,,,,,,,,,,,,,,,,,,,,,,,,,,,,,,,,,,,,,,,,,,,ルピン　ムク,right,20.9781,0,0,0,0,1,,,,,,,,,,,,,,,,,,,,,,,,,,,,,,,,
,,,,,,,,,R_3nlnuIzdAYVnZgf,2022-10-14_20h13.28.519,jpn_C03,2022.1.2,Win32,59.99880002,,,,,,,,,,,,,CartoonStims/burglar_point_artist_r.jpg,audio/tomalupinsido.mp3,,,,,,,,,,,,,,,,,,,,,,,,,,,,,,,,,,,,,,,,,,,0,2,2,4,1,トマ　ルピン　シド,,,,,,,,,,,,,,,,,,,,,,,,,,
,,,,,,,,,R_3nlnuIzdAYVnZgf,2022-10-14_20h13.28.519,jpn_C03,2022.1.2,Win32,59.99880002,,,,,,,,,,,,,,,,,,,,,,,,,,,,,,,,,,,,,,,,,,,,,,,,,ㇷ゚ミ　ドキ　プピ,right,26.4879,0,0,0,0,1,,,,,,,,,,,,,,,,,,,,,,,,,,,,,,,,
,,,,,,,,,R_3nlnuIzdAYVnZgf,2022-10-14_20h13.28.519,jpn_C03,2022.1.2,Win32,59.99880002,,,,,,,,,,,,,CartoonStims/boxer_punch_artist_r.jpg,audio/pumidokisido.mp3,,,,,,,,,,,,,,,,,,,,,,,,,,,,,,,,,,,,,,,,,,,0,3,3,11,1,プミ　ドキ　シド,,,,,,,,,,,,,,,,,,,,,,,,,,
,,,,,,,,,R_3nlnuIzdAYVnZgf,2022-10-14_20h13.28.519,jpn_C03,2022.1.2,Win32,59.99880002,,,,,,,,,,,,,,,,,,,,,,,,,,,,,,,,,,,,,,,,,,,,,,,,,トマ　ムク　ドキ,right,18.8429,0,0,0,0,1,,,,,,,,,,,,,,,,,,,,,,,,,,,,,,,,
,,,,,,,,,R_3nlnuIzdAYVnZgf,2022-10-14_20h13.28.519,jpn_C03,2022.1.2,Win32,59.99880002,,,,,,,,,,,,,CartoonStims/artist_point_boxer_r.jpg,audio/tomasidodoki.mp3,,,,,,,,,,,,,,,,,,,,,,,,,,,,,,,,,,,,,,,,,,,0,4,4,3,1,トマ　シド　ドキ,,,,,,,,,,,,,,,,,,,,,,,,,,
,,,,,,,,,R_3nlnuIzdAYVnZgf,2022-10-14_20h13.28.519,jpn_C03,2022.1.2,Win32,59.99880002,,,,,,,,,,,,,,,,,,,,,,,,,,,,,,,,,,,,,,,,,,,,,,,,,パツ　ホレト　ムク,right,7.2106,0,0,0,0,1,,,,,,,,,,,,,,,,,,,,,,,,,,,,,,,,
,,,,,,,,,R_3nlnuIzdAYVnZgf,2022-10-14_20h13.28.519,jpn_C03,2022.1.2,Win32,59.99880002,,,,,,,,,,,,,CartoonStims/chef_shoot_cowboy_r.jpg,audio/patsuhoretomuku.mp3,,,,,,,,,,,,,,,,,,,,,,,,,,,,,,,,,,,,,,,,,,,0,5,5,7,1,パツ　ホレト　ムク,,,,,,,,,,,,,,,,,,,,,,,,,,
,,,,,,,,,R_3nlnuIzdAYVnZgf,2022-10-14_20h13.28.519,jpn_C03,2022.1.2,Win32,59.99880002,,,,,,,,,,,,,,,,,,,,,,,,,,,,,,,,,,,,,,,,,,,,,,,,,パツ　ムク　プピ　,right,9.6973,0,0,0,0,1,,,,,,,,,,,,,,,,,,,,,,,,,,,,,,,,
,,,,,,,,,R_3nlnuIzdAYVnZgf,2022-10-14_20h13.28.519,jpn_C03,2022.1.2,Win32,59.99880002,,,,,,,,,,,,,CartoonStims/cowboy_shoot_doctor_r.jpg,audio/patsumukupipo.mp3,,,,,,,,,,,,,,,,,,,,,,,,,,,,,,,,,,,,,,,,,,,0,6,6,8,1,パツ　ムク　ピポ,,,,,,,,,,,,,,,,,,,,,,,,,,
,,,,,,,,,R_3nlnuIzdAYVnZgf,2022-10-14_20h13.28.519,jpn_C03,2022.1.2,Win32,59.99880002,,,,,,,,,,,,,,,,,,,,,,,,,,,,,,,,,,,,,,,,,,,,,,,,,,right,0.0741,0,0,0,0,1,,,,,,,,,,,,,,,,,,,,,,,,,,,,,,,,
,,,,,,,,,R_3nlnuIzdAYVnZgf,2022-10-14_20h13.28.519,jpn_C03,2022.1.2,Win32,59.99880002,,,,,,,,,,,,,CartoonStims/boxer_kick_cowboy_r.jpg,audio/serudokimuku.mp3,,,,,,,,,,,,,,,,,,,,,,,,,,,,,,,,,,,,,,,,,,,0,7,7,2,1,セル　ドキ　ムク,,,,,,,,,,,,,,,,,,,,,,,,,,
,,,,,,,,,R_3nlnuIzdAYVnZgf,2022-10-14_20h13.28.519,jpn_C03,2022.1.2,Win32,59.99880002,,,,,,,,,,,,,,,,,,,,,,,,,,,,,,,,,,,,,,,,,,,,,,,,,トマ　ホレト　ルピン,right,26.5885,0,0,0,0,1,,,,,,,,,,,,,,,,,,,,,,,,,,,,,,,,
,,,,,,,,,R_3nlnuIzdAYVnZgf,2022-10-14_20h13.28.519,jpn_C03,2022.1.2,Win32,59.99880002,,,,,,,,,,,,,CartoonStims/chef_point_burglar_r.jpg,audio/tomahoretolupin.mp3,,,,,,,,,,,,,,,,,,,,,,,,,,,,,,,,,,,,,,,,,,,0,8,8,5,1,トマ　ホレト　ルピン,,,,,,,,,,,,,,,,,,,,,,,,,,
,,,,,,,,,R_3nlnuIzdAYVnZgf,2022-10-14_20h13.28.519,jpn_C03,2022.1.2,Win32,59.99880002,,,,,,,,,,,,,,,,,,,,,,,,,,,,,,,,,,,,,,,,,,,,,,,,,セル　ピポ　ホレト,right,13.9032,0,0,0,0,1,,,,,,,,,,,,,,,,,,,,,,,,,,,,,,,,
,,,,,,,,,R_3nlnuIzdAYVnZgf,2022-10-14_20h13.28.519,jpn_C03,2022.1.2,Win32,59.99880002,,,,,,,,,,,,,CartoonStims/doctor_kick_chef_r.jpg,audio/serupipohoreto.mp3,,,,,,,,,,,,,,,,,,,,,,,,,,,,,,,,,,,,,,,,,,,0,9,9,1,1,セル　ピポ　ホレト,,,,,,,,,,,,,,,,,,,,,,,,,,
,,,,,,,,,R_3nlnuIzdAYVnZgf,2022-10-14_20h13.28.519,jpn_C03,2022.1.2,Win32,59.99880002,,,,,,,,,,,,,,,,,,,,,,,,,,,,,,,,,,,,,,,,,,,,,,,,,トマ　シド　ルピン,right,14.2174,0,0,0,0,1,,,,,,,,,,,,,,,,,,,,,,,,,,,,,,,,
,,,,,,,,,R_3nlnuIzdAYVnZgf,2022-10-14_20h13.28.519,jpn_C03,2022.1.2,Win32,59.99880002,,,,,,,,,,,,,CartoonStims/artist_punch_burglar_r.jpg,audio/pumisidolupin.mp3,,,,,,,,,,,,,,,,,,,,,,,,,,,,,,,,,,,,,,,,,,,0,10,10,9,1,プミ　シド　ルピン,,,,,,,,,,,,,,,,,,,,,,,,,,
,,,,,,,,,R_3nlnuIzdAYVnZgf,2022-10-14_20h13.28.519,jpn_C03,2022.1.2,Win32,59.99880002,,,,,,,,,,,,,,,,,,,,,,,,,,,,,,,,,,,,,,,,,,,,,,,,,セル　シド　ルピン,right,5.7426,0,0,0,0,1,,,,,,,,,,,,,,,,,,,,,,,,,,,,,,,,
,,,,,,,,,R_3nlnuIzdAYVnZgf,2022-10-14_20h13.28.519,jpn_C03,2022.1.2,Win32,59.99880002,,,,,,,,,,,,,CartoonStims/cowboy_kick_burglar_r.jpg,audio/serumukulupin.mp3,,,,,,,,,,,,,,,,,,,,,,,,,,,,,,,,,,,,,,,,,,,0,11,11,0,1,セル　ムク　ルピン,,,,,,,,,,,,,,,,,,,,,,,,,,
,,,,,,,,,R_3nlnuIzdAYVnZgf,2022-10-14_20h13.28.519,jpn_C03,2022.1.2,Win32,59.99880002,,,,,,,,,,,,,,,,,,,,,,,,,,,,,,,,,,,,,,,,,,,,,,,,,,,,,,,,,,,,,,,,space,0.3933,0,1,1,1,1,AffExposure.xlsx,"第二のトライアルの学習では、この言語で書かれた文を見ていただきます。引き続き注意して、 聞こえた音を復唱してください。


スペースキーを押してください。",1,AffFCT.xlsx,ここからクイズが始まります。 スクリーンに表示されるテキストに合う画像を選んでください。,AffTest.xlsx,1,次にここまで学んだことをアウトプットしていただきます。 表示される画像を描写していると思う単語を、テキストボックスにタイプしてください。 答えを提出したあとに正しい正解が少しの間画面に写ります。,1,"これで第二のトライアルが終了しました。 ここで休憩をとっていただいても構いません。

休憩が終わりましたら、 スペースキーを押して続きの学習を行いましょう。",,,,,,,,
,,,,,,,,,R_3nlnuIzdAYVnZgf,2022-10-14_20h13.28.519,jpn_C03,2022.1.2,Win32,59.99880002,space,1.3894,space,3.0053,0,0,0,1,1,セル　ピク　シド　ホレト,,,CartoonStims/artist_kick_chef_r_no.jpg,audio/serupikusidohoreto.mp3,,,,,,,,,,,,,,,,,,,,,,,,,,,,,,,,,,,,,,,,,,,,,,,,,,,,,,,,,,,,,,,,,,,,,,,,,,
,,,,,,,,,R_3nlnuIzdAYVnZgf,2022-10-14_20h13.28.519,jpn_C03,2022.1.2,Win32,59.99880002,,,space,1.0096,0,1,1,17,1,トマ　ピク　ホレト　ドキ,,,CartoonStims/chef_point_boxer_r_no.jpg,audio/tomapikuhoretodoki.mp3,,,,,,,,,,,,,,,,,,,,,,,,,,,,,,,,,,,,,,,,,,,,,,,,,,,,,,,,,,,,,,,,,,,,,,,,,,
,,,,,,,,,R_3nlnuIzdAYVnZgf,2022-10-14_20h13.28.519,jpn_C03,2022.1.2,Win32,59.99880002,,,space,0.367,0,2,2,41,1,プミ　ピク　ホレト　ルピン,,,CartoonStims/chef_punch_burglar_r_no.jpg,audio/pumipikuhoretolupin.mp3,,,,,,,,,,,,,,,,,,,,,,,,,,,,,,,,,,,,,,,,,,,,,,,,,,,,,,,,,,,,,,,,,,,,,,,,,,
,,,,,,,,,R_3nlnuIzdAYVnZgf,2022-10-14_20h13.28.519,jpn_C03,2022.1.2,Win32,59.99880002,,,space,0.1691,0,3,3,6,1,セル　ピク　ムク　ピポ,,,CartoonStims/cowboy_kick_doctor_r_no.jpg,audio/serupikumukupipo.mp3,,,,,,,,,,,,,,,,,,,,,,,,,,,,,,,,,,,,,,,,,,,,,,,,,,,,,,,,,,,,,,,,,,,,,,,,,,
,,,,,,,,,R_3nlnuIzdAYVnZgf,2022-10-14_20h13.28.519,jpn_C03,2022.1.2,Win32,59.99880002,,,space,0.0105,0,4,4,18,1,トマ　ピク　ムク　ドキ,,,CartoonStims/cowboy_point_boxer_r_no.jpg,audio/tomapikumukudoki.mp3,,,,,,,,,,,,,,,,,,,,,,,,,,,,,,,,,,,,,,,,,,,,,,,,,,,,,,,,,,,,,,,,,,,,,,,,,,
,,,,,,,,,R_3nlnuIzdAYVnZgf,2022-10-14_20h13.28.519,jpn_C03,2022.1.2,Win32,59.99880002,,,space,0.0267,0,5,5,38,1,プミ　ピク　ルピン　ドキ,,,CartoonStims/burglar_punch_boxer_r_no.jpg,audio/pumipikulupindoki.mp3,,,,,,,,,,,,,,,,,,,,,,,,,,,,,,,,,,,,,,,,,,,,,,,,,,,,,,,,,,,,,,,,,,,,,,,,,,
,,,,,,,,,R_3nlnuIzdAYVnZgf,2022-10-14_20h13.28.519,jpn_C03,2022.1.2,Win32,59.99880002,,,space,10.2308,0,6,6,25,1,ピク　パツ　シド　ピポ,,,CartoonStims/artist_shoot_doctor_r_no.jpg,audio/pikupatsusidopipo.mp3,,,,,,,,,,,,,,,,,,,,,,,,,,,,,,,,,,,,,,,,,,,,,,,,,,,,,,,,,,,,,,,,,,,,,,,,,,
,,,,,,,,,R_3nlnuIzdAYVnZgf,2022-10-14_20h13.28.519,jpn_C03,2022.1.2,Win32,59.99880002,,,space,2.6632,0,7,7,3,1,セル　ピク　ルピン　ムク,,,CartoonStims/burglar_kick_cowboy_r_no.jpg,audio/serupikulupinmuku.mp3,,,,,,,,,,,,,,,,,,,,,,,,,,,,,,,,,,,,,,,,,,,,,,,,,,,,,,,,,,,,,,,,,,,,,,,,,,
,,,,,,,,,R_3nlnuIzdAYVnZgf,2022-10-14_20h13.28.519,jpn_C03,2022.1.2,Win32,59.99880002,,,space,1.2524,0,8,8,37,1,プミ　ピク　シド　ドキ,,,CartoonStims/artist_punch_boxer_r_no.jpg,audio/pumipikusidodoki.mp3,,,,,,,,,,,,,,,,,,,,,,,,,,,,,,,,,,,,,,,,,,,,,,,,,,,,,,,,,,,,,,,,,,,,,,,,,,
,,,,,,,,,R_3nlnuIzdAYVnZgf,2022-10-14_20h13.28.519,jpn_C03,2022.1.2,Win32,59.99880002,,,space,2.5723,0,9,9,4,1,ピク　セル　ホレト　ムク,,,CartoonStims/chef_kick_cowboy_r_no.jpg,audio/pikuseruhoretomuku.mp3,,,,,,,,,,,,,,,,,,,,,,,,,,,,,,,,,,,,,,,,,,,,,,,,,,,,,,,,,,,,,,,,,,,,,,,,,,
,,,,,,,,,R_3nlnuIzdAYVnZgf,2022-10-14_20h13.28.519,jpn_C03,2022.1.2,Win32,59.99880002,,,space,2.587,0,10,10,34,1,パツ　ピク　ドキ　ホレト,,,CartoonStims/boxer_shoot_chef_r_no.jpg,audio/patsupikudokihoreto.mp3,,,,,,,,,,,,,,,,,,,,,,,,,,,,,,,,,,,,,,,,,,,,,,,,,,,,,,,,,,,,,,,,,,,,,,,,,,
,,,,,,,,,R_3nlnuIzdAYVnZgf,2022-10-14_20h13.28.519,jpn_C03,2022.1.2,Win32,59.99880002,,,space,1.0828,0,11,11,24,1,パツ　ピク　シド　ムク,,,CartoonStims/artist_shoot_cowboy_r_no.jpg,audio/patsupikusidomuku.mp3,,,,,,,,,,,,,,,,,,,,,,,,,,,,,,,,,,,,,,,,,,,,,,,,,,,,,,,,,,,,,,,,,,,,,,,,,,
,,,,,,,,,R_3nlnuIzdAYVnZgf,2022-10-14_20h13.28.519,jpn_C03,2022.1.2,Win32,59.99880002,,,space,1.3492,0,12,12,8,1,ピク　セル　ピポ　ドキ,,,CartoonStims/doctor_kick_boxer_r_no.jpg,audio/pikuserupipodoki.mp3,,,,,,,,,,,,,,,,,,,,,,,,,,,,,,,,,,,,,,,,,,,,,,,,,,,,,,,,,,,,,,,,,,,,,,,,,,
,,,,,,,,,R_3nlnuIzdAYVnZgf,2022-10-14_20h13.28.519,jpn_C03,2022.1.2,Win32,59.99880002,,,space,1.1647,0,13,13,29,1,ピク　パツ　ホレト　シド,,,CartoonStims/chef_shoot_artist_r_no.jpg,audio/pikupatsuhoretosido.mp3,,,,,,,,,,,,,,,,,,,,,,,,,,,,,,,,,,,,,,,,,,,,,,,,,,,,,,,,,,,,,,,,,,,,,,,,,,
,,,,,,,,,R_3nlnuIzdAYVnZgf,2022-10-14_20h13.28.519,jpn_C03,2022.1.2,Win32,59.99880002,,,space,1.6808,0,14,14,28,1,パツ　ピク　ホレト　ドキ,,,CartoonStims/chef_shoot_boxer_r_no.jpg,audio/patsupikuhoretodoki.mp3,,,,,,,,,,,,,,,,,,,,,,,,,,,,,,,,,,,,,,,,,,,,,,,,,,,,,,,,,,,,,,,,,,,,,,,,,,
,,,,,,,,,R_3nlnuIzdAYVnZgf,2022-10-14_20h13.28.519,jpn_C03,2022.1.2,Win32,59.99880002,,,space,0.1673,0,15,15,43,1,プミ　ピク　ムク　ホレト,,,CartoonStims/cowboy_punch_chef_r_no.jpg,audio/pumipikumukuhoreto.mp3,,,,,,,,,,,,,,,,,,,,,,,,,,,,,,,,,,,,,,,,,,,,,,,,,,,,,,,,,,,,,,,,,,,,,,,,,,
,,,,,,,,,R_3nlnuIzdAYVnZgf,2022-10-14_20h13.28.519,jpn_C03,2022.1.2,Win32,59.99880002,,,space,3.4495,0,16,16,44,1,ピク　プミ　ピポ　ホレト,,,CartoonStims/doctor_punch_chef_r_no.jpg,audio/pikupumipipohoreto.mp3,,,,,,,,,,,,,,,,,,,,,,,,,,,,,,,,,,,,,,,,,,,,,,,,,,,,,,,,,,,,,,,,,,,,,,,,,,
,,,,,,,,,R_3nlnuIzdAYVnZgf,2022-10-14_20h13.28.519,jpn_C03,2022.1.2,Win32,59.99880002,,,space,5.2683,0,17,17,45,1,プミ　ピク　ピポ　ムク,,,CartoonStims/doctor_punch_cowboy_r_no.jpg,audio/pumipikupipomuku.mp3,,,,,,,,,,,,,,,,,,,,,,,,,,,,,,,,,,,,,,,,,,,,,,,,,,,,,,,,,,,,,,,,,,,,,,,,,,
,,,,,,,,,R_3nlnuIzdAYVnZgf,2022-10-14_20h13.28.519,jpn_C03,2022.1.2,Win32,59.99880002,,,space,1.7764,0,18,18,31,1,パツ　ピク　ムク　ルピン,,,CartoonStims/cowboy_shoot_burglar_r_no.jpg,audio/patsupikumukulupin.mp3,,,,,,,,,,,,,,,,,,,,,,,,,,,,,,,,,,,,,,,,,,,,,,,,,,,,,,,,,,,,,,,,,,,,,,,,,,
,,,,,,,,,R_3nlnuIzdAYVnZgf,2022-10-14_20h13.28.519,jpn_C03,2022.1.2,Win32,59.99880002,,,space,1.9242,0,19,19,36,1,プミ　ピク　シド　ピポ,,,CartoonStims/artist_punch_doctor_r_no.jpg,audio/pumipikusidopipo.mp3,,,,,,,,,,,,,,,,,,,,,,,,,,,,,,,,,,,,,,,,,,,,,,,,,,,,,,,,,,,,,,,,,,,,,,,,,,
,,,,,,,,,R_3nlnuIzdAYVnZgf,2022-10-14_20h13.28.519,jpn_C03,2022.1.2,Win32,59.99880002,,,space,4.2764,0,20,20,0,1,ピク　セル　シド　ルピン,,,CartoonStims/artist_kick_burglar_r_no.jpg,audio/pikuserusidolupin.mp3,,,,,,,,,,,,,,,,,,,,,,,,,,,,,,,,,,,,,,,,,,,,,,,,,,,,,,,,,,,,,,,,,,,,,,,,,,
,,,,,,,,,R_3nlnuIzdAYVnZgf,2022-10-14_20h13.28.519,jpn_C03,2022.1.2,Win32,59.99880002,,,space,3.1873,0,21,21,5,1,セル　ピク　ホレト　ピポ,,,CartoonStims/chef_kick_doctor_r_no.jpg,audio/serupikuhoretopipo.mp3,,,,,,,,,,,,,,,,,,,,,,,,,,,,,,,,,,,,,,,,,,,,,,,,,,,,,,,,,,,,,,,,,,,,,,,,,,
,,,,,,,,,R_3nlnuIzdAYVnZgf,2022-10-14_20h13.28.519,jpn_C03,2022.1.2,Win32,59.99880002,,,space,2.4823,0,22,22,14,1,トマ　ピク　ルピン　ムク,,,CartoonStims/burglar_point_cowboy_r_no.jpg,audio/tomapikulupinmuku.mp3,,,,,,,,,,,,,,,,,,,,,,,,,,,,,,,,,,,,,,,,,,,,,,,,,,,,,,,,,,,,,,,,,,,,,,,,,,
,,,,,,,,,R_3nlnuIzdAYVnZgf,2022-10-14_20h13.28.519,jpn_C03,2022.1.2,Win32,59.99880002,,,space,1.481,0,23,23,33,1,パツ　ピク　ピポ　ホレト,,,CartoonStims/doctor_shoot_chef_r_no.jpg,audio/patsupikupipohoreto.mp3,,,,,,,,,,,,,,,,,,,,,,,,,,,,,,,,,,,,,,,,,,,,,,,,,,,,,,,,,,,,,,,,,,,,,,,,,,
,,,,,,,,,R_3nlnuIzdAYVnZgf,2022-10-14_20h13.28.519,jpn_C03,2022.1.2,Win32,59.99880002,,,space,1.2346,0,24,24,9,1,セル　ピク　ピポ　シド,,,CartoonStims/doctor_kick_artist_r_no.jpg,audio/serupikupiposido.mp3,,,,,,,,,,,,,,,,,,,,,,,,,,,,,,,,,,,,,,,,,,,,,,,,,,,,,,,,,,,,,,,,,,,,,,,,,,
,,,,,,,,,R_3nlnuIzdAYVnZgf,2022-10-14_20h13.28.519,jpn_C03,2022.1.2,Win32,59.99880002,,,space,0.9998,0,25,25,30,1,パツ　ピク　ムク　シド,,,CartoonStims/cowboy_shoot_artist_r_no.jpg,audio/patsupikumukusido.mp3,,,,,,,,,,,,,,,,,,,,,,,,,,,,,,,,,,,,,,,,,,,,,,,,,,,,,,,,,,,,,,,,,,,,,,,,,,
,,,,,,,,,R_3nlnuIzdAYVnZgf,2022-10-14_20h13.28.519,jpn_C03,2022.1.2,Win32,59.99880002,,,space,1.1881,0,26,26,12,1,トマ　ピク　シド　ホレト,,,CartoonStims/artist_point_chef_r_no.jpg,audio/tomapikusidohoreto.mp3,,,,,,,,,,,,,,,,,,,,,,,,,,,,,,,,,,,,,,,,,,,,,,,,,,,,,,,,,,,,,,,,,,,,,,,,,,
,,,,,,,,,R_3nlnuIzdAYVnZgf,2022-10-14_20h13.28.519,jpn_C03,2022.1.2,Win32,59.99880002,,,space,0.3046,0,27,27,20,1,トマ　ピク　ピポ　シド,,,CartoonStims/doctor_point_artist_r_no.jpg,audio/tomapikupiposido.mp3,,,,,,,,,,,,,,,,,,,,,,,,,,,,,,,,,,,,,,,,,,,,,,,,,,,,,,,,,,,,,,,,,,,,,,,,,,
,,,,,,,,,R_3nlnuIzdAYVnZgf,2022-10-14_20h13.28.519,jpn_C03,2022.1.2,Win32,59.99880002,,,space,5.3494,0,28,28,27,1,ピク　パツ　ルピン　ドキ,,,CartoonStims/burglar_shoot_boxer_r_no.jpg,audio/pikupatsulupindoki.mp3,,,,,,,,,,,,,,,,,,,,,,,,,,,,,,,,,,,,,,,,,,,,,,,,,,,,,,,,,,,,,,,,,,,,,,,,,,
,,,,,,,,,R_3nlnuIzdAYVnZgf,2022-10-14_20h13.28.519,jpn_C03,2022.1.2,Win32,59.99880002,,,space,1.0509,0,29,29,40,1,プミ　ピク　ホレト　シド,,,CartoonStims/chef_punch_artist_r_no.jpg,audio/pumipikuhoretosido.mp3,,,,,,,,,,,,,,,,,,,,,,,,,,,,,,,,,,,,,,,,,,,,,,,,,,,,,,,,,,,,,,,,,,,,,,,,,,
,,,,,,,,,R_3nlnuIzdAYVnZgf,2022-10-14_20h13.28.519,jpn_C03,2022.1.2,Win32,59.99880002,,,space,3.3694,0,30,30,26,1,パツ　ピク　ルピン　ピポ,,,CartoonStims/burglar_shoot_doctor_r_no.jpg,audio/patsupikulupinpipo.mp3,,,,,,,,,,,,,,,,,,,,,,,,,,,,,,,,,,,,,,,,,,,,,,,,,,,,,,,,,,,,,,,,,,,,,,,,,,
,,,,,,,,,R_3nlnuIzdAYVnZgf,2022-10-14_20h13.28.519,jpn_C03,2022.1.2,Win32,59.99880002,,,space,13.7973,0,31,31,23,1,ピク　トマ　ドキ　ホレト,,,CartoonStims/boxer_point_chef_r_no.jpg,audio/pikutomadokihoreto.mp3,,,,,,,,,,,,,,,,,,,,,,,,,,,,,,,,,,,,,,,,,,,,,,,,,,,,,,,,,,,,,,,,,,,,,,,,,,
,,,,,,,,,R_3nlnuIzdAYVnZgf,2022-10-14_20h13.28.519,jpn_C03,2022.1.2,Win32,59.99880002,,,space,3.0142,0,32,32,21,1,トマ　ピク　ピポ　ルピン,,,CartoonStims/doctor_point_burglar_r_no.jpg,audio/tomapikupipolupin.mp3,,,,,,,,,,,,,,,,,,,,,,,,,,,,,,,,,,,,,,,,,,,,,,,,,,,,,,,,,,,,,,,,,,,,,,,,,,
,,,,,,,,,R_3nlnuIzdAYVnZgf,2022-10-14_20h13.28.519,jpn_C03,2022.1.2,Win32,59.99880002,,,space,1.6308,0,33,33,7,1,セル　ピク　ムク　ドキ,,,CartoonStims/cowboy_kick_boxer_r_no.jpg,audio/serupikumukudoki.mp3,,,,,,,,,,,,,,,,,,,,,,,,,,,,,,,,,,,,,,,,,,,,,,,,,,,,,,,,,,,,,,,,,,,,,,,,,,
,,,,,,,,,R_3nlnuIzdAYVnZgf,2022-10-14_20h13.28.519,jpn_C03,2022.1.2,Win32,59.99880002,,,space,2.9732,0,34,34,47,1,プミ　ピク　ドキ　ピポ,,,CartoonStims/boxer_punch_doctor_r_no.jpg,audio/pumipikudokipipo.mp3,,,,,,,,,,,,,,,,,,,,,,,,,,,,,,,,,,,,,,,,,,,,,,,,,,,,,,,,,,,,,,,,,,,,,,,,,,
,,,,,,,,,R_3nlnuIzdAYVnZgf,2022-10-14_20h13.28.519,jpn_C03,2022.1.2,Win32,59.99880002,,,space,2.6971,0,35,35,16,1,トマ　ピク　ホレト　ピポ,,,CartoonStims/chef_point_doctor_r_no.jpg,audio/tomapikuhoretopipo.mp3,,,,,,,,,,,,,,,,,,,,,,,,,,,,,,,,,,,,,,,,,,,,,,,,,,,,,,,,,,,,,,,,,,,,,,,,,,
,,,,,,,,,R_3nlnuIzdAYVnZgf,2022-10-14_20h13.28.519,jpn_C03,2022.1.2,Win32,59.99880002,,,space,2.7809,0,36,36,32,1,パツ　ピク　ピポ　ルピン,,,CartoonStims/doctor_shoot_burglar_r_no.jpg,audio/patsupikupipolupin.mp3,,,,,,,,,,,,,,,,,,,,,,,,,,,,,,,,,,,,,,,,,,,,,,,,,,,,,,,,,,,,,,,,,,,,,,,,,,
,,,,,,,,,R_3nlnuIzdAYVnZgf,2022-10-14_20h13.28.519,jpn_C03,2022.1.2,Win32,59.99880002,,,space,2.0312,0,37,37,35,1,パツ　ピク　ドキ　ムク,,,CartoonStims/boxer_shoot_cowboy_r_no.jpg,audio/patsupikudokimuku.mp3,,,,,,,,,,,,,,,,,,,,,,,,,,,,,,,,,,,,,,,,,,,,,,,,,,,,,,,,,,,,,,,,,,,,,,,,,,
,,,,,,,,,R_3nlnuIzdAYVnZgf,2022-10-14_20h13.28.519,jpn_C03,2022.1.2,Win32,59.99880002,,,space,1.5919,0,38,38,19,1,ピク　トマ　ムク　シド,,,CartoonStims/cowboy_point_artist_r_no.jpg,audio/pikutomamukusido.mp3,,,,,,,,,,,,,,,,,,,,,,,,,,,,,,,,,,,,,,,,,,,,,,,,,,,,,,,,,,,,,,,,,,,,,,,,,,
,,,,,,,,,R_3nlnuIzdAYVnZgf,2022-10-14_20h13.28.519,jpn_C03,2022.1.2,Win32,59.99880002,,,space,1.4539,0,39,39,13,1,トマ　ピク　シド　ムク,,,CartoonStims/artist_point_cowboy_r_no.jpg,audio/tomapikusidomuku.mp3,,,,,,,,,,,,,,,,,,,,,,,,,,,,,,,,,,,,,,,,,,,,,,,,,,,,,,,,,,,,,,,,,,,,,,,,,,
,,,,,,,,,R_3nlnuIzdAYVnZgf,2022-10-14_20h13.28.519,jpn_C03,2022.1.2,Win32,59.99880002,,,space,2.6923,0,40,40,39,1,プミ　ピク　ルピン　シド,,,CartoonStims/burglar_punch_artist_r_no.jpg,audio/pumipikulupinsido.mp3,,,,,,,,,,,,,,,,,,,,,,,,,,,,,,,,,,,,,,,,,,,,,,,,,,,,,,,,,,,,,,,,,,,,,,,,,,
,,,,,,,,,R_3nlnuIzdAYVnZgf,2022-10-14_20h13.28.519,jpn_C03,2022.1.2,Win32,59.99880002,,,space,2.2309,0,41,41,2,1,セル　ピク　ルピン　ホレト,,,CartoonStims/burglar_kick_chef_r_no.jpg,audio/serupikulupinhoreto.mp3,,,,,,,,,,,,,,,,,,,,,,,,,,,,,,,,,,,,,,,,,,,,,,,,,,,,,,,,,,,,,,,,,,,,,,,,,,
,,,,,,,,,R_3nlnuIzdAYVnZgf,2022-10-14_20h13.28.519,jpn_C03,2022.1.2,Win32,59.99880002,,,space,1.8067,0,42,42,10,1,セル　ピク　ドキ　シド,,,CartoonStims/boxer_kick_artist_r_no.jpg,audio/serupikudokisido.mp3,,,,,,,,,,,,,,,,,,,,,,,,,,,,,,,,,,,,,,,,,,,,,,,,,,,,,,,,,,,,,,,,,,,,,,,,,,
,,,,,,,,,R_3nlnuIzdAYVnZgf,2022-10-14_20h13.28.519,jpn_C03,2022.1.2,Win32,59.99880002,,,space,1.3322,0,43,43,11,1,セル　ピク　ドキ　ルピン,,,CartoonStims/boxer_kick_burglar_r_no.jpg,audio/serupikudokilupin.mp3,,,,,,,,,,,,,,,,,,,,,,,,,,,,,,,,,,,,,,,,,,,,,,,,,,,,,,,,,,,,,,,,,,,,,,,,,,
,,,,,,,,,R_3nlnuIzdAYVnZgf,2022-10-14_20h13.28.519,jpn_C03,2022.1.2,Win32,59.99880002,,,space,4.6278,0,44,44,42,1,ピク　プミ　ムク　ルピン,,,CartoonStims/cowboy_punch_burglar_r_no.jpg,audio/pikupumimukulupin.mp3,,,,,,,,,,,,,,,,,,,,,,,,,,,,,,,,,,,,,,,,,,,,,,,,,,,,,,,,,,,,,,,,,,,,,,,,,,
,,,,,,,,,R_3nlnuIzdAYVnZgf,2022-10-14_20h13.28.519,jpn_C03,2022.1.2,Win32,59.99880002,,,space,1.1011,0,45,45,22,1,トマ　ピク　ドキ　ルピン,,,CartoonStims/boxer_point_burglar_r_no.jpg,audio/tomapikudokilupin.mp3,,,,,,,,,,,,,,,,,,,,,,,,,,,,,,,,,,,,,,,,,,,,,,,,,,,,,,,,,,,,,,,,,,,,,,,,,,
,,,,,,,,,R_3nlnuIzdAYVnZgf,2022-10-14_20h13.28.519,jpn_C03,2022.1.2,Win32,59.99880002,,,space,3.2535,0,46,46,15,1,ピク　トマ　ルピン　ピポ,,,CartoonStims/burglar_point_doctor_r_no.jpg,audio/pikutomalupinpipo.mp3,,,,,,,,,,,,,,,,,,,,,,,,,,,,,,,,,,,,,,,,,,,,,,,,,,,,,,,,,,,,,,,,,,,,,,,,,,
,,,,,,,,,R_3nlnuIzdAYVnZgf,2022-10-14_20h13.28.519,jpn_C03,2022.1.2,Win32,59.99880002,,,space,1.6978,0,47,47,46,1,ピク　プミ　ドキ　ムク,,,CartoonStims/boxer_punch_cowboy_r_no.jpg,audio/pikupumidokimuku.mp3,,,,,,,,,,,,,,,,,,,,,,,,,,,,,,,,,,,,,,,,,,,,,,,,,,,,,,,,,,,,,,,,,,,,,,,,,,
,,,,,,,,,R_3nlnuIzdAYVnZgf,2022-10-14_20h13.28.519,jpn_C03,2022.1.2,Win32,59.99880002,,,,,,,,,,,,,,,space,0.609,right,0,7.7905,,,,,,,,,,,,,,,,,,,,,,,,,,,,,,,,,,,,,,,,,,,,,,,,,,,,,,,,,,,,,,0,0,0,0,1,,,
,,,,,,,,,R_3nlnuIzdAYVnZgf,2022-10-14_20h13.28.519,jpn_C03,2022.1.2,Win32,59.99880002,,,,,,,,,,,,,,,,,,,,,,,,,0,0,0,6,1,CartoonStims/artist_shoot_boxer_r.jpg,トマ　ピク　シド　ドキ,CartoonStims/artist_point_boxer_r.jpg,left,CartoonStims/artist_shoot_boxer_r.jpg,audio/tomapikusidodoki.mp3,"残念！ こちらが正しい画像です。

否定文は起きていないことを示しているのを思い出してください。",,,,,,,,,,,,,,,,,,,,,,,,,,,,,,,,,,,,,,,,,,,,,,,,,,,,
,,,,,,,,,R_3nlnuIzdAYVnZgf,2022-10-14_20h13.28.519,jpn_C03,2022.1.2,Win32,59.99880002,,,,,,,,,,,,,,,,,left,0,4.9219,,,,,,,,,,,,,,,,,,,,,,,0,0,0,0,1,,,,,,,,,,,,,,,,,,,,,,,,,,,,,,,,,,,,,,,,,,
,,,,,,,,,R_3nlnuIzdAYVnZgf,2022-10-14_20h13.28.519,jpn_C03,2022.1.2,Win32,59.99880002,,,,,,,,,,,,,,,,,,,,,,,,,0,1,1,11,1,CartoonStims/chef_shoot_burglar_r.jpg,パツ　ピク　ホレト　ルピン,CartoonStims/chef_kick_burglar_r.jpg,right,CartoonStims/chef_kick_burglar_r.jpg,audio/patsupikuhoretolupin.mp3,"残念！ こちらが正しい画像です。

否定文は起きていないことを示しているのを思い出してください。",,,,,,,,,,,,,,,,,,,,,,,,,,,,,,,,,,,,,,,,,,,,,,,,,,,,
,,,,,,,,,R_3nlnuIzdAYVnZgf,2022-10-14_20h13.28.519,jpn_C03,2022.1.2,Win32,59.99880002,,,,,,,,,,,,,,,,,right,1,3.2911,0,0,0,0,1,,,,,,,,,,,,,,,,,,,,,,,,,,,,,,,,,,,,,,,,,,,,,,,,,,,,,,,,,,,,,,,,
,,,,,,,,,R_3nlnuIzdAYVnZgf,2022-10-14_20h13.28.519,jpn_C03,2022.1.2,Win32,59.99880002,,,,,,,,,,,,,,,,,,,,,,,,,0,2,2,9,1,CartoonStims/boxer_shoot_doctor_r.jpg,パツ　ピク　ドキ　ピポ,CartoonStims/boxer_point_doctor_r.jpg,right,CartoonStims/boxer_point_doctor_r.jpg,audio/patsupikudokipipo.mp3,"残念！ こちらが正しい画像です。

否定文は起きていないことを示しているのを思い出してください。",,,,,,,,,,,,,,,,,,,,,,,,,,,,,,,,,,,,,,,,,,,,,,,,,,,,
,,,,,,,,,R_3nlnuIzdAYVnZgf,2022-10-14_20h13.28.519,jpn_C03,2022.1.2,Win32,59.99880002,,,,,,,,,,,,,,,,,left,1,3.1504,,,,,,,,,,,,,,,,,,0,0,0,0,1,,,,,,,,,,,,,,,,,,,,,,,,,,,,,,,,,,,,,,,,,,,,,,,
,,,,,,,,,R_3nlnuIzdAYVnZgf,2022-10-14_20h13.28.519,jpn_C03,2022.1.2,Win32,59.99880002,,,,,,,,,,,,,,,,,,,,,,,,,0,3,3,2,1,CartoonStims/doctor_point_boxer_r.jpg,プミ　ピク　ピポ　ドキ,CartoonStims/doctor_punch_boxer_r.jpg,left,CartoonStims/doctor_point_boxer_r.jpg,audio/pumipikupipodoki.mp3,"残念！ こちらが正しい画像です。

否定文は起きていないことを示しているのを思い出してください。",,,,,,,,,,,,,,,,,,,,,,,,,,,,,,,,,,,,,,,,,,,,,,,,,,,,
,,,,,,,,,R_3nlnuIzdAYVnZgf,2022-10-14_20h13.28.519,jpn_C03,2022.1.2,Win32,59.99880002,,,,,,,,,,,,,,,,,left,1,4.4771,,,,,,,,,,,,,,,,,,0,0,0,0,1,,,,,,,,,,,,,,,,,,,,,,,,,,,,,,,,,,,,,,,,,,,,,,,
,,,,,,,,,R_3nlnuIzdAYVnZgf,2022-10-14_20h13.28.519,jpn_C03,2022.1.2,Win32,59.99880002,,,,,,,,,,,,,,,,,,,,,,,,,0,4,4,0,1,CartoonStims/artist_shoot_burglar_r.jpg,ピク　プミ　シド　ルピン,CartoonStims/artist_punch_burglar_r.jpg,left,CartoonStims/artist_shoot_burglar_r.jpg,audio/pikupumisidolupin.mp3,"残念！ こちらが正しい画像です。

否定文は起きていないことを示しているのを思い出してください。",,,,,,,,,,,,,,,,,,,,,,,,,,,,,,,,,,,,,,,,,,,,,,,,,,,,
,,,,,,,,,R_3nlnuIzdAYVnZgf,2022-10-14_20h13.28.519,jpn_C03,2022.1.2,Win32,59.99880002,,,,,,,,,,,,,,,,,right,1,7.5165,0,0,0,0,1,,,,,,,,,,,,,,,,,,,,,,,,,,,,,,,,,,,,,,,,,,,,,,,,,,,,,,,,,,,,,,,,
,,,,,,,,,R_3nlnuIzdAYVnZgf,2022-10-14_20h13.28.519,jpn_C03,2022.1.2,Win32,59.99880002,,,,,,,,,,,,,,,,,,,,,,,,,0,5,5,7,1,CartoonStims/cowboy_point_chef_r.jpg,ピク　トマ　ムク　ホレト,CartoonStims/cowboy_kick_chef_r.jpg,right,CartoonStims/cowboy_kick_chef_r.jpg,audio/pikutomamukuhoreto.mp3,"残念！ こちらが正しい画像です。

否定文は起きていないことを示しているのを思い出してください。",,,,,,,,,,,,,,,,,,,,,,,,,,,,,,,,,,,,,,,,,,,,,,,,,,,,
,,,,,,,,,R_3nlnuIzdAYVnZgf,2022-10-14_20h13.28.519,jpn_C03,2022.1.2,Win32,59.99880002,,,,,,,,,,,,,,,,,left,1,5.9683,,,,,,,,,,,,,,,,,,0,0,0,0,1,,,,,,,,,,,,,,,,,,,,,,,,,,,,,,,,,,,,,,,,,,,,,,,
,,,,,,,,,R_3nlnuIzdAYVnZgf,2022-10-14_20h13.28.519,jpn_C03,2022.1.2,Win32,59.99880002,,,,,,,,,,,,,,,,,,,,,,,,,0,6,6,8,1,CartoonStims/burglar_punch_artist_r.jpg,トマ　ピク　ルピン　シド,CartoonStims/burglar_point_artist_r.jpg,left,CartoonStims/burglar_punch_artist_r.jpg,audio/tomapikulupinsido.mp3,"残念！ こちらが正しい画像です。

否定文は起きていないことを示しているのを思い出してください。",,,,,,,,,,,,,,,,,,,,,,,,,,,,,,,,,,,,,,,,,,,,,,,,,,,,
,,,,,,,,,R_3nlnuIzdAYVnZgf,2022-10-14_20h13.28.519,jpn_C03,2022.1.2,Win32,59.99880002,,,,,,,,,,,,,,,,,left,1,1.3107,,,,,,,,,,,,,,,,,,0,0,0,0,1,,,,,,,,,,,,,,,,,,,,,,,,,,,,,,,,,,,,,,,,,,,,,,,
,,,,,,,,,R_3nlnuIzdAYVnZgf,2022-10-14_20h13.28.519,jpn_C03,2022.1.2,Win32,59.99880002,,,,,,,,,,,,,,,,,,,,,,,,,0,7,7,4,1,CartoonStims/burglar_shoot_doctor_r.jpg,セル　ピク　ルピン　ピポ,CartoonStims/burglar_kick_doctor_r.jpg,left,CartoonStims/burglar_shoot_doctor_r.jpg,audio/serupikulupinpipo.mp3,"残念！ こちらが正しい画像です。

否定文は起きていないことを示しているのを思い出してください。",,,,,,,,,,,,,,,,,,,,,,,,,,,,,,,,,,,,,,,,,,,,,,,,,,,,
,,,,,,,,,R_3nlnuIzdAYVnZgf,2022-10-14_20h13.28.519,jpn_C03,2022.1.2,Win32,59.99880002,,,,,,,,,,,,,,,,,right,1,1.0338,0,0,0,0,1,,,,,,,,,,,,,,,,,,,,,,,,,,,,,,,,,,,,,,,,,,,,,,,,,,,,,,,,,,,,,,,,
,,,,,,,,,R_3nlnuIzdAYVnZgf,2022-10-14_20h13.28.519,jpn_C03,2022.1.2,Win32,59.99880002,,,,,,,,,,,,,,,,,,,,,,,,,0,8,8,1,1,CartoonStims/chef_punch_cowboy_r.jpg,プミ　ピク　ホレト　ムク,CartoonStims/chef_kick_cowboy_r.jpg,right,CartoonStims/chef_kick_cowboy_r.jpg,audio/pumipikuhoretomuku.mp3,"残念！ こちらが正しい画像です。

否定文は起きていないことを示しているのを思い出してください。",,,,,,,,,,,,,,,,,,,,,,,,,,,,,,,,,,,,,,,,,,,,,,,,,,,,
,,,,,,,,,R_3nlnuIzdAYVnZgf,2022-10-14_20h13.28.519,jpn_C03,2022.1.2,Win32,59.99880002,,,,,,,,,,,,,,,,,left,0,2.1047,,,,,,,,,,,,,,,,,,,,,,,0,0,0,0,1,,,,,,,,,,,,,,,,,,,,,,,,,,,,,,,,,,,,,,,,,,
,,,,,,,,,R_3nlnuIzdAYVnZgf,2022-10-14_20h13.28.519,jpn_C03,2022.1.2,Win32,59.99880002,,,,,,,,,,,,,,,,,,,,,,,,,0,9,9,3,1,CartoonStims/chef_kick_artist_r.jpg,ピク　セル　ホレト　シド,CartoonStims/chef_point_artist_r.jpg,right,CartoonStims/chef_point_artist_r.jpg,audio/pikuseruhoretosido.mp3,"残念！ こちらが正しい画像です。

否定文は起きていないことを示しているのを思い出してください。",,,,,,,,,,,,,,,,,,,,,,,,,,,,,,,,,,,,,,,,,,,,,,,,,,,,
,,,,,,,,,R_3nlnuIzdAYVnZgf,2022-10-14_20h13.28.519,jpn_C03,2022.1.2,Win32,59.99880002,,,,,,,,,,,,,,,,,left,1,1.9197,,,,,,,,,,,,,,,,,,0,0,0,0,1,,,,,,,,,,,,,,,,,,,,,,,,,,,,,,,,,,,,,,,,,,,,,,,
,,,,,,,,,R_3nlnuIzdAYVnZgf,2022-10-14_20h13.28.519,jpn_C03,2022.1.2,Win32,59.99880002,,,,,,,,,,,,,,,,,,,,,,,,,0,10,10,10,1,CartoonStims/doctor_punch_cowboy_r.jpg,ピク　パツ　ピポ　ムク,CartoonStims/doctor_shoot_cowboy_r.jpg,left,CartoonStims/doctor_punch_cowboy_r.jpg,audio/pikupatsupipomuku.mp3,"残念！ こちらが正しい画像です。

否定文は起きていないことを示しているのを思い出してください。",,,,,,,,,,,,,,,,,,,,,,,,,,,,,,,,,,,,,,,,,,,,,,,,,,,,
,,,,,,,,,R_3nlnuIzdAYVnZgf,2022-10-14_20h13.28.519,jpn_C03,2022.1.2,Win32,59.99880002,,,,,,,,,,,,,,,,,left,0,2.8152,,,,,,,,,,,,,,,,,,,,,,,0,0,0,0,1,,,,,,,,,,,,,,,,,,,,,,,,,,,,,,,,,,,,,,,,,,
,,,,,,,,,R_3nlnuIzdAYVnZgf,2022-10-14_20h13.28.519,jpn_C03,2022.1.2,Win32,59.99880002,,,,,,,,,,,,,,,,,,,,,,,,,0,11,11,5,1,CartoonStims/boxer_kick_cowboy_r.jpg,セル　ピク　ドキ　ムク,CartoonStims/boxer_punch_cowboy_r.jpg,right,CartoonStims/boxer_punch_cowboy_r.jpg,audio/serupikudokimuku.mp3,"残念！ こちらが正しい画像です。

否定文は起きていないことを示しているのを思い出してください。",,,,,,,,,,,,,,,,,,,,,,,,,,,,,,,,,,,,,,,,,,,,,,,,,,,,
,,,,,,,,,R_3nlnuIzdAYVnZgf,2022-10-14_20h13.28.519,jpn_C03,2022.1.2,Win32,59.99880002,,,,,,,,,,,,,CartoonStims/boxer_shoot_burglar_r_no.jpg,,,,,,,,,,,,,,,,,,,,,,,,,,,,,,,,,,space,0.7183,パツ　ピク　ドキ　ルピン,right,14.2651,,,,,,0,0,0,17,1,,,,,,,,,,,,,,,,,,,,,,,,,ピク　パツ　ドキ　ルピン,パツ　ピク　ドキ　ルピン,1
,,,,,,,,,R_3nlnuIzdAYVnZgf,2022-10-14_20h13.28.519,jpn_C03,2022.1.2,Win32,59.99880002,,,,,,,,,,,,,CartoonStims/burglar_kick_artist_r_no.jpg,,,,,,,,,,,,,,,,,,,,,,,,,,,,,,,,,,,,,right,2.796,,,,,,0,1,1,1,1,,,,,,,,,,,,,,,,,,,,,,,,,ピク　セル　ルピン　シド,セル　ピク　ルピン　シド,1
,,,,,,,,,R_3nlnuIzdAYVnZgf,2022-10-14_20h13.28.519,jpn_C03,2022.1.2,Win32,59.99880002,,,,,,,,,,,,,CartoonStims/burglar_shoot_cowboy_r_no.jpg,,,,,,,,,,,,,,,,,,,,,,,,,,,,,,,,,,,,ピク　パツ　ルピン　ムク,right,16.866,,,,,,0,2,2,13,1,,,,,,,,,,,,,,,,,,,,,,,,,ピク　パツ　ルピン　ムク,パツ　ピク　ルピン　ムク,1
,,,,,,,,,R_3nlnuIzdAYVnZgf,2022-10-14_20h13.28.519,jpn_C03,2022.1.2,Win32,59.99880002,,,,,,,,,,,,,CartoonStims/boxer_punch_artist_r.jpg,,,,,,,,,,,,,,,,,,,,,,,,,,,,,,,,,,,,トマ　ドキ　シド,right,21.2059,,,,,,0,3,3,35,1,,,,,,,,,,,,,,,,,,,,,,,,,プミ　ドキ　シド,プミ　ドキ　シド,0
,,,,,,,,,R_3nlnuIzdAYVnZgf,2022-10-14_20h13.28.519,jpn_C03,2022.1.2,Win32,59.99880002,,,,,,,,,,,,,CartoonStims/artist_punch_burglar_r.jpg,,,,,,,,,,,,,,,,,,,,,,,,,,,,,,,,,,,,パツ　シド　ルピン,right,7.4416,,,,,,0,4,4,33,1,,,,,,,,,,,,,,,,,,,,,,,,,プミ　シド　ルピン,プミ　シド　ルピン,0
,,,,,,,,,R_3nlnuIzdAYVnZgf,2022-10-14_20h13.28.519,jpn_C03,2022.1.2,Win32,59.99880002,,,,,,,,,,,,,CartoonStims/doctor_point_boxer_r_no.jpg,,,,,,,,,,,,,,,,,,,,,,,,,,,,,,,,,,,,,right,0.1428,,,,,,0,5,5,10,1,,,,,,,,,,,,,,,,,,,,,,,,,ピク　トマ　ピポ　ドキ,トマ　ピク　ピポ　ドキ,1
,,,,,,,,,R_3nlnuIzdAYVnZgf,2022-10-14_20h13.28.519,jpn_C03,2022.1.2,Win32,59.99880002,,,,,,,,,,,,,CartoonStims/doctor_punch_burglar_r_no.jpg,,,,,,,,,,,,,,,,,,,,,,,,,,,,,,,,,,,,パツ　ピク　プミ　ルピン,right,18.1859,,,,,,0,6,6,22,1,,,,,,,,,,,,,,,,,,,,,,,,,ピク　プミ　ピポ　ルピン,プミ　ピク　ピポ　ルピン,1
,,,,,,,,,R_3nlnuIzdAYVnZgf,2022-10-14_20h13.28.519,jpn_C03,2022.1.2,Win32,59.99880002,,,,,,,,,,,,,CartoonStims/doctor_shoot_artist_r_no.jpg,,,,,,,,,,,,,,,,,,,,,,,,,,,,,,,,,,,,ピク　パツ　プミ　シド,right,12.9086,,,,,,0,7,7,16,1,,,,,,,,,,,,,,,,,,,,,,,,,ピク　パツ　ピポ　シド,パツ　ピク　ピポ　シド,1
,,,,,,,,,R_3nlnuIzdAYVnZgf,2022-10-14_20h13.28.519,jpn_C03,2022.1.2,Win32,59.99880002,,,,,,,,,,,,,CartoonStims/doctor_kick_chef_r.jpg,,,,,,,,,,,,,,,,,,,,,,,,,,,,,,,,,,,,ホレ　プミ　ホレト,right,15.5298,,,,,,0,8,8,25,1,,,,,,,,,,,,,,,,,,,,,,,,,セル　ピポ　ホレト,セル　ピポ　ホレト,0
,,,,,,,,,R_3nlnuIzdAYVnZgf,2022-10-14_20h13.28.519,jpn_C03,2022.1.2,Win32,59.99880002,,,,,,,,,,,,,CartoonStims/artist_point_boxer_r.jpg,,,,,,,,,,,,,,,,,,,,,,,,,,,,,,,,,,,,ムク　シド　ドキ,right,7.6403,,,,,,0,9,9,27,1,,,,,,,,,,,,,,,,,,,,,,,,,トマ　シド　ドキ,トマ　シド　ドキ,0
,,,,,,,,,R_3nlnuIzdAYVnZgf,2022-10-14_20h13.28.519,jpn_C03,2022.1.2,Win32,59.99880002,,,,,,,,,,,,,CartoonStims/chef_punch_boxer_r_no.jpg,,,,,,,,,,,,,,,,,,,,,,,,,,,,,,,,,,,,パツ　ピク　ホレト　シド,right,12.0213,,,,,,0,10,10,20,1,,,,,,,,,,,,,,,,,,,,,,,,,ピク　プミ　ホレト　ドキ,プミ　ピク　ホレト　ドキ,1
,,,,,,,,,R_3nlnuIzdAYVnZgf,2022-10-14_20h13.28.519,jpn_C03,2022.1.2,Win32,59.99880002,,,,,,,,,,,,,CartoonStims/burglar_punch_doctor_r_no.jpg,,,,,,,,,,,,,,,,,,,,,,,,,,,,,,,,,,,,パツ　ピク　ルピン　プミ,right,17.2834,,,,,,0,11,11,19,1,,,,,,,,,,,,,,,,,,,,,,,,,ピク　プミ　ルピン　ピポ,プミ　ピク　ルピン　ピポ,1
,,,,,,,,,R_3nlnuIzdAYVnZgf,2022-10-14_20h13.28.519,jpn_C03,2022.1.2,Win32,59.99880002,,,,,,,,,,,,,CartoonStims/cowboy_kick_burglar_r.jpg,,,,,,,,,,,,,,,,,,,,,,,,,,,,,,,,,,,,ホレ　シド　ルピン,right,9.4276,,,,,,0,12,12,24,1,,,,,,,,,,,,,,,,,,,,,,,,,セル　ムク　ルピン,セル　ムク　ルピン,0
,,,,,,,,,R_3nlnuIzdAYVnZgf,2022-10-14_20h13.28.519,jpn_C03,2022.1.2,Win32,59.99880002,,,,,,,,,,,,,CartoonStims/artist_kick_boxer_r_no.jpg,,,,,,,,,,,,,,,,,,,,,,,,,,,,,,,,,,,,ホレ　パツ　シド　ドキ,right,5.8532,,,,,,0,13,13,0,1,,,,,,,,,,,,,,,,,,,,,,,,,ピク　セル　シド　ドキ,セル　ピク　シド　ドキ,1
,,,,,,,,,R_3nlnuIzdAYVnZgf,2022-10-14_20h13.28.519,jpn_C03,2022.1.2,Win32,59.99880002,,,,,,,,,,,,,CartoonStims/cowboy_shoot_boxer_r_no.jpg,,,,,,,,,,,,,,,,,,,,,,,,,,,,,,,,,,,,パツ　ピク　シド　ドキ,right,12.6062,,,,,,0,14,14,15,1,,,,,,,,,,,,,,,,,,,,,,,,,ピク　パツ　ムク　ドキ,パツ　ピク　ムク　ドキ,1
,,,,,,,,,R_3nlnuIzdAYVnZgf,2022-10-14_20h13.28.519,jpn_C03,2022.1.2,Win32,59.99880002,,,,,,,,,,,,,CartoonStims/chef_shoot_doctor_r_no.jpg,,,,,,,,,,,,,,,,,,,,,,,,,,,,,,,,,,,,ピク　パツ　ホレト　プミ,right,16.2839,,,,,,0,15,15,14,1,,,,,,,,,,,,,,,,,,,,,,,,,ピク　パツ　ホレト　ピポ,パツ　ピク　ホレト　ピポ,1
,,,,,,,,,R_3nlnuIzdAYVnZgf,2022-10-14_20h13.28.519,jpn_C03,2022.1.2,Win32,59.99880002,,,,,,,,,,,,,CartoonStims/boxer_kick_cowboy_r.jpg,,,,,,,,,,,,,,,,,,,,,,,,,,,,,,,,,,,,ホレ　ドキ　シド,right,10.5203,,,,,,0,16,16,26,1,,,,,,,,,,,,,,,,,,,,,,,,,セル　ドキ　ムク,セル　ドキ　ムク,0
,,,,,,,,,R_3nlnuIzdAYVnZgf,2022-10-14_20h13.28.519,jpn_C03,2022.1.2,Win32,59.99880002,,,,,,,,,,,,,CartoonStims/artist_shoot_chef_r_no.jpg,,,,,,,,,,,,,,,,,,,,,,,,,,,,,,,,,,,,パツ　ピク　シド　ホレト,right,5.6547,,,,,,0,17,17,12,1,,,,,,,,,,,,,,,,,,,,,,,,,ピク　パツ　シド　ホレト,パツ　ピク　シド　ホレト,1
,,,,,,,,,R_3nlnuIzdAYVnZgf,2022-10-14_20h13.28.519,jpn_C03,2022.1.2,Win32,59.99880002,,,,,,,,,,,,,CartoonStims/chef_point_cowboy_r_no.jpg,,,,,,,,,,,,,,,,,,,,,,,,,,,,,,,,,,,,ムク　パツ　ホレト　シド,right,7.9745,,,,,,0,18,18,8,1,,,,,,,,,,,,,,,,,,,,,,,,,ピク　トマ　ホレト　ムク,トマ　ピク　ホレト　ムク,1
,,,,,,,,,R_3nlnuIzdAYVnZgf,2022-10-14_20h13.28.519,jpn_C03,2022.1.2,Win32,59.99880002,,,,,,,,,,,,,CartoonStims/cowboy_shoot_doctor_r.jpg,,,,,,,,,,,,,,,,,,,,,,,,,,,,,,,,,,,,パツ　シド　プミ,right,8.0412,,,,,,0,19,19,32,1,,,,,,,,,,,,,,,,,,,,,,,,,パツ　ムク　ピポ,パツ　ムク　ピポ,0
,,,,,,,,,R_3nlnuIzdAYVnZgf,2022-10-14_20h13.28.519,jpn_C03,2022.1.2,Win32,59.99880002,,,,,,,,,,,,,CartoonStims/artist_punch_cowboy_r_no.jpg,,,,,,,,,,,,,,,,,,,,,,,,,,,,,,,,,,,,パツ　ピク　シド　ムク,right,28.4693,,,,,,0,20,20,18,1,,,,,,,,,,,,,,,,,,,,,,,,,ピク　プミ　シド　ムク,プミ　ピク　シド　ムク,1
,,,,,,,,,R_3nlnuIzdAYVnZgf,2022-10-14_20h13.28.519,jpn_C03,2022.1.2,Win32,59.99880002,,,,,,,,,,,,,CartoonStims/doctor_punch_boxer_r.jpg,,,,,,,,,,,,,,,,,,,,,,,,,,,,,,,,,,,,パツ　プミ　ドキ,right,11.1189,,,,,,0,21,21,34,1,,,,,,,,,,,,,,,,,,,,,,,,,プミ　ピポ　ドキ,プミ　ピポ　ドキ,0
,,,,,,,,,R_3nlnuIzdAYVnZgf,2022-10-14_20h13.28.519,jpn_C03,2022.1.2,Win32,59.99880002,,,,,,,,,,,,,CartoonStims/artist_point_burglar_r_no.jpg,,,,,,,,,,,,,,,,,,,,,,,,,,,,,,,,,,,,ムク　パツ　シド　ルピン,right,12.6822,,,,,,0,22,22,6,1,,,,,,,,,,,,,,,,,,,,,,,,,ピク　トマ　シド　ルピン,トマ　ピク　シド　ルピン,1
,,,,,,,,,R_3nlnuIzdAYVnZgf,2022-10-14_20h13.28.519,jpn_C03,2022.1.2,Win32,59.99880002,,,,,,,,,,,,,CartoonStims/cowboy_kick_chef_r_no.jpg,,,,,,,,,,,,,,,,,,,,,,,,,,,,,,,,,,,,ホレ　パツ　シド　ホレト,right,15.5612,,,,,,0,23,23,3,1,,,,,,,,,,,,,,,,,,,,,,,,,ピク　セル　ムク　ホレト,セル　ピク　ムク　ホレト,1
,,,,,,,,,R_3nlnuIzdAYVnZgf,2022-10-14_20h13.28.519,jpn_C03,2022.1.2,Win32,59.99880002,,,,,,,,,,,,,CartoonStims/chef_point_burglar_r.jpg,,,,,,,,,,,,,,,,,,,,,,,,,,,,,,,,,,,,ムク　ホレト　ルピン,right,10.1043,,,,,,0,24,24,29,1,,,,,,,,,,,,,,,,,,,,,,,,,トマ　ホレト　ルピン,トマ　ホレト　ルピン,0
,,,,,,,,,R_3nlnuIzdAYVnZgf,2022-10-14_20h13.28.519,jpn_C03,2022.1.2,Win32,59.99880002,,,,,,,,,,,,,CartoonStims/chef_shoot_cowboy_r.jpg,,,,,,,,,,,,,,,,,,,,,,,,,,,,,,,,,,,,パツ　ホレト　シド,right,13.8807,,,,,,0,25,25,31,1,,,,,,,,,,,,,,,,,,,,,,,,,パツ　ホレト　ムク,パツ　ホレト　ムク,0
,,,,,,,,,R_3nlnuIzdAYVnZgf,2022-10-14_20h13.28.519,jpn_C03,2022.1.2,Win32,59.99880002,,,,,,,,,,,,,CartoonStims/burglar_shoot_chef_r.jpg,,,,,,,,,,,,,,,,,,,,,,,,,,,,,,,,,,,,パツ　ルピン　ホレト,right,5.2482,,,,,,0,26,26,30,1,,,,,,,,,,,,,,,,,,,,,,,,,パツ　ルピン　ホレト,パツ　ルピン　ホレト,0
,,,,,,,,,R_3nlnuIzdAYVnZgf,2022-10-14_20h13.28.519,jpn_C03,2022.1.2,Win32,59.99880002,,,,,,,,,,,,,CartoonStims/burglar_point_artist_r.jpg,,,,,,,,,,,,,,,,,,,,,,,,,,,,,,,,,,,,ムク　ルピン　シド,right,9.5714,,,,,,0,27,27,28,1,,,,,,,,,,,,,,,,,,,,,,,,,トマ　ルピン　シド,トマ　ルピン　シド,0
,,,,,,,,,R_3nlnuIzdAYVnZgf,2022-10-14_20h13.28.519,jpn_C03,2022.1.2,Win32,59.99880002,,,,,,,,,,,,,CartoonStims/boxer_kick_doctor_r_no.jpg,,,,,,,,,,,,,,,,,,,,,,,,,,,,,,,,,,,,ホレ　パツ　ドキ　プミ,right,9.4865,,,,,,0,28,28,5,1,,,,,,,,,,,,,,,,,,,,,,,,,ピク　セル　ドキ　ピポ,セル　ピク　ドキ　ピポ,1
,,,,,,,,,R_3nlnuIzdAYVnZgf,2022-10-14_20h13.28.519,jpn_C03,2022.1.2,Win32,59.99880002,,,,,,,,,,,,,CartoonStims/doctor_kick_cowboy_r_no.jpg,,,,,,,,,,,,,,,,,,,,,,,,,,,,,,,,,,,,ホレ　パツ　プピ　シド,right,11.4834,,,,,,0,29,29,4,1,,,,,,,,,,,,,,,,,,,,,,,,,ピク　セル　ピポ　ムク,セル　ピク　ピポ　ムク,1
,,,,,,,,,R_3nlnuIzdAYVnZgf,2022-10-14_20h13.28.519,jpn_C03,2022.1.2,Win32,59.99880002,,,,,,,,,,,,,CartoonStims/boxer_point_artist_r_no.jpg,,,,,,,,,,,,,,,,,,,,,,,,,,,,,,,,,,,,ムク　パツ　ドキ　シド,right,11.3023,,,,,,0,30,30,11,1,,,,,,,,,,,,,,,,,,,,,,,,,ピク　トマ　ドキ　シド,トマ　ピク　ドキ　シド,1
,,,,,,,,,R_3nlnuIzdAYVnZgf,2022-10-14_20h13.28.519,jpn_C03,2022.1.2,Win32,59.99880002,,,,,,,,,,,,,CartoonStims/burglar_point_chef_r_no.jpg,,,,,,,,,,,,,,,,,,,,,,,,,,,,,,,,,,,,ムク　パツ　ルピン　ホレト,right,20.7895,,,,,,0,31,31,7,1,,,,,,,,,,,,,,,,,,,,,,,,,ピク　トマ　ルピン　ホレト,トマ　ピク　ルピン　ホレト,1
,,,,,,,,,R_3nlnuIzdAYVnZgf,2022-10-14_20h13.28.519,jpn_C03,2022.1.2,Win32,59.99880002,,,,,,,,,,,,,CartoonStims/boxer_punch_chef_r_no.jpg,,,,,,,,,,,,,,,,,,,,,,,,,,,,,,,,,,,,パツ　プレ　ドキ　ホレト,right,29.1107,,,,,,0,32,32,23,1,,,,,,,,,,,,,,,,,,,,,,,,,ピク　プミ　ドキ　ホレト,プミ　ピク　ドキ　ホレト,1
,,,,,,,,,R_3nlnuIzdAYVnZgf,2022-10-14_20h13.28.519,jpn_C03,2022.1.2,Win32,59.99880002,,,,,,,,,,,,,CartoonStims/cowboy_point_doctor_r_no.jpg,,,,,,,,,,,,,,,,,,,,,,,,,,,,,,,,,,,,ムク　パツ　シド　プミ,right,18.2414,,,,,,0,33,33,9,1,,,,,,,,,,,,,,,,,,,,,,,,,ピク　トマ　ムク　ピポ,トマ　ピク　ムク　ピポ,1
,,,,,,,,,R_3nlnuIzdAYVnZgf,2022-10-14_20h13.28.519,jpn_C03,2022.1.2,Win32,59.99880002,,,,,,,,,,,,,CartoonStims/chef_kick_burglar_r_no.jpg,,,,,,,,,,,,,,,,,,,,,,,,,,,,,,,,,,,,パツ　ホレ　ホレト　ルピン,right,14.069,,,,,,0,34,34,2,1,,,,,,,,,,,,,,,,,,,,,,,,,ピク　セル　ホレト　ルピン,セル　ピク　ホレト　ルピン,1
,,,,,,,,,R_3nlnuIzdAYVnZgf,2022-10-14_20h13.28.519,jpn_C03,2022.1.2,Win32,59.99880002,,,,,,,,,,,,,CartoonStims/cowboy_punch_artist_r_no.jpg,,,,,,,,,,,,,,,,,,,,,,,,,,,,,,,,,,,,パツ　パツ　,right,11.4852,,,,,,0,35,35,21,1,,,,,,,,,,,,,,,,,,,,,,,,,ピク　プミ　ムク　シド,プミ　ピク　ムク　シド,1
,,,,,,,,,R_3nlnuIzdAYVnZgf,2022-10-14_20h13.28.519,jpn_C03,2022.1.2,Win32,59.99880002,,,,,,,,,,,,,,,,,,,,,,,,,,,,,,,,,,,,,,,,,,,,,,,,,,,,,,,,,,,,,,,,space,10.1837,0,2,2,2,1,VNegCondition.xlsx,"ここではこの言語における否定の文を学習していただきます。引き続き注意して、 聞こえた音を復唱してください。

スペースキーを押してください。",1,VNegFCT.xlsx,ここからクイズが始まります。 スクリーンに表示されるテキストに合うイメージを選んでください。,NegTest.xlsx,1,最後にここまで学んだことをアウトプットしていただきます。 テキストボックスにあるイメージを描写するテキストを入力してください。 このタスクでは、 答え合わせは行いません。,0,これですべての実験が終わりました。 お疲れさまです。 この後はアンケートに答えていただきます。,,,,,,,,