key_resp_instr_a.keys,key_resp_instr_a.rt,key_resp_instr_b.keys,key_resp_instr_b.rt,dummy.thisRepN,dummy.thisTrialN,dummy.thisN,dummy.thisIndex,dummy.ran,participant,date,expName,psychopyVersion,OS,frameRate,key_resp_instr1.keys,key_resp_instr1.rt,key_resp.keys,key_resp.rt,exp_loop.thisRepN,exp_loop.thisTrialN,exp_loop.thisN,exp_loop.thisIndex,exp_loop.ran,Word,English,Flip,Path,Audio,key_resp_instr2.keys,key_resp_instr2.rt,key_resp_fct.keys,key_resp_fct.corr,key_resp_fct.rt,trials_2.thisRepN,trials_2.thisTrialN,trials_2.thisN,trials_2.thisIndex,trials_2.ran,fct_loop.thisRepN,fct_loop.thisTrialN,fct_loop.thisN,fct_loop.thisIndex,fct_loop.ran,left_img,word,right_img,correctans,correct_img,audio,incorrect_feedback,trials.thisRepN,trials.thisTrialN,trials.thisN,trials.thisIndex,trials.ran,key_resp_instr3.keys,key_resp_instr3.rt,textbox.text,key_resp_2.keys,key_resp_2.rt,fb_yn.thisRepN,fb_yn.thisTrialN,fb_yn.thisN,fb_yn.thisIndex,fb_yn.ran,gather_loop.thisRepN,gather_loop.thisTrialN,gather_loop.thisN,gather_loop.thisIndex,gather_loop.ran,Text,Wordbank,key_resp_instr4.keys,key_resp_instr4.rt,master_loop.thisRepN,master_loop.thisTrialN,master_loop.thisN,master_loop.thisIndex,master_loop.ran,exposure_file,instr_1,exp_reps,fct_file,instr_2,gather_file,gather_reps,instr_3,fReps,instr_4,trials_3.thisRepN,trials_3.thisTrialN,trials_3.thisN,trials_3.thisIndex,trials_3.ran,NegVSentence,VNegSentence,NegTF
space,10.221,space,14.678,0,0,0,0,1,R_2t3zeFbaeAHJsoP,2022-09-08_22h42.32.762,jpn_C03,2022.1.2,MacIntel,62.5,,,,,,,,,,,,,,,,,,,,,,,,,,,,,,,,,,,,,,,,,,,,,,,,,,,,,,,,,,,,,,,,,,,,,,,,,,,,,,,,,,,
,,,,,,,,,R_2t3zeFbaeAHJsoP,2022-09-08_22h42.32.762,jpn_C03,2022.1.2,MacIntel,62.5,space,17.025,space,19.476,0,0,0,3,1,ムク,cowboy,,CartoonStims/cowboy_r.jpg,audio/muku.mp3,,,,,,,,,,,,,,,,,,,,,,,,,,,,,,,,,,,,,,,,,,,,,,,,,,,,,,,,,,,,,,,,,,,,,
,,,,,,,,,R_2t3zeFbaeAHJsoP,2022-09-08_22h42.32.762,jpn_C03,2022.1.2,MacIntel,62.5,,,space,8.618,0,1,1,4,1,ピポ,doctor,,CartoonStims/doctor_r.jpg,audio/pipo.mp3,,,,,,,,,,,,,,,,,,,,,,,,,,,,,,,,,,,,,,,,,,,,,,,,,,,,,,,,,,,,,,,,,,,,,
,,,,,,,,,R_2t3zeFbaeAHJsoP,2022-09-08_22h42.32.762,jpn_C03,2022.1.2,MacIntel,62.5,,,space,25.568,0,2,2,0,1,シド,artist,,CartoonStims/artist_r.jpg,audio/sido.mp3,,,,,,,,,,,,,,,,,,,,,,,,,,,,,,,,,,,,,,,,,,,,,,,,,,,,,,,,,,,,,,,,,,,,,
,,,,,,,,,R_2t3zeFbaeAHJsoP,2022-09-08_22h42.32.762,jpn_C03,2022.1.2,MacIntel,62.5,,,space,10.626,0,3,3,5,1,ドキ,boxer,,CartoonStims/boxer_r.jpg,audio/doki.mp3,,,,,,,,,,,,,,,,,,,,,,,,,,,,,,,,,,,,,,,,,,,,,,,,,,,,,,,,,,,,,,,,,,,,,
,,,,,,,,,R_2t3zeFbaeAHJsoP,2022-09-08_22h42.32.762,jpn_C03,2022.1.2,MacIntel,62.5,,,space,8.05,0,4,4,2,1,ホレト,chef,,CartoonStims/chef_r.jpg,audio/horeto.mp3,,,,,,,,,,,,,,,,,,,,,,,,,,,,,,,,,,,,,,,,,,,,,,,,,,,,,,,,,,,,,,,,,,,,,
,,,,,,,,,R_2t3zeFbaeAHJsoP,2022-09-08_22h42.32.762,jpn_C03,2022.1.2,MacIntel,62.5,,,space,10.217,0,5,5,1,1,ルピン,burglar,,CartoonStims/burglar_r.jpg,audio/lupin.mp3,,,,,,,,,,,,,,,,,,,,,,,,,,,,,,,,,,,,,,,,,,,,,,,,,,,,,,,,,,,,,,,,,,,,,
,,,,,,,,,R_2t3zeFbaeAHJsoP,2022-09-08_22h42.32.762,jpn_C03,2022.1.2,MacIntel,62.5,,,space,8.034,1,0,6,0,1,シド,artist,,CartoonStims/artist_r.jpg,audio/sido.mp3,,,,,,,,,,,,,,,,,,,,,,,,,,,,,,,,,,,,,,,,,,,,,,,,,,,,,,,,,,,,,,,,,,,,,
,,,,,,,,,R_2t3zeFbaeAHJsoP,2022-09-08_22h42.32.762,jpn_C03,2022.1.2,MacIntel,62.5,,,space,5.317,1,1,7,3,1,ムク,cowboy,,CartoonStims/cowboy_r.jpg,audio/muku.mp3,,,,,,,,,,,,,,,,,,,,,,,,,,,,,,,,,,,,,,,,,,,,,,,,,,,,,,,,,,,,,,,,,,,,,
,,,,,,,,,R_2t3zeFbaeAHJsoP,2022-09-08_22h42.32.762,jpn_C03,2022.1.2,MacIntel,62.5,,,space,2.44,1,2,8,5,1,ドキ,boxer,,CartoonStims/boxer_r.jpg,audio/doki.mp3,,,,,,,,,,,,,,,,,,,,,,,,,,,,,,,,,,,,,,,,,,,,,,,,,,,,,,,,,,,,,,,,,,,,,
,,,,,,,,,R_2t3zeFbaeAHJsoP,2022-09-08_22h42.32.762,jpn_C03,2022.1.2,MacIntel,62.5,,,space,1.661,1,3,9,2,1,ホレト,chef,,CartoonStims/chef_r.jpg,audio/horeto.mp3,,,,,,,,,,,,,,,,,,,,,,,,,,,,,,,,,,,,,,,,,,,,,,,,,,,,,,,,,,,,,,,,,,,,,
,,,,,,,,,R_2t3zeFbaeAHJsoP,2022-09-08_22h42.32.762,jpn_C03,2022.1.2,MacIntel,62.5,,,space,2.451,1,4,10,4,1,ピポ,doctor,,CartoonStims/doctor_r.jpg,audio/pipo.mp3,,,,,,,,,,,,,,,,,,,,,,,,,,,,,,,,,,,,,,,,,,,,,,,,,,,,,,,,,,,,,,,,,,,,,
,,,,,,,,,R_2t3zeFbaeAHJsoP,2022-09-08_22h42.32.762,jpn_C03,2022.1.2,MacIntel,62.5,,,space,0.904,1,5,11,1,1,ルピン,burglar,,CartoonStims/burglar_r.jpg,audio/lupin.mp3,,,,,,,,,,,,,,,,,,,,,,,,,,,,,,,,,,,,,,,,,,,,,,,,,,,,,,,,,,,,,,,,,,,,,
,,,,,,,,,R_2t3zeFbaeAHJsoP,2022-09-08_22h42.32.762,jpn_C03,2022.1.2,MacIntel,62.5,,,space,4.252,2,0,12,0,1,シド,artist,,CartoonStims/artist_r.jpg,audio/sido.mp3,,,,,,,,,,,,,,,,,,,,,,,,,,,,,,,,,,,,,,,,,,,,,,,,,,,,,,,,,,,,,,,,,,,,,
,,,,,,,,,R_2t3zeFbaeAHJsoP,2022-09-08_22h42.32.762,jpn_C03,2022.1.2,MacIntel,62.5,,,space,1.376,2,1,13,1,1,ルピン,burglar,,CartoonStims/burglar_r.jpg,audio/lupin.mp3,,,,,,,,,,,,,,,,,,,,,,,,,,,,,,,,,,,,,,,,,,,,,,,,,,,,,,,,,,,,,,,,,,,,,
,,,,,,,,,R_2t3zeFbaeAHJsoP,2022-09-08_22h42.32.762,jpn_C03,2022.1.2,MacIntel,62.5,,,space,1,2,2,14,5,1,ドキ,boxer,,CartoonStims/boxer_r.jpg,audio/doki.mp3,,,,,,,,,,,,,,,,,,,,,,,,,,,,,,,,,,,,,,,,,,,,,,,,,,,,,,,,,,,,,,,,,,,,,
,,,,,,,,,R_2t3zeFbaeAHJsoP,2022-09-08_22h42.32.762,jpn_C03,2022.1.2,MacIntel,62.5,,,space,1.045,2,3,15,4,1,ピポ,doctor,,CartoonStims/doctor_r.jpg,audio/pipo.mp3,,,,,,,,,,,,,,,,,,,,,,,,,,,,,,,,,,,,,,,,,,,,,,,,,,,,,,,,,,,,,,,,,,,,,
,,,,,,,,,R_2t3zeFbaeAHJsoP,2022-09-08_22h42.32.762,jpn_C03,2022.1.2,MacIntel,62.5,,,space,1.042,2,4,16,2,1,ホレト,chef,,CartoonStims/chef_r.jpg,audio/horeto.mp3,,,,,,,,,,,,,,,,,,,,,,,,,,,,,,,,,,,,,,,,,,,,,,,,,,,,,,,,,,,,,,,,,,,,,
,,,,,,,,,R_2t3zeFbaeAHJsoP,2022-09-08_22h42.32.762,jpn_C03,2022.1.2,MacIntel,62.5,,,space,1.451,2,5,17,3,1,ムク,cowboy,,CartoonStims/cowboy_r.jpg,audio/muku.mp3,,,,,,,,,,,,,,,,,,,,,,,,,,,,,,,,,,,,,,,,,,,,,,,,,,,,,,,,,,,,,,,,,,,,,
,,,,,,,,,R_2t3zeFbaeAHJsoP,2022-09-08_22h42.32.762,jpn_C03,2022.1.2,MacIntel,62.5,,,,,,,,,,,,,,,space,6.259,right,1,4.608,0,0,0,0,1,,,,,,,,,,,,,,,,,,,,,,,,,,,,,,,,,,,,,,,,,,,,,,,,,,,,,,,,,,,
,,,,,,,,,R_2t3zeFbaeAHJsoP,2022-09-08_22h42.32.762,jpn_C03,2022.1.2,MacIntel,62.5,,,,,,,,,,,,,,,,,,,,,,,,,0,0,0,10,1,CartoonStims/artist_r.jpg,ピポ,CartoonStims/doctor_r.jpg,right,CartoonStims/doctor_r.jpg,audio/pipo.mp3,残念！ こちらが正しい画像です。,,,,,,,,,,,,,,,,,,,,,,,,,,,,,,,,,,,,,,,,,,,,,,,
,,,,,,,,,R_2t3zeFbaeAHJsoP,2022-09-08_22h42.32.762,jpn_C03,2022.1.2,MacIntel,62.5,,,,,,,,,,,,,,,,,left,1,1.084,,,,,,,,,,,,,,,,,,0,0,0,0,1,,,,,,,,,,,,,,,,,,,,,,,,,,,,,,,,,,,,,,,,,,
,,,,,,,,,R_2t3zeFbaeAHJsoP,2022-09-08_22h42.32.762,jpn_C03,2022.1.2,MacIntel,62.5,,,,,,,,,,,,,,,,,,,,,,,,,0,1,1,1,1,CartoonStims/burglar_r.jpg,ルピン,CartoonStims/chef_r.jpg,left,CartoonStims/burglar_r.jpg,audio/lupin.mp3,残念！ こちらが正しい画像です。,,,,,,,,,,,,,,,,,,,,,,,,,,,,,,,,,,,,,,,,,,,,,,,
,,,,,,,,,R_2t3zeFbaeAHJsoP,2022-09-08_22h42.32.762,jpn_C03,2022.1.2,MacIntel,62.5,,,,,,,,,,,,,,,,,right,1,3.177,0,0,0,0,1,,,,,,,,,,,,,,,,,,,,,,,,,,,,,,,,,,,,,,,,,,,,,,,,,,,,,,,,,,,
,,,,,,,,,R_2t3zeFbaeAHJsoP,2022-09-08_22h42.32.762,jpn_C03,2022.1.2,MacIntel,62.5,,,,,,,,,,,,,,,,,,,,,,,,,0,2,2,8,1,CartoonStims/doctor_r.jpg,ホレト,CartoonStims/chef_r.jpg,right,CartoonStims/chef_r.jpg,audio/horeto.mp3,残念！ こちらが正しい画像です。,,,,,,,,,,,,,,,,,,,,,,,,,,,,,,,,,,,,,,,,,,,,,,,
,,,,,,,,,R_2t3zeFbaeAHJsoP,2022-09-08_22h42.32.762,jpn_C03,2022.1.2,MacIntel,62.5,,,,,,,,,,,,,,,,,left,1,1.194,,,,,,,,,,,,,,,,,,0,0,0,0,1,,,,,,,,,,,,,,,,,,,,,,,,,,,,,,,,,,,,,,,,,,
,,,,,,,,,R_2t3zeFbaeAHJsoP,2022-09-08_22h42.32.762,jpn_C03,2022.1.2,MacIntel,62.5,,,,,,,,,,,,,,,,,,,,,,,,,0,3,3,3,1,CartoonStims/cowboy_r.jpg,ムク,CartoonStims/doctor_r.jpg,left,CartoonStims/cowboy_r.jpg,audio/muku.mp3,残念！ こちらが正しい画像です。,,,,,,,,,,,,,,,,,,,,,,,,,,,,,,,,,,,,,,,,,,,,,,,
,,,,,,,,,R_2t3zeFbaeAHJsoP,2022-09-08_22h42.32.762,jpn_C03,2022.1.2,MacIntel,62.5,,,,,,,,,,,,,,,,,right,1,1.176,0,0,0,0,1,,,,,,,,,,,,,,,,,,,,,,,,,,,,,,,,,,,,,,,,,,,,,,,,,,,,,,,,,,,
,,,,,,,,,R_2t3zeFbaeAHJsoP,2022-09-08_22h42.32.762,jpn_C03,2022.1.2,MacIntel,62.5,,,,,,,,,,,,,,,,,,,,,,,,,0,4,4,11,1,CartoonStims/burglar_r.jpg,ドキ,CartoonStims/boxer_r.jpg,right,CartoonStims/boxer_r.jpg,audio/doki.mp3,残念！ こちらが正しい画像です。,,,,,,,,,,,,,,,,,,,,,,,,,,,,,,,,,,,,,,,,,,,,,,,
,,,,,,,,,R_2t3zeFbaeAHJsoP,2022-09-08_22h42.32.762,jpn_C03,2022.1.2,MacIntel,62.5,,,,,,,,,,,,,,,,,left,1,0.952,,,,,,,,,,,,,,,,,,0,0,0,0,1,,,,,,,,,,,,,,,,,,,,,,,,,,,,,,,,,,,,,,,,,,
,,,,,,,,,R_2t3zeFbaeAHJsoP,2022-09-08_22h42.32.762,jpn_C03,2022.1.2,MacIntel,62.5,,,,,,,,,,,,,,,,,,,,,,,,,0,5,5,2,1,CartoonStims/chef_r.jpg,ホレト,CartoonStims/cowboy_r.jpg,left,CartoonStims/chef_r.jpg,audio/horeto.mp3,残念！ こちらが正しい画像です。,,,,,,,,,,,,,,,,,,,,,,,,,,,,,,,,,,,,,,,,,,,,,,,
,,,,,,,,,R_2t3zeFbaeAHJsoP,2022-09-08_22h42.32.762,jpn_C03,2022.1.2,MacIntel,62.5,,,,,,,,,,,,,,,,,left,1,1.437,,,,,,,,,,,,,,,,,,0,0,0,0,1,,,,,,,,,,,,,,,,,,,,,,,,,,,,,,,,,,,,,,,,,,
,,,,,,,,,R_2t3zeFbaeAHJsoP,2022-09-08_22h42.32.762,jpn_C03,2022.1.2,MacIntel,62.5,,,,,,,,,,,,,,,,,,,,,,,,,0,6,6,0,1,CartoonStims/artist_r.jpg,シド,CartoonStims/burglar_r.jpg,left,CartoonStims/artist_r.jpg,audio/sido.mp3,残念！ こちらが正しい画像です。,,,,,,,,,,,,,,,,,,,,,,,,,,,,,,,,,,,,,,,,,,,,,,,
,,,,,,,,,R_2t3zeFbaeAHJsoP,2022-09-08_22h42.32.762,jpn_C03,2022.1.2,MacIntel,62.5,,,,,,,,,,,,,,,,,right,1,2.085,0,0,0,0,1,,,,,,,,,,,,,,,,,,,,,,,,,,,,,,,,,,,,,,,,,,,,,,,,,,,,,,,,,,,
,,,,,,,,,R_2t3zeFbaeAHJsoP,2022-09-08_22h42.32.762,jpn_C03,2022.1.2,MacIntel,62.5,,,,,,,,,,,,,,,,,,,,,,,,,0,7,7,9,1,CartoonStims/boxer_r.jpg,ムク,CartoonStims/cowboy_r.jpg,right,CartoonStims/cowboy_r.jpg,audio/muku.mp3,残念！ こちらが正しい画像です。,,,,,,,,,,,,,,,,,,,,,,,,,,,,,,,,,,,,,,,,,,,,,,,
,,,,,,,,,R_2t3zeFbaeAHJsoP,2022-09-08_22h42.32.762,jpn_C03,2022.1.2,MacIntel,62.5,,,,,,,,,,,,,,,,,right,1,0.485,0,0,0,0,1,,,,,,,,,,,,,,,,,,,,,,,,,,,,,,,,,,,,,,,,,,,,,,,,,,,,,,,,,,,
,,,,,,,,,R_2t3zeFbaeAHJsoP,2022-09-08_22h42.32.762,jpn_C03,2022.1.2,MacIntel,62.5,,,,,,,,,,,,,,,,,,,,,,,,,0,8,8,7,1,CartoonStims/cowboy_r.jpg,ルピン,CartoonStims/burglar_r.jpg,right,CartoonStims/burglar_r.jpg,audio/lupin.mp3,残念！ こちらが正しい画像です。,,,,,,,,,,,,,,,,,,,,,,,,,,,,,,,,,,,,,,,,,,,,,,,
,,,,,,,,,R_2t3zeFbaeAHJsoP,2022-09-08_22h42.32.762,jpn_C03,2022.1.2,MacIntel,62.5,,,,,,,,,,,,,,,,,left,1,3.083,,,,,,,,,,,,,,,,,,0,0,0,0,1,,,,,,,,,,,,,,,,,,,,,,,,,,,,,,,,,,,,,,,,,,
,,,,,,,,,R_2t3zeFbaeAHJsoP,2022-09-08_22h42.32.762,jpn_C03,2022.1.2,MacIntel,62.5,,,,,,,,,,,,,,,,,,,,,,,,,0,9,9,4,1,CartoonStims/doctor_r.jpg,ピポ,CartoonStims/boxer_r.jpg,left,CartoonStims/doctor_r.jpg,audio/pipo.mp3,残念！ こちらが正しい画像です。,,,,,,,,,,,,,,,,,,,,,,,,,,,,,,,,,,,,,,,,,,,,,,,
,,,,,,,,,R_2t3zeFbaeAHJsoP,2022-09-08_22h42.32.762,jpn_C03,2022.1.2,MacIntel,62.5,,,,,,,,,,,,,,,,,right,1,3.211,0,0,0,0,1,,,,,,,,,,,,,,,,,,,,,,,,,,,,,,,,,,,,,,,,,,,,,,,,,,,,,,,,,,,
,,,,,,,,,R_2t3zeFbaeAHJsoP,2022-09-08_22h42.32.762,jpn_C03,2022.1.2,MacIntel,62.5,,,,,,,,,,,,,,,,,,,,,,,,,0,10,10,6,1,CartoonStims/chef_r.jpg,シド,CartoonStims/artist_r.jpg,right,CartoonStims/artist_r.jpg,audio/sido.mp3,残念！ こちらが正しい画像です。,,,,,,,,,,,,,,,,,,,,,,,,,,,,,,,,,,,,,,,,,,,,,,,
,,,,,,,,,R_2t3zeFbaeAHJsoP,2022-09-08_22h42.32.762,jpn_C03,2022.1.2,MacIntel,62.5,,,,,,,,,,,,,,,,,left,1,0.711,,,,,,,,,,,,,,,,,,0,0,0,0,1,,,,,,,,,,,,,,,,,,,,,,,,,,,,,,,,,,,,,,,,,,
,,,,,,,,,R_2t3zeFbaeAHJsoP,2022-09-08_22h42.32.762,jpn_C03,2022.1.2,MacIntel,62.5,,,,,,,,,,,,,,,,,,,,,,,,,0,11,11,5,1,CartoonStims/boxer_r.jpg,ドキ,CartoonStims/artist_r.jpg,left,CartoonStims/boxer_r.jpg,audio/doki.mp3,残念！ こちらが正しい画像です。,,,,,,,,,,,,,,,,,,,,,,,,,,,,,,,,,,,,,,,,,,,,,,,
,,,,,,,,,R_2t3zeFbaeAHJsoP,2022-09-08_22h42.32.762,jpn_C03,2022.1.2,MacIntel,62.5,,,,,,,,,,,,,,,,,,,,,,,,,,,,,,,,,,,,,,,,,,space,15.408,ムク,right,24.54,0,0,0,0,1,,,,,,,,,,,,,,,,,,,,,,,,,,,,,,,,
,,,,,,,,,R_2t3zeFbaeAHJsoP,2022-09-08_22h42.32.762,jpn_C03,2022.1.2,MacIntel,62.5,,,,,,,,,,,,,CartoonStims/cowboy_r.jpg,audio/muku.mp3,,,,,,,,,,,,,,,,,,,,,,,,,,,,,,,,,,,,,,0,0,0,3,1,ムク,,,,,,,,,,,,,,,,,,,,,,,,,,
,,,,,,,,,R_2t3zeFbaeAHJsoP,2022-09-08_22h42.32.762,jpn_C03,2022.1.2,MacIntel,62.5,,,,,,,,,,,,,,,,,,,,,,,,,,,,,,,,,,,,,,,,,,,,ドキ,right,9.768,0,0,0,0,1,,,,,,,,,,,,,,,,,,,,,,,,,,,,,,,,
,,,,,,,,,R_2t3zeFbaeAHJsoP,2022-09-08_22h42.32.762,jpn_C03,2022.1.2,MacIntel,62.5,,,,,,,,,,,,,CartoonStims/boxer_r.jpg,audio/doki.mp3,,,,,,,,,,,,,,,,,,,,,,,,,,,,,,,,,,,,,,0,1,1,5,1,ドキ,,,,,,,,,,,,,,,,,,,,,,,,,,
,,,,,,,,,R_2t3zeFbaeAHJsoP,2022-09-08_22h42.32.762,jpn_C03,2022.1.2,MacIntel,62.5,,,,,,,,,,,,,,,,,,,,,,,,,,,,,,,,,,,,,,,,,,,,ピポ　,right,7.578,0,0,0,0,1,,,,,,,,,,,,,,,,,,,,,,,,,,,,,,,,
,,,,,,,,,R_2t3zeFbaeAHJsoP,2022-09-08_22h42.32.762,jpn_C03,2022.1.2,MacIntel,62.5,,,,,,,,,,,,,CartoonStims/doctor_r.jpg,audio/pipo.mp3,,,,,,,,,,,,,,,,,,,,,,,,,,,,,,,,,,,,,,0,2,2,4,1,ピポ,,,,,,,,,,,,,,,,,,,,,,,,,,
,,,,,,,,,R_2t3zeFbaeAHJsoP,2022-09-08_22h42.32.762,jpn_C03,2022.1.2,MacIntel,62.5,,,,,,,,,,,,,,,,,,,,,,,,,,,,,,,,,,,,,,,,,,,,シド,right,13.24,0,0,0,0,1,,,,,,,,,,,,,,,,,,,,,,,,,,,,,,,,
,,,,,,,,,R_2t3zeFbaeAHJsoP,2022-09-08_22h42.32.762,jpn_C03,2022.1.2,MacIntel,62.5,,,,,,,,,,,,,CartoonStims/artist_r.jpg,audio/sido.mp3,,,,,,,,,,,,,,,,,,,,,,,,,,,,,,,,,,,,,,0,3,3,0,1,シド,,,,,,,,,,,,,,,,,,,,,,,,,,
,,,,,,,,,R_2t3zeFbaeAHJsoP,2022-09-08_22h42.32.762,jpn_C03,2022.1.2,MacIntel,62.5,,,,,,,,,,,,,,,,,,,,,,,,,,,,,,,,,,,,,,,,,,,,ルピ,right,4.604,0,0,0,0,1,,,,,,,,,,,,,,,,,,,,,,,,,,,,,,,,
,,,,,,,,,R_2t3zeFbaeAHJsoP,2022-09-08_22h42.32.762,jpn_C03,2022.1.2,MacIntel,62.5,,,,,,,,,,,,,CartoonStims/burglar_r.jpg,audio/lupin.mp3,,,,,,,,,,,,,,,,,,,,,,,,,,,,,,,,,,,,,,0,4,4,1,1,ルピン,,,,,,,,,,,,,,,,,,,,,,,,,,
,,,,,,,,,R_2t3zeFbaeAHJsoP,2022-09-08_22h42.32.762,jpn_C03,2022.1.2,MacIntel,62.5,,,,,,,,,,,,,,,,,,,,,,,,,,,,,,,,,,,,,,,,,,,,ホレト,right,9.861,0,0,0,0,1,,,,,,,,,,,,,,,,,,,,,,,,,,,,,,,,
,,,,,,,,,R_2t3zeFbaeAHJsoP,2022-09-08_22h42.32.762,jpn_C03,2022.1.2,MacIntel,62.5,,,,,,,,,,,,,CartoonStims/chef_r.jpg,audio/horeto.mp3,,,,,,,,,,,,,,,,,,,,,,,,,,,,,,,,,,,,,,0,5,5,2,1,ホレト,,,,,,,,,,,,,,,,,,,,,,,,,,
,,,,,,,,,R_2t3zeFbaeAHJsoP,2022-09-08_22h42.32.762,jpn_C03,2022.1.2,MacIntel,62.5,,,,,,,,,,,,,,,,,,,,,,,,,,,,,,,,,,,,,,,,,,,,ホレト,right,13.265,0,0,0,0,1,,,,,,,,,,,,,,,,,,,,,,,,,,,,,,,,
,,,,,,,,,R_2t3zeFbaeAHJsoP,2022-09-08_22h42.32.762,jpn_C03,2022.1.2,MacIntel,62.5,,,,,,,,,,,,,CartoonStims/chef_r.jpg,audio/horeto.mp3,,,,,,,,,,,,,,,,,,,,,,,,,,,,,,,,,,,,,,1,0,6,2,1,ホレト,,,,,,,,,,,,,,,,,,,,,,,,,,
,,,,,,,,,R_2t3zeFbaeAHJsoP,2022-09-08_22h42.32.762,jpn_C03,2022.1.2,MacIntel,62.5,,,,,,,,,,,,,,,,,,,,,,,,,,,,,,,,,,,,,,,,,,,,ピポ,right,9.179,0,0,0,0,1,,,,,,,,,,,,,,,,,,,,,,,,,,,,,,,,
,,,,,,,,,R_2t3zeFbaeAHJsoP,2022-09-08_22h42.32.762,jpn_C03,2022.1.2,MacIntel,62.5,,,,,,,,,,,,,CartoonStims/doctor_r.jpg,audio/pipo.mp3,,,,,,,,,,,,,,,,,,,,,,,,,,,,,,,,,,,,,,1,1,7,4,1,ピポ,,,,,,,,,,,,,,,,,,,,,,,,,,
,,,,,,,,,R_2t3zeFbaeAHJsoP,2022-09-08_22h42.32.762,jpn_C03,2022.1.2,MacIntel,62.5,,,,,,,,,,,,,,,,,,,,,,,,,,,,,,,,,,,,,,,,,,,,ムク,right,6.138,0,0,0,0,1,,,,,,,,,,,,,,,,,,,,,,,,,,,,,,,,
,,,,,,,,,R_2t3zeFbaeAHJsoP,2022-09-08_22h42.32.762,jpn_C03,2022.1.2,MacIntel,62.5,,,,,,,,,,,,,CartoonStims/cowboy_r.jpg,audio/muku.mp3,,,,,,,,,,,,,,,,,,,,,,,,,,,,,,,,,,,,,,1,2,8,3,1,ムク,,,,,,,,,,,,,,,,,,,,,,,,,,
,,,,,,,,,R_2t3zeFbaeAHJsoP,2022-09-08_22h42.32.762,jpn_C03,2022.1.2,MacIntel,62.5,,,,,,,,,,,,,,,,,,,,,,,,,,,,,,,,,,,,,,,,,,,,シド,right,8.86,0,0,0,0,1,,,,,,,,,,,,,,,,,,,,,,,,,,,,,,,,
,,,,,,,,,R_2t3zeFbaeAHJsoP,2022-09-08_22h42.32.762,jpn_C03,2022.1.2,MacIntel,62.5,,,,,,,,,,,,,CartoonStims/artist_r.jpg,audio/sido.mp3,,,,,,,,,,,,,,,,,,,,,,,,,,,,,,,,,,,,,,1,3,9,0,1,シド,,,,,,,,,,,,,,,,,,,,,,,,,,
,,,,,,,,,R_2t3zeFbaeAHJsoP,2022-09-08_22h42.32.762,jpn_C03,2022.1.2,MacIntel,62.5,,,,,,,,,,,,,,,,,,,,,,,,,,,,,,,,,,,,,,,,,,,,ルピン,right,6.947,0,0,0,0,1,,,,,,,,,,,,,,,,,,,,,,,,,,,,,,,,
,,,,,,,,,R_2t3zeFbaeAHJsoP,2022-09-08_22h42.32.762,jpn_C03,2022.1.2,MacIntel,62.5,,,,,,,,,,,,,CartoonStims/burglar_r.jpg,audio/lupin.mp3,,,,,,,,,,,,,,,,,,,,,,,,,,,,,,,,,,,,,,1,4,10,1,1,ルピン,,,,,,,,,,,,,,,,,,,,,,,,,,
,,,,,,,,,R_2t3zeFbaeAHJsoP,2022-09-08_22h42.32.762,jpn_C03,2022.1.2,MacIntel,62.5,,,,,,,,,,,,,,,,,,,,,,,,,,,,,,,,,,,,,,,,,,,,ドキ,right,4.011,0,0,0,0,1,,,,,,,,,,,,,,,,,,,,,,,,,,,,,,,,
,,,,,,,,,R_2t3zeFbaeAHJsoP,2022-09-08_22h42.32.762,jpn_C03,2022.1.2,MacIntel,62.5,,,,,,,,,,,,,CartoonStims/boxer_r.jpg,audio/doki.mp3,,,,,,,,,,,,,,,,,,,,,,,,,,,,,,,,,,,,,,1,5,11,5,1,ドキ,,,,,,,,,,,,,,,,,,,,,,,,,,
,,,,,,,,,R_2t3zeFbaeAHJsoP,2022-09-08_22h42.32.762,jpn_C03,2022.1.2,MacIntel,62.5,,,,,,,,,,,,,,,,,,,,,,,,,,,,,,,,,,,,,,,,,,,,,,,,,,,,,,,,,,,space,8.094,0,0,0,0,1,NounExposure.xlsx,"最初のトライアルでは、 画像が表示され、 その画像の下に単語が出てきます。 またこの単語の音も聞くことができます。 この音を大きな声で復唱してください。 そしてこの画像がどのような単語を示しているのか, 考えてみてください。 その後、 続きのボタンを押すと次の単語の学習が始まります。

スペースキーを押して、学習を始めましょう。",3,NounFCT.xlsx,ここから語彙のクイズが始まります。スクリーンに表示される単語に合う画像をキーボードの右と左の矢印キーを使って選択してください。,NounTest.xlsx,2,次に、これまで学習してきたことをアウトプットしていただきます。 表示される画像を描写していると思う単語を、テキストボックスにタイプしてください。,1,"ここまでが最初のトライアルです。ここで休憩をとっても構いません。

休憩が済みましたら、スペースキーを押して続きを始めましょう。",,,,,,,,
,,,,,,,,,R_2t3zeFbaeAHJsoP,2022-09-08_22h42.32.762,jpn_C03,2022.1.2,MacIntel,62.5,space,5.288,space,30.989,0,0,0,27,1,パツ　ルピン　ドキ,,,CartoonStims/burglar_shoot_boxer_r.jpg,audio/patsulupindoki.mp3,,,,,,,,,,,,,,,,,,,,,,,,,,,,,,,,,,,,,,,,,,,,,,,,,,,,,,,,,,,,,,,,,,,,,
,,,,,,,,,R_2t3zeFbaeAHJsoP,2022-09-08_22h42.32.762,jpn_C03,2022.1.2,MacIntel,62.5,,,space,18.696,0,1,1,17,1,トマ　ホレト　ドキ,,,CartoonStims/chef_point_boxer_r.jpg,audio/tomahoretodoki.mp3,,,,,,,,,,,,,,,,,,,,,,,,,,,,,,,,,,,,,,,,,,,,,,,,,,,,,,,,,,,,,,,,,,,,,
,,,,,,,,,R_2t3zeFbaeAHJsoP,2022-09-08_22h42.32.762,jpn_C03,2022.1.2,MacIntel,62.5,,,space,19.985,0,2,2,44,1,プミ　ピポ　ホレト,,,CartoonStims/doctor_punch_chef_r.jpg,audio/pumipipohoreto.mp3,,,,,,,,,,,,,,,,,,,,,,,,,,,,,,,,,,,,,,,,,,,,,,,,,,,,,,,,,,,,,,,,,,,,,
,,,,,,,,,R_2t3zeFbaeAHJsoP,2022-09-08_22h42.32.762,jpn_C03,2022.1.2,MacIntel,62.5,,,space,4.954,0,3,3,34,1,パツ　ドキ　ホレト,,,CartoonStims/boxer_shoot_chef_r.jpg,audio/patsudokihoreto.mp3,,,,,,,,,,,,,,,,,,,,,,,,,,,,,,,,,,,,,,,,,,,,,,,,,,,,,,,,,,,,,,,,,,,,,
,,,,,,,,,R_2t3zeFbaeAHJsoP,2022-09-08_22h42.32.762,jpn_C03,2022.1.2,MacIntel,62.5,,,space,9.238,0,4,4,46,1,プミ　ドキ　ムク,,,CartoonStims/boxer_punch_cowboy_r.jpg,audio/pumidokimuku.mp3,,,,,,,,,,,,,,,,,,,,,,,,,,,,,,,,,,,,,,,,,,,,,,,,,,,,,,,,,,,,,,,,,,,,,
,,,,,,,,,R_2t3zeFbaeAHJsoP,2022-09-08_22h42.32.762,jpn_C03,2022.1.2,MacIntel,62.5,,,space,10.442,0,5,5,15,1,トマ　ルピン　ピポ,,,CartoonStims/burglar_point_doctor_r.jpg,audio/tomalupinpipo.mp3,,,,,,,,,,,,,,,,,,,,,,,,,,,,,,,,,,,,,,,,,,,,,,,,,,,,,,,,,,,,,,,,,,,,,
,,,,,,,,,R_2t3zeFbaeAHJsoP,2022-09-08_22h42.32.762,jpn_C03,2022.1.2,MacIntel,62.5,,,space,17.844,0,6,6,29,1,パツ　ホレト　シド,,,CartoonStims/chef_shoot_artist_r.jpg,audio/patsuhoretosido.mp3,,,,,,,,,,,,,,,,,,,,,,,,,,,,,,,,,,,,,,,,,,,,,,,,,,,,,,,,,,,,,,,,,,,,,
,,,,,,,,,R_2t3zeFbaeAHJsoP,2022-09-08_22h42.32.762,jpn_C03,2022.1.2,MacIntel,62.5,,,space,16.754,0,7,7,37,1,プミ　シド　ドキ,,,CartoonStims/artist_punch_boxer_r.jpg,audio/pumisidodoki.mp3,,,,,,,,,,,,,,,,,,,,,,,,,,,,,,,,,,,,,,,,,,,,,,,,,,,,,,,,,,,,,,,,,,,,,
,,,,,,,,,R_2t3zeFbaeAHJsoP,2022-09-08_22h42.32.762,jpn_C03,2022.1.2,MacIntel,62.5,,,space,5.154,0,8,8,25,1,パツ　シド　ピポ,,,CartoonStims/artist_shoot_doctor_r.jpg,audio/patsusidopipo.mp3,,,,,,,,,,,,,,,,,,,,,,,,,,,,,,,,,,,,,,,,,,,,,,,,,,,,,,,,,,,,,,,,,,,,,
,,,,,,,,,R_2t3zeFbaeAHJsoP,2022-09-08_22h42.32.762,jpn_C03,2022.1.2,MacIntel,62.5,,,space,5,0,9,9,22,1,トマ　ドキ　ルピン,,,CartoonStims/boxer_point_burglar_r.jpg,audio/tomadokilupin.mp3,,,,,,,,,,,,,,,,,,,,,,,,,,,,,,,,,,,,,,,,,,,,,,,,,,,,,,,,,,,,,,,,,,,,,
,,,,,,,,,R_2t3zeFbaeAHJsoP,2022-09-08_22h42.32.762,jpn_C03,2022.1.2,MacIntel,62.5,,,space,23.247,0,10,10,9,1,セル　ピポ　シド,,,CartoonStims/doctor_kick_artist_r.jpg,audio/serupiposido.mp3,,,,,,,,,,,,,,,,,,,,,,,,,,,,,,,,,,,,,,,,,,,,,,,,,,,,,,,,,,,,,,,,,,,,,
,,,,,,,,,R_2t3zeFbaeAHJsoP,2022-09-08_22h42.32.762,jpn_C03,2022.1.2,MacIntel,62.5,,,space,6.137,0,11,11,31,1,パツ　ムク　ルピン,,,CartoonStims/cowboy_shoot_burglar_r.jpg,audio/patsumukulupin.mp3,,,,,,,,,,,,,,,,,,,,,,,,,,,,,,,,,,,,,,,,,,,,,,,,,,,,,,,,,,,,,,,,,,,,,
,,,,,,,,,R_2t3zeFbaeAHJsoP,2022-09-08_22h42.32.762,jpn_C03,2022.1.2,MacIntel,62.5,,,space,11.973,0,12,12,4,1,セル　ホレト　ムク,,,CartoonStims/chef_kick_cowboy_r.jpg,audio/seruhoretomuku.mp3,,,,,,,,,,,,,,,,,,,,,,,,,,,,,,,,,,,,,,,,,,,,,,,,,,,,,,,,,,,,,,,,,,,,,
,,,,,,,,,R_2t3zeFbaeAHJsoP,2022-09-08_22h42.32.762,jpn_C03,2022.1.2,MacIntel,62.5,,,space,6.97,0,13,13,32,1,パツ　ピポ　ルピン,,,CartoonStims/doctor_shoot_burglar_r.jpg,audio/patsupipolupin.mp3,,,,,,,,,,,,,,,,,,,,,,,,,,,,,,,,,,,,,,,,,,,,,,,,,,,,,,,,,,,,,,,,,,,,,
,,,,,,,,,R_2t3zeFbaeAHJsoP,2022-09-08_22h42.32.762,jpn_C03,2022.1.2,MacIntel,62.5,,,space,35.324,0,14,14,41,1,プミ　ホレト　ルピン,,,CartoonStims/chef_punch_burglar_r.jpg,audio/pumihoretolupin.mp3,,,,,,,,,,,,,,,,,,,,,,,,,,,,,,,,,,,,,,,,,,,,,,,,,,,,,,,,,,,,,,,,,,,,,
,,,,,,,,,R_2t3zeFbaeAHJsoP,2022-09-08_22h42.32.762,jpn_C03,2022.1.2,MacIntel,62.5,,,space,6.467,0,15,15,11,1,セル　ドキ　ルピン,,,CartoonStims/boxer_kick_burglar_r.jpg,audio/serudokilupin.mp3,,,,,,,,,,,,,,,,,,,,,,,,,,,,,,,,,,,,,,,,,,,,,,,,,,,,,,,,,,,,,,,,,,,,,
,,,,,,,,,R_2t3zeFbaeAHJsoP,2022-09-08_22h42.32.762,jpn_C03,2022.1.2,MacIntel,62.5,,,space,2.971,0,16,16,35,1,パツ　ドキ　ムク,,,CartoonStims/boxer_shoot_cowboy_r.jpg,audio/patsudokimuku.mp3,,,,,,,,,,,,,,,,,,,,,,,,,,,,,,,,,,,,,,,,,,,,,,,,,,,,,,,,,,,,,,,,,,,,,
,,,,,,,,,R_2t3zeFbaeAHJsoP,2022-09-08_22h42.32.762,jpn_C03,2022.1.2,MacIntel,62.5,,,space,8.703,0,17,17,1,1,セル 　シド 　ホレト,,,CartoonStims/artist_kick_chef_r.jpg,audio/serusidohoreto.mp3,,,,,,,,,,,,,,,,,,,,,,,,,,,,,,,,,,,,,,,,,,,,,,,,,,,,,,,,,,,,,,,,,,,,,
,,,,,,,,,R_2t3zeFbaeAHJsoP,2022-09-08_22h42.32.762,jpn_C03,2022.1.2,MacIntel,62.5,,,space,5.436,0,18,18,23,1,トマ　ドキ　ホレト,,,CartoonStims/boxer_point_chef_r.jpg,audio/tomadokihoreto.mp3,,,,,,,,,,,,,,,,,,,,,,,,,,,,,,,,,,,,,,,,,,,,,,,,,,,,,,,,,,,,,,,,,,,,,
,,,,,,,,,R_2t3zeFbaeAHJsoP,2022-09-08_22h42.32.762,jpn_C03,2022.1.2,MacIntel,62.5,,,space,36.885,0,19,19,42,1,プミ　ムク　ルピン,,,CartoonStims/cowboy_punch_burglar_r.jpg,audio/pumimukulupin.mp3,,,,,,,,,,,,,,,,,,,,,,,,,,,,,,,,,,,,,,,,,,,,,,,,,,,,,,,,,,,,,,,,,,,,,
,,,,,,,,,R_2t3zeFbaeAHJsoP,2022-09-08_22h42.32.762,jpn_C03,2022.1.2,MacIntel,62.5,,,space,8.292,0,20,20,5,1,セル　ホレト　ピポ,,,CartoonStims/chef_kick_doctor_r.jpg,audio/seruhoretopipo.mp3,,,,,,,,,,,,,,,,,,,,,,,,,,,,,,,,,,,,,,,,,,,,,,,,,,,,,,,,,,,,,,,,,,,,,
,,,,,,,,,R_2t3zeFbaeAHJsoP,2022-09-08_22h42.32.762,jpn_C03,2022.1.2,MacIntel,62.5,,,space,1.771,0,21,21,7,1,セル　ムク　ドキ,,,CartoonStims/cowboy_kick_boxer_r.jpg,audio/serumukudoki.mp3,,,,,,,,,,,,,,,,,,,,,,,,,,,,,,,,,,,,,,,,,,,,,,,,,,,,,,,,,,,,,,,,,,,,,
,,,,,,,,,R_2t3zeFbaeAHJsoP,2022-09-08_22h42.32.762,jpn_C03,2022.1.2,MacIntel,62.5,,,space,5.34,0,22,22,10,1,セル　ドキ　シド,,,CartoonStims/boxer_kick_artist_r.jpg,audio/serudokisido.mp3,,,,,,,,,,,,,,,,,,,,,,,,,,,,,,,,,,,,,,,,,,,,,,,,,,,,,,,,,,,,,,,,,,,,,
,,,,,,,,,R_2t3zeFbaeAHJsoP,2022-09-08_22h42.32.762,jpn_C03,2022.1.2,MacIntel,62.5,,,space,7.269,0,23,23,26,1,パツ　ルピン　ピポ,,,CartoonStims/burglar_shoot_doctor_r.jpg,audio/patsulupinpipo.mp3,,,,,,,,,,,,,,,,,,,,,,,,,,,,,,,,,,,,,,,,,,,,,,,,,,,,,,,,,,,,,,,,,,,,,
,,,,,,,,,R_2t3zeFbaeAHJsoP,2022-09-08_22h42.32.762,jpn_C03,2022.1.2,MacIntel,62.5,,,space,5.886,0,24,24,28,1,パツ　ホレト　ドキ,,,CartoonStims/chef_shoot_boxer_r.jpg,audio/patsuhoretodoki.mp3,,,,,,,,,,,,,,,,,,,,,,,,,,,,,,,,,,,,,,,,,,,,,,,,,,,,,,,,,,,,,,,,,,,,,
,,,,,,,,,R_2t3zeFbaeAHJsoP,2022-09-08_22h42.32.762,jpn_C03,2022.1.2,MacIntel,62.5,,,space,13.105,0,25,25,38,1,プミ　ルピン　ドキ,,,CartoonStims/burglar_punch_boxer_r.jpg,audio/pumilupindoki.mp3,,,,,,,,,,,,,,,,,,,,,,,,,,,,,,,,,,,,,,,,,,,,,,,,,,,,,,,,,,,,,,,,,,,,,
,,,,,,,,,R_2t3zeFbaeAHJsoP,2022-09-08_22h42.32.762,jpn_C03,2022.1.2,MacIntel,62.5,,,space,15.467,0,26,26,2,1,セル 　ルピン 　ホレト,,,CartoonStims/burglar_kick_chef_r.jpg,audio/serulupinhoreto.mp3,,,,,,,,,,,,,,,,,,,,,,,,,,,,,,,,,,,,,,,,,,,,,,,,,,,,,,,,,,,,,,,,,,,,,
,,,,,,,,,R_2t3zeFbaeAHJsoP,2022-09-08_22h42.32.762,jpn_C03,2022.1.2,MacIntel,62.5,,,space,7.705,0,27,27,8,1,セル　ピポ　ドキ,,,CartoonStims/doctor_kick_boxer_r.jpg,audio/serupipodoki.mp3,,,,,,,,,,,,,,,,,,,,,,,,,,,,,,,,,,,,,,,,,,,,,,,,,,,,,,,,,,,,,,,,,,,,,
,,,,,,,,,R_2t3zeFbaeAHJsoP,2022-09-08_22h42.32.762,jpn_C03,2022.1.2,MacIntel,62.5,,,space,8.304,0,28,28,3,1,セル　ルピン　ムク,,,CartoonStims/burglar_kick_cowboy_r.jpg,audio/serulupinmuku.mp3,,,,,,,,,,,,,,,,,,,,,,,,,,,,,,,,,,,,,,,,,,,,,,,,,,,,,,,,,,,,,,,,,,,,,
,,,,,,,,,R_2t3zeFbaeAHJsoP,2022-09-08_22h42.32.762,jpn_C03,2022.1.2,MacIntel,62.5,,,space,9.837,0,29,29,39,1,プミ　ルピン　シド,,,CartoonStims/burglar_punch_artist_r.jpg,audio/pumilupinsido.mp3,,,,,,,,,,,,,,,,,,,,,,,,,,,,,,,,,,,,,,,,,,,,,,,,,,,,,,,,,,,,,,,,,,,,,
,,,,,,,,,R_2t3zeFbaeAHJsoP,2022-09-08_22h42.32.762,jpn_C03,2022.1.2,MacIntel,62.5,,,space,25.503,0,30,30,18,1,トマ　ムク　ドキ,,,CartoonStims/cowboy_point_boxer_r.jpg,audio/tomamukudoki.mp3,,,,,,,,,,,,,,,,,,,,,,,,,,,,,,,,,,,,,,,,,,,,,,,,,,,,,,,,,,,,,,,,,,,,,
,,,,,,,,,R_2t3zeFbaeAHJsoP,2022-09-08_22h42.32.762,jpn_C03,2022.1.2,MacIntel,62.5,,,space,4.471,0,31,31,24,1,パツ　シド　ムク,,,CartoonStims/artist_shoot_cowboy_r.jpg,audio/patsusidomuku.mp3,,,,,,,,,,,,,,,,,,,,,,,,,,,,,,,,,,,,,,,,,,,,,,,,,,,,,,,,,,,,,,,,,,,,,
,,,,,,,,,R_2t3zeFbaeAHJsoP,2022-09-08_22h42.32.762,jpn_C03,2022.1.2,MacIntel,62.5,,,space,8.034,0,32,32,30,1,パツ　ムク　シド,,,CartoonStims/cowboy_shoot_artist_r.jpg,audio/patsumukusido.mp3,,,,,,,,,,,,,,,,,,,,,,,,,,,,,,,,,,,,,,,,,,,,,,,,,,,,,,,,,,,,,,,,,,,,,
,,,,,,,,,R_2t3zeFbaeAHJsoP,2022-09-08_22h42.32.762,jpn_C03,2022.1.2,MacIntel,62.5,,,space,18.489,0,33,33,19,1,トマ　ムク　シド,,,CartoonStims/cowboy_point_artist_r.jpg,audio/tomamukusido.mp3,,,,,,,,,,,,,,,,,,,,,,,,,,,,,,,,,,,,,,,,,,,,,,,,,,,,,,,,,,,,,,,,,,,,,
,,,,,,,,,R_2t3zeFbaeAHJsoP,2022-09-08_22h42.32.762,jpn_C03,2022.1.2,MacIntel,62.5,,,space,4.519,0,34,34,14,1,トマ　ルピン　ムク,,,CartoonStims/burglar_point_cowboy_r.jpg,audio/tomalupinmuku.mp3,,,,,,,,,,,,,,,,,,,,,,,,,,,,,,,,,,,,,,,,,,,,,,,,,,,,,,,,,,,,,,,,,,,,,
,,,,,,,,,R_2t3zeFbaeAHJsoP,2022-09-08_22h42.32.762,jpn_C03,2022.1.2,MacIntel,62.5,,,space,33.069,0,35,35,36,1,プミ　シド　ピポ,,,CartoonStims/artist_punch_doctor_r.jpg,audio/pumisidopipo.mp3,,,,,,,,,,,,,,,,,,,,,,,,,,,,,,,,,,,,,,,,,,,,,,,,,,,,,,,,,,,,,,,,,,,,,
,,,,,,,,,R_2t3zeFbaeAHJsoP,2022-09-08_22h42.32.762,jpn_C03,2022.1.2,MacIntel,62.5,,,space,4.654,0,36,36,43,1,プミ　ムク　ホレト,,,CartoonStims/cowboy_punch_chef_r.jpg,audio/pumimukuhoreto.mp3,,,,,,,,,,,,,,,,,,,,,,,,,,,,,,,,,,,,,,,,,,,,,,,,,,,,,,,,,,,,,,,,,,,,,
,,,,,,,,,R_2t3zeFbaeAHJsoP,2022-09-08_22h42.32.762,jpn_C03,2022.1.2,MacIntel,62.5,,,space,4.819,0,37,37,6,1,セル　ムク　ピポ,,,CartoonStims/cowboy_kick_doctor_r.jpg,audio/serumukupipo.mp3,,,,,,,,,,,,,,,,,,,,,,,,,,,,,,,,,,,,,,,,,,,,,,,,,,,,,,,,,,,,,,,,,,,,,
,,,,,,,,,R_2t3zeFbaeAHJsoP,2022-09-08_22h42.32.762,jpn_C03,2022.1.2,MacIntel,62.5,,,space,6.627,0,38,38,47,1,プミ　ドキ　ピポ,,,CartoonStims/boxer_punch_doctor_r.jpg,audio/pumidokipipo.mp3,,,,,,,,,,,,,,,,,,,,,,,,,,,,,,,,,,,,,,,,,,,,,,,,,,,,,,,,,,,,,,,,,,,,,
,,,,,,,,,R_2t3zeFbaeAHJsoP,2022-09-08_22h42.32.762,jpn_C03,2022.1.2,MacIntel,62.5,,,space,6.908,0,39,39,20,1,トマ　ピポ　シド,,,CartoonStims/doctor_point_artist_r.jpg,audio/tomapiposido.mp3,,,,,,,,,,,,,,,,,,,,,,,,,,,,,,,,,,,,,,,,,,,,,,,,,,,,,,,,,,,,,,,,,,,,,
,,,,,,,,,R_2t3zeFbaeAHJsoP,2022-09-08_22h42.32.762,jpn_C03,2022.1.2,MacIntel,62.5,,,space,4.358,0,40,40,13,1,トマ　シド　ムク,,,CartoonStims/artist_point_cowboy_r.jpg,audio/tomasidomuku.mp3,,,,,,,,,,,,,,,,,,,,,,,,,,,,,,,,,,,,,,,,,,,,,,,,,,,,,,,,,,,,,,,,,,,,,
,,,,,,,,,R_2t3zeFbaeAHJsoP,2022-09-08_22h42.32.762,jpn_C03,2022.1.2,MacIntel,62.5,,,space,24.571,0,41,41,40,1,プミ　ホレト　シド,,,CartoonStims/chef_punch_artist_r.jpg,audio/pumihoretosido.mp3,,,,,,,,,,,,,,,,,,,,,,,,,,,,,,,,,,,,,,,,,,,,,,,,,,,,,,,,,,,,,,,,,,,,,
,,,,,,,,,R_2t3zeFbaeAHJsoP,2022-09-08_22h42.32.762,jpn_C03,2022.1.2,MacIntel,62.5,,,space,21.558,0,42,42,12,1,トマ　シド　ホレト,,,CartoonStims/artist_point_chef_r.jpg,audio/tomasidohoreto.mp3,,,,,,,,,,,,,,,,,,,,,,,,,,,,,,,,,,,,,,,,,,,,,,,,,,,,,,,,,,,,,,,,,,,,,
,,,,,,,,,R_2t3zeFbaeAHJsoP,2022-09-08_22h42.32.762,jpn_C03,2022.1.2,MacIntel,62.5,,,space,3.771,0,43,43,45,1,プミ　ピポ　ムク,,,CartoonStims/doctor_punch_cowboy_r.jpg,audio/pumipipomuku.mp3,,,,,,,,,,,,,,,,,,,,,,,,,,,,,,,,,,,,,,,,,,,,,,,,,,,,,,,,,,,,,,,,,,,,,
,,,,,,,,,R_2t3zeFbaeAHJsoP,2022-09-08_22h42.32.762,jpn_C03,2022.1.2,MacIntel,62.5,,,space,15.839,0,44,44,16,1,トマ　ホレト　ピポ,,,CartoonStims/chef_point_doctor_r.jpg,audio/tomahoretopipo.mp3,,,,,,,,,,,,,,,,,,,,,,,,,,,,,,,,,,,,,,,,,,,,,,,,,,,,,,,,,,,,,,,,,,,,,
,,,,,,,,,R_2t3zeFbaeAHJsoP,2022-09-08_22h42.32.762,jpn_C03,2022.1.2,MacIntel,62.5,,,space,4.701,0,45,45,21,1,トマ　ピポ　ルピン,,,CartoonStims/doctor_point_burglar_r.jpg,audio/tomapipolupin.mp3,,,,,,,,,,,,,,,,,,,,,,,,,,,,,,,,,,,,,,,,,,,,,,,,,,,,,,,,,,,,,,,,,,,,,
,,,,,,,,,R_2t3zeFbaeAHJsoP,2022-09-08_22h42.32.762,jpn_C03,2022.1.2,MacIntel,62.5,,,space,1.652,0,46,46,33,1,パツ　ピポ　ホレト,,,CartoonStims/doctor_shoot_chef_r.jpg,audio/patsupipohoreto.mp3,,,,,,,,,,,,,,,,,,,,,,,,,,,,,,,,,,,,,,,,,,,,,,,,,,,,,,,,,,,,,,,,,,,,,
,,,,,,,,,R_2t3zeFbaeAHJsoP,2022-09-08_22h42.32.762,jpn_C03,2022.1.2,MacIntel,62.5,,,space,5.505,0,47,47,0,1,セル　シド　ルピン,,,CartoonStims/artist_kick_burglar_r.jpg,audio/serusidolupin.mp3,,,,,,,,,,,,,,,,,,,,,,,,,,,,,,,,,,,,,,,,,,,,,,,,,,,,,,,,,,,,,,,,,,,,,
,,,,,,,,,R_2t3zeFbaeAHJsoP,2022-09-08_22h42.32.762,jpn_C03,2022.1.2,MacIntel,62.5,,,,,,,,,,,,,,,space,3.497,left,1,12.304,,,,,,,,,,,,,,,,,,0,0,0,0,1,,,,,,,,,,,,,,,,,,,,,,,,,,,,,,,,,,,,,,,,,,
,,,,,,,,,R_2t3zeFbaeAHJsoP,2022-09-08_22h42.32.762,jpn_C03,2022.1.2,MacIntel,62.5,,,,,,,,,,,,,,,,,,,,,,,,,0,0,0,8,1,CartoonStims/doctor_point_cowboy_r.jpg,トマ　ピポ　ムク,CartoonStims/boxer_point_cowboy_r.jpg,left,CartoonStims/doctor_point_cowboy_r.jpg,audio/tomapipomuku.mp3,残念！ こちらが正しい画像です。,,,,,,,,,,,,,,,,,,,,,,,,,,,,,,,,,,,,,,,,,,,,,,,
,,,,,,,,,R_2t3zeFbaeAHJsoP,2022-09-08_22h42.32.762,jpn_C03,2022.1.2,MacIntel,62.5,,,,,,,,,,,,,,,,,left,1,11.587,,,,,,,,,,,,,,,,,,0,0,0,0,1,,,,,,,,,,,,,,,,,,,,,,,,,,,,,,,,,,,,,,,,,,
,,,,,,,,,R_2t3zeFbaeAHJsoP,2022-09-08_22h42.32.762,jpn_C03,2022.1.2,MacIntel,62.5,,,,,,,,,,,,,,,,,,,,,,,,,0,1,1,6,1,CartoonStims/doctor_punch_boxer_r.jpg,プミ　ピポ　ドキ,CartoonStims/doctor_shoot_boxer_r.jpg,left,CartoonStims/doctor_punch_boxer_r.jpg,audio/pumipipodoki.mp3,残念！ こちらが正しい画像です。,,,,,,,,,,,,,,,,,,,,,,,,,,,,,,,,,,,,,,,,,,,,,,,
,,,,,,,,,R_2t3zeFbaeAHJsoP,2022-09-08_22h42.32.762,jpn_C03,2022.1.2,MacIntel,62.5,,,,,,,,,,,,,,,,,left,1,5.309,,,,,,,,,,,,,,,,,,0,0,0,0,1,,,,,,,,,,,,,,,,,,,,,,,,,,,,,,,,,,,,,,,,,,
,,,,,,,,,R_2t3zeFbaeAHJsoP,2022-09-08_22h42.32.762,jpn_C03,2022.1.2,MacIntel,62.5,,,,,,,,,,,,,,,,,,,,,,,,,0,2,2,4,1,CartoonStims/burglar_point_boxer_r.jpg,トマ　ルピン　ドキ,CartoonStims/burglar_kick_boxer_r.jpg,left,CartoonStims/burglar_point_boxer_r.jpg,audio/tomalupindoki.mp3,残念！ こちらが正しい画像です。,,,,,,,,,,,,,,,,,,,,,,,,,,,,,,,,,,,,,,,,,,,,,,,
,,,,,,,,,R_2t3zeFbaeAHJsoP,2022-09-08_22h42.32.762,jpn_C03,2022.1.2,MacIntel,62.5,,,,,,,,,,,,,,,,,right,1,3.934,0,0,0,0,1,,,,,,,,,,,,,,,,,,,,,,,,,,,,,,,,,,,,,,,,,,,,,,,,,,,,,,,,,,,
,,,,,,,,,R_2t3zeFbaeAHJsoP,2022-09-08_22h42.32.762,jpn_C03,2022.1.2,MacIntel,62.5,,,,,,,,,,,,,,,,,,,,,,,,,0,3,3,5,1,CartoonStims/cowboy_point_chef_r.jpg,パツ　ムク　ホレト,CartoonStims/cowboy_shoot_chef_r.jpg,right,CartoonStims/cowboy_shoot_chef_r.jpg,audio/patsumukuhoreto.mp3,残念！ こちらが正しい画像です。,,,,,,,,,,,,,,,,,,,,,,,,,,,,,,,,,,,,,,,,,,,,,,,
,,,,,,,,,R_2t3zeFbaeAHJsoP,2022-09-08_22h42.32.762,jpn_C03,2022.1.2,MacIntel,62.5,,,,,,,,,,,,,,,,,left,1,4.117,,,,,,,,,,,,,,,,,,0,0,0,0,1,,,,,,,,,,,,,,,,,,,,,,,,,,,,,,,,,,,,,,,,,,
,,,,,,,,,R_2t3zeFbaeAHJsoP,2022-09-08_22h42.32.762,jpn_C03,2022.1.2,MacIntel,62.5,,,,,,,,,,,,,,,,,,,,,,,,,0,4,4,10,1,CartoonStims/artist_shoot_burglar_r.jpg,パツ　シド　ルピン,CartoonStims/chef_shoot_burglar_r.jpg,left,CartoonStims/artist_shoot_burglar_r.jpg,audio/patsusidolupin.mp3,残念！ こちらが正しい画像です。,,,,,,,,,,,,,,,,,,,,,,,,,,,,,,,,,,,,,,,,,,,,,,,
,,,,,,,,,R_2t3zeFbaeAHJsoP,2022-09-08_22h42.32.762,jpn_C03,2022.1.2,MacIntel,62.5,,,,,,,,,,,,,,,,,left,1,6.602,,,,,,,,,,,,,,,,,,0,0,0,0,1,,,,,,,,,,,,,,,,,,,,,,,,,,,,,,,,,,,,,,,,,,
,,,,,,,,,R_2t3zeFbaeAHJsoP,2022-09-08_22h42.32.762,jpn_C03,2022.1.2,MacIntel,62.5,,,,,,,,,,,,,,,,,,,,,,,,,0,5,5,2,1,CartoonStims/boxer_shoot_doctor_r.jpg,パツ　ドキ　ピポ,CartoonStims/boxer_shoot_artist_r.jpg,left,CartoonStims/boxer_shoot_doctor_r.jpg,audio/patsudokipipo.mp3,残念！ こちらが正しい画像です。,,,,,,,,,,,,,,,,,,,,,,,,,,,,,,,,,,,,,,,,,,,,,,,
,,,,,,,,,R_2t3zeFbaeAHJsoP,2022-09-08_22h42.32.762,jpn_C03,2022.1.2,MacIntel,62.5,,,,,,,,,,,,,,,,,right,1,6.611,0,0,0,0,1,,,,,,,,,,,,,,,,,,,,,,,,,,,,,,,,,,,,,,,,,,,,,,,,,,,,,,,,,,,
,,,,,,,,,R_2t3zeFbaeAHJsoP,2022-09-08_22h42.32.762,jpn_C03,2022.1.2,MacIntel,62.5,,,,,,,,,,,,,,,,,,,,,,,,,0,6,6,11,1,CartoonStims/burglar_punch_cowboy_r.jpg,プミ　ホレト　ムク,CartoonStims/chef_punch_cowboy_r.jpg,right,CartoonStims/chef_punch_cowboy_r.jpg,audio/pumihoretomuku.mp3,残念！ こちらが正しい画像です。,,,,,,,,,,,,,,,,,,,,,,,,,,,,,,,,,,,,,,,,,,,,,,,
,,,,,,,,,R_2t3zeFbaeAHJsoP,2022-09-08_22h42.32.762,jpn_C03,2022.1.2,MacIntel,62.5,,,,,,,,,,,,,,,,,right,1,35.654,0,0,0,0,1,,,,,,,,,,,,,,,,,,,,,,,,,,,,,,,,,,,,,,,,,,,,,,,,,,,,,,,,,,,
,,,,,,,,,R_2t3zeFbaeAHJsoP,2022-09-08_22h42.32.762,jpn_C03,2022.1.2,MacIntel,62.5,,,,,,,,,,,,,,,,,,,,,,,,,0,7,7,9,1,CartoonStims/chef_kick_artist_r.jpg,セル　ムク　シド,CartoonStims/cowboy_kick_artist_r.jpg,right,CartoonStims/cowboy_kick_artist_r.jpg,audio/serumukusido.mp3,残念！ こちらが正しい画像です。,,,,,,,,,,,,,,,,,,,,,,,,,,,,,,,,,,,,,,,,,,,,,,,
,,,,,,,,,R_2t3zeFbaeAHJsoP,2022-09-08_22h42.32.762,jpn_C03,2022.1.2,MacIntel,62.5,,,,,,,,,,,,,,,,,left,1,5.061,,,,,,,,,,,,,,,,,,0,0,0,0,1,,,,,,,,,,,,,,,,,,,,,,,,,,,,,,,,,,,,,,,,,,
,,,,,,,,,R_2t3zeFbaeAHJsoP,2022-09-08_22h42.32.762,jpn_C03,2022.1.2,MacIntel,62.5,,,,,,,,,,,,,,,,,,,,,,,,,0,8,8,0,1,CartoonStims/doctor_kick_burglar_r.jpg,セル　ピポ　ルピン,CartoonStims/doctor_kick_chef_r.jpg,left,CartoonStims/doctor_kick_burglar_r.jpg,audio/serupipolupin.mp3,残念！ こちらが正しい画像です。,,,,,,,,,,,,,,,,,,,,,,,,,,,,,,,,,,,,,,,,,,,,,,,
,,,,,,,,,R_2t3zeFbaeAHJsoP,2022-09-08_22h42.32.762,jpn_C03,2022.1.2,MacIntel,62.5,,,,,,,,,,,,,,,,,right,1,16.436,0,0,0,0,1,,,,,,,,,,,,,,,,,,,,,,,,,,,,,,,,,,,,,,,,,,,,,,,,,,,,,,,,,,,
,,,,,,,,,R_2t3zeFbaeAHJsoP,2022-09-08_22h42.32.762,jpn_C03,2022.1.2,MacIntel,62.5,,,,,,,,,,,,,,,,,,,,,,,,,0,9,9,1,1,CartoonStims/chef_point_burglar_r.jpg,トマ　ホレト　シド,CartoonStims/chef_point_artist_r.jpg,right,CartoonStims/chef_point_artist_r.jpg,audio/tomahoretosido.mp3,残念！ こちらが正しい画像です。,,,,,,,,,,,,,,,,,,,,,,,,,,,,,,,,,,,,,,,,,,,,,,,
,,,,,,,,,R_2t3zeFbaeAHJsoP,2022-09-08_22h42.32.762,jpn_C03,2022.1.2,MacIntel,62.5,,,,,,,,,,,,,,,,,right,1,4.287,0,0,0,0,1,,,,,,,,,,,,,,,,,,,,,,,,,,,,,,,,,,,,,,,,,,,,,,,,,,,,,,,,,,,
,,,,,,,,,R_2t3zeFbaeAHJsoP,2022-09-08_22h42.32.762,jpn_C03,2022.1.2,MacIntel,62.5,,,,,,,,,,,,,,,,,,,,,,,,,0,10,10,7,1,CartoonStims/artist_punch_cowboy_r.jpg,セル　シド　ムク,CartoonStims/artist_kick_cowboy_r.jpg,right,CartoonStims/artist_kick_cowboy_r.jpg,audio/serusidomuku.mp3,残念！ こちらが正しい画像です。,,,,,,,,,,,,,,,,,,,,,,,,,,,,,,,,,,,,,,,,,,,,,,,
,,,,,,,,,R_2t3zeFbaeAHJsoP,2022-09-08_22h42.32.762,jpn_C03,2022.1.2,MacIntel,62.5,,,,,,,,,,,,,,,,,right,1,3.04,0,0,0,0,1,,,,,,,,,,,,,,,,,,,,,,,,,,,,,,,,,,,,,,,,,,,,,,,,,,,,,,,,,,,
,,,,,,,,,R_2t3zeFbaeAHJsoP,2022-09-08_22h42.32.762,jpn_C03,2022.1.2,MacIntel,62.5,,,,,,,,,,,,,,,,,,,,,,,,,0,11,11,3,1,CartoonStims/cowboy_punch_doctor_r.jpg,プミ　ムク　ドキ,CartoonStims/cowboy_punch_boxer_r.jpg,right,CartoonStims/cowboy_punch_boxer_r.jpg,audio/pumimukudoki.mp3,残念！ こちらが正しい画像です。,,,,,,,,,,,,,,,,,,,,,,,,,,,,,,,,,,,,,,,,,,,,,,,
,,,,,,,,,R_2t3zeFbaeAHJsoP,2022-09-08_22h42.32.762,jpn_C03,2022.1.2,MacIntel,62.5,,,,,,,,,,,,,,,,,,,,,,,,,,,,,,,,,,,,,,,,,,space,13.638,セル　ムク　ルピン,right,22.839,0,0,0,0,1,,,,,,,,,,,,,,,,,,,,,,,,,,,,,,,,
,,,,,,,,,R_2t3zeFbaeAHJsoP,2022-09-08_22h42.32.762,jpn_C03,2022.1.2,MacIntel,62.5,,,,,,,,,,,,,CartoonStims/cowboy_kick_burglar_r.jpg,audio/serumukulupin.mp3,,,,,,,,,,,,,,,,,,,,,,,,,,,,,,,,,,,,,,0,0,0,0,1,セル　ムク　ルピン,,,,,,,,,,,,,,,,,,,,,,,,,,
,,,,,,,,,R_2t3zeFbaeAHJsoP,2022-09-08_22h42.32.762,jpn_C03,2022.1.2,MacIntel,62.5,,,,,,,,,,,,,,,,,,,,,,,,,,,,,,,,,,,,,,,,,,,,パツ　ホレト　ムク,right,35.729,0,0,0,0,1,,,,,,,,,,,,,,,,,,,,,,,,,,,,,,,,
,,,,,,,,,R_2t3zeFbaeAHJsoP,2022-09-08_22h42.32.762,jpn_C03,2022.1.2,MacIntel,62.5,,,,,,,,,,,,,CartoonStims/chef_shoot_cowboy_r.jpg,audio/patsuhoretomuku.mp3,,,,,,,,,,,,,,,,,,,,,,,,,,,,,,,,,,,,,,0,1,1,7,1,パツ　ホレト　ムク,,,,,,,,,,,,,,,,,,,,,,,,,,
,,,,,,,,,R_2t3zeFbaeAHJsoP,2022-09-08_22h42.32.762,jpn_C03,2022.1.2,MacIntel,62.5,,,,,,,,,,,,,,,,,,,,,,,,,,,,,,,,,,,,,,,,,,,,トマ　シド　ドキ,right,28.311,0,0,0,0,1,,,,,,,,,,,,,,,,,,,,,,,,,,,,,,,,
,,,,,,,,,R_2t3zeFbaeAHJsoP,2022-09-08_22h42.32.762,jpn_C03,2022.1.2,MacIntel,62.5,,,,,,,,,,,,,CartoonStims/artist_point_boxer_r.jpg,audio/tomasidodoki.mp3,,,,,,,,,,,,,,,,,,,,,,,,,,,,,,,,,,,,,,0,2,2,3,1,トマ　シド　ドキ,,,,,,,,,,,,,,,,,,,,,,,,,,
,,,,,,,,,R_2t3zeFbaeAHJsoP,2022-09-08_22h42.32.762,jpn_C03,2022.1.2,MacIntel,62.5,,,,,,,,,,,,,,,,,,,,,,,,,,,,,,,,,,,,,,,,,,,,パツ　ムク　ピポ,right,20.03,0,0,0,0,1,,,,,,,,,,,,,,,,,,,,,,,,,,,,,,,,
,,,,,,,,,R_2t3zeFbaeAHJsoP,2022-09-08_22h42.32.762,jpn_C03,2022.1.2,MacIntel,62.5,,,,,,,,,,,,,CartoonStims/cowboy_shoot_doctor_r.jpg,audio/patsumukupipo.mp3,,,,,,,,,,,,,,,,,,,,,,,,,,,,,,,,,,,,,,0,3,3,8,1,パツ　ムク　ピポ,,,,,,,,,,,,,,,,,,,,,,,,,,
,,,,,,,,,R_2t3zeFbaeAHJsoP,2022-09-08_22h42.32.762,jpn_C03,2022.1.2,MacIntel,62.5,,,,,,,,,,,,,,,,,,,,,,,,,,,,,,,,,,,,,,,,,,,,パツ　ルピン　ホレト,right,26.076,0,0,0,0,1,,,,,,,,,,,,,,,,,,,,,,,,,,,,,,,,
,,,,,,,,,R_2t3zeFbaeAHJsoP,2022-09-08_22h42.32.762,jpn_C03,2022.1.2,MacIntel,62.5,,,,,,,,,,,,,CartoonStims/burglar_shoot_chef_r.jpg,audio/patsulupinhoreto.mp3,,,,,,,,,,,,,,,,,,,,,,,,,,,,,,,,,,,,,,0,4,4,6,1,パツ　ルピン　ホレト,,,,,,,,,,,,,,,,,,,,,,,,,,
,,,,,,,,,R_2t3zeFbaeAHJsoP,2022-09-08_22h42.32.762,jpn_C03,2022.1.2,MacIntel,62.5,,,,,,,,,,,,,,,,,,,,,,,,,,,,,,,,,,,,,,,,,,,,プミ　ピポ　ドキ,right,21.636,0,0,0,0,1,,,,,,,,,,,,,,,,,,,,,,,,,,,,,,,,
,,,,,,,,,R_2t3zeFbaeAHJsoP,2022-09-08_22h42.32.762,jpn_C03,2022.1.2,MacIntel,62.5,,,,,,,,,,,,,CartoonStims/doctor_punch_boxer_r.jpg,audio/pumipipodoki.mp3,,,,,,,,,,,,,,,,,,,,,,,,,,,,,,,,,,,,,,0,5,5,10,1,プミ　ピポ　ドキ,,,,,,,,,,,,,,,,,,,,,,,,,,
,,,,,,,,,R_2t3zeFbaeAHJsoP,2022-09-08_22h42.32.762,jpn_C03,2022.1.2,MacIntel,62.5,,,,,,,,,,,,,,,,,,,,,,,,,,,,,,,,,,,,,,,,,,,,トマ　ホレト　ルピン,right,18.097,0,0,0,0,1,,,,,,,,,,,,,,,,,,,,,,,,,,,,,,,,
,,,,,,,,,R_2t3zeFbaeAHJsoP,2022-09-08_22h42.32.762,jpn_C03,2022.1.2,MacIntel,62.5,,,,,,,,,,,,,CartoonStims/chef_point_burglar_r.jpg,audio/tomahoretolupin.mp3,,,,,,,,,,,,,,,,,,,,,,,,,,,,,,,,,,,,,,0,6,6,5,1,トマ　ホレト　ルピン,,,,,,,,,,,,,,,,,,,,,,,,,,
,,,,,,,,,R_2t3zeFbaeAHJsoP,2022-09-08_22h42.32.762,jpn_C03,2022.1.2,MacIntel,62.5,,,,,,,,,,,,,,,,,,,,,,,,,,,,,,,,,,,,,,,,,,,,セル　ピポ　ホレト,right,19.312,0,0,0,0,1,,,,,,,,,,,,,,,,,,,,,,,,,,,,,,,,
,,,,,,,,,R_2t3zeFbaeAHJsoP,2022-09-08_22h42.32.762,jpn_C03,2022.1.2,MacIntel,62.5,,,,,,,,,,,,,CartoonStims/doctor_kick_chef_r.jpg,audio/serupipohoreto.mp3,,,,,,,,,,,,,,,,,,,,,,,,,,,,,,,,,,,,,,0,7,7,1,1,セル　ピポ　ホレト,,,,,,,,,,,,,,,,,,,,,,,,,,
,,,,,,,,,R_2t3zeFbaeAHJsoP,2022-09-08_22h42.32.762,jpn_C03,2022.1.2,MacIntel,62.5,,,,,,,,,,,,,,,,,,,,,,,,,,,,,,,,,,,,,,,,,,,,トマ　ルピン　シド,right,15.344,0,0,0,0,1,,,,,,,,,,,,,,,,,,,,,,,,,,,,,,,,
,,,,,,,,,R_2t3zeFbaeAHJsoP,2022-09-08_22h42.32.762,jpn_C03,2022.1.2,MacIntel,62.5,,,,,,,,,,,,,CartoonStims/burglar_point_artist_r.jpg,audio/tomalupinsido.mp3,,,,,,,,,,,,,,,,,,,,,,,,,,,,,,,,,,,,,,0,8,8,4,1,トマ　ルピン　シド,,,,,,,,,,,,,,,,,,,,,,,,,,
,,,,,,,,,R_2t3zeFbaeAHJsoP,2022-09-08_22h42.32.762,jpn_C03,2022.1.2,MacIntel,62.5,,,,,,,,,,,,,,,,,,,,,,,,,,,,,,,,,,,,,,,,,,,,セル　ドキ　ムク,right,20.961,0,0,0,0,1,,,,,,,,,,,,,,,,,,,,,,,,,,,,,,,,
,,,,,,,,,R_2t3zeFbaeAHJsoP,2022-09-08_22h42.32.762,jpn_C03,2022.1.2,MacIntel,62.5,,,,,,,,,,,,,CartoonStims/boxer_kick_cowboy_r.jpg,audio/serudokimuku.mp3,,,,,,,,,,,,,,,,,,,,,,,,,,,,,,,,,,,,,,0,9,9,2,1,セル　ドキ　ムク,,,,,,,,,,,,,,,,,,,,,,,,,,
,,,,,,,,,R_2t3zeFbaeAHJsoP,2022-09-08_22h42.32.762,jpn_C03,2022.1.2,MacIntel,62.5,,,,,,,,,,,,,,,,,,,,,,,,,,,,,,,,,,,,,,,,,,,,プミ　シド　ルピン,right,18.164,0,0,0,0,1,,,,,,,,,,,,,,,,,,,,,,,,,,,,,,,,
,,,,,,,,,R_2t3zeFbaeAHJsoP,2022-09-08_22h42.32.762,jpn_C03,2022.1.2,MacIntel,62.5,,,,,,,,,,,,,CartoonStims/artist_punch_burglar_r.jpg,audio/pumisidolupin.mp3,,,,,,,,,,,,,,,,,,,,,,,,,,,,,,,,,,,,,,0,10,10,9,1,プミ　シド　ルピン,,,,,,,,,,,,,,,,,,,,,,,,,,
,,,,,,,,,R_2t3zeFbaeAHJsoP,2022-09-08_22h42.32.762,jpn_C03,2022.1.2,MacIntel,62.5,,,,,,,,,,,,,,,,,,,,,,,,,,,,,,,,,,,,,,,,,,,,プミ　ドキ　シド,right,36.532,0,0,0,0,1,,,,,,,,,,,,,,,,,,,,,,,,,,,,,,,,
,,,,,,,,,R_2t3zeFbaeAHJsoP,2022-09-08_22h42.32.762,jpn_C03,2022.1.2,MacIntel,62.5,,,,,,,,,,,,,CartoonStims/boxer_punch_artist_r.jpg,audio/pumidokisido.mp3,,,,,,,,,,,,,,,,,,,,,,,,,,,,,,,,,,,,,,0,11,11,11,1,プミ　ドキ　シド,,,,,,,,,,,,,,,,,,,,,,,,,,
,,,,,,,,,R_2t3zeFbaeAHJsoP,2022-09-08_22h42.32.762,jpn_C03,2022.1.2,MacIntel,62.5,,,,,,,,,,,,,,,,,,,,,,,,,,,,,,,,,,,,,,,,,,,,,,,,,,,,,,,,,,,space,5.193,0,1,1,1,1,AffExposure.xlsx,"第二のトライアルの学習では、この言語で書かれた文を見ていただきます。引き続き注意して、 聞こえた音を復唱してください。


スペースキーを押してください。",1,AffFCT.xlsx,ここからクイズが始まります。 スクリーンに表示されるテキストに合う画像を選んでください。,AffTest.xlsx,1,次にここまで学んだことをアウトプットしていただきます。 表示される画像を描写していると思う単語を、テキストボックスにタイプしてください。 答えを提出したあとに正しい正解が少しの間画面に写ります。,1,"これで第二のトライアルが終了しました。 ここで休憩をとっていただいても構いません。

休憩が終わりましたら、 スペースキーを押して続きの学習を行いましょう。",,,,,,,,
,,,,,,,,,R_2t3zeFbaeAHJsoP,2022-09-08_22h42.32.762,jpn_C03,2022.1.2,MacIntel,62.5,space,5.285,space,57.151,0,0,0,3,1,セル　ピク　ルピン　ムク,,,CartoonStims/burglar_kick_cowboy_r_no.jpg,audio/serupikulupinmuku.mp3,,,,,,,,,,,,,,,,,,,,,,,,,,,,,,,,,,,,,,,,,,,,,,,,,,,,,,,,,,,,,,,,,,,,,
,,,,,,,,,R_2t3zeFbaeAHJsoP,2022-09-08_22h42.32.762,jpn_C03,2022.1.2,MacIntel,62.5,,,space,9.26,0,1,1,43,1,プミ　ピク　ムク　ホレト,,,CartoonStims/cowboy_punch_chef_r_no.jpg,audio/pumipikumukuhoreto.mp3,,,,,,,,,,,,,,,,,,,,,,,,,,,,,,,,,,,,,,,,,,,,,,,,,,,,,,,,,,,,,,,,,,,,,
,,,,,,,,,R_2t3zeFbaeAHJsoP,2022-09-08_22h42.32.762,jpn_C03,2022.1.2,MacIntel,62.5,,,space,3.804,0,2,2,28,1,パツ　ピク　ホレト　ドキ,,,CartoonStims/chef_shoot_boxer_r_no.jpg,audio/patsupikuhoretodoki.mp3,,,,,,,,,,,,,,,,,,,,,,,,,,,,,,,,,,,,,,,,,,,,,,,,,,,,,,,,,,,,,,,,,,,,,
,,,,,,,,,R_2t3zeFbaeAHJsoP,2022-09-08_22h42.32.762,jpn_C03,2022.1.2,MacIntel,62.5,,,space,10.774,0,3,3,26,1,パツ　ピク　ルピン　ピポ,,,CartoonStims/burglar_shoot_doctor_r_no.jpg,audio/patsupikulupinpipo.mp3,,,,,,,,,,,,,,,,,,,,,,,,,,,,,,,,,,,,,,,,,,,,,,,,,,,,,,,,,,,,,,,,,,,,,
,,,,,,,,,R_2t3zeFbaeAHJsoP,2022-09-08_22h42.32.762,jpn_C03,2022.1.2,MacIntel,62.5,,,space,8.195,0,4,4,30,1,パツ　ピク　ムク　シド,,,CartoonStims/cowboy_shoot_artist_r_no.jpg,audio/patsupikumukusido.mp3,,,,,,,,,,,,,,,,,,,,,,,,,,,,,,,,,,,,,,,,,,,,,,,,,,,,,,,,,,,,,,,,,,,,,
,,,,,,,,,R_2t3zeFbaeAHJsoP,2022-09-08_22h42.32.762,jpn_C03,2022.1.2,MacIntel,62.5,,,space,47.906,0,5,5,46,1,ピク　プミ　ドキ　ムク,,,CartoonStims/boxer_punch_cowboy_r_no.jpg,audio/pikupumidokimuku.mp3,,,,,,,,,,,,,,,,,,,,,,,,,,,,,,,,,,,,,,,,,,,,,,,,,,,,,,,,,,,,,,,,,,,,,
,,,,,,,,,R_2t3zeFbaeAHJsoP,2022-09-08_22h42.32.762,jpn_C03,2022.1.2,MacIntel,62.5,,,space,7.219,0,6,6,22,1,トマ　ピク　ドキ　ルピン,,,CartoonStims/boxer_point_burglar_r_no.jpg,audio/tomapikudokilupin.mp3,,,,,,,,,,,,,,,,,,,,,,,,,,,,,,,,,,,,,,,,,,,,,,,,,,,,,,,,,,,,,,,,,,,,,
,,,,,,,,,R_2t3zeFbaeAHJsoP,2022-09-08_22h42.32.762,jpn_C03,2022.1.2,MacIntel,62.5,,,space,15.972,0,7,7,7,1,セル　ピク　ムク　ドキ,,,CartoonStims/cowboy_kick_boxer_r_no.jpg,audio/serupikumukudoki.mp3,,,,,,,,,,,,,,,,,,,,,,,,,,,,,,,,,,,,,,,,,,,,,,,,,,,,,,,,,,,,,,,,,,,,,
,,,,,,,,,R_2t3zeFbaeAHJsoP,2022-09-08_22h42.32.762,jpn_C03,2022.1.2,MacIntel,62.5,,,space,11.423,0,8,8,19,1,ピク　トマ　ムク　シド,,,CartoonStims/cowboy_point_artist_r_no.jpg,audio/pikutomamukusido.mp3,,,,,,,,,,,,,,,,,,,,,,,,,,,,,,,,,,,,,,,,,,,,,,,,,,,,,,,,,,,,,,,,,,,,,
,,,,,,,,,R_2t3zeFbaeAHJsoP,2022-09-08_22h42.32.762,jpn_C03,2022.1.2,MacIntel,62.5,,,space,29.837,0,9,9,4,1,ピク　セル　ホレト　ムク,,,CartoonStims/chef_kick_cowboy_r_no.jpg,audio/pikuseruhoretomuku.mp3,,,,,,,,,,,,,,,,,,,,,,,,,,,,,,,,,,,,,,,,,,,,,,,,,,,,,,,,,,,,,,,,,,,,,
,,,,,,,,,R_2t3zeFbaeAHJsoP,2022-09-08_22h42.32.762,jpn_C03,2022.1.2,MacIntel,62.5,,,space,13.506,0,10,10,31,1,パツ　ピク　ムク　ルピン,,,CartoonStims/cowboy_shoot_burglar_r_no.jpg,audio/patsupikumukulupin.mp3,,,,,,,,,,,,,,,,,,,,,,,,,,,,,,,,,,,,,,,,,,,,,,,,,,,,,,,,,,,,,,,,,,,,,
,,,,,,,,,R_2t3zeFbaeAHJsoP,2022-09-08_22h42.32.762,jpn_C03,2022.1.2,MacIntel,62.5,,,space,14.437,0,11,11,47,1,プミ　ピク　ドキ　ピポ,,,CartoonStims/boxer_punch_doctor_r_no.jpg,audio/pumipikudokipipo.mp3,,,,,,,,,,,,,,,,,,,,,,,,,,,,,,,,,,,,,,,,,,,,,,,,,,,,,,,,,,,,,,,,,,,,,
,,,,,,,,,R_2t3zeFbaeAHJsoP,2022-09-08_22h42.32.762,jpn_C03,2022.1.2,MacIntel,62.5,,,space,32.223,0,12,12,25,1,ピク　パツ　シド　ピポ,,,CartoonStims/artist_shoot_doctor_r_no.jpg,audio/pikupatsusidopipo.mp3,,,,,,,,,,,,,,,,,,,,,,,,,,,,,,,,,,,,,,,,,,,,,,,,,,,,,,,,,,,,,,,,,,,,,
,,,,,,,,,R_2t3zeFbaeAHJsoP,2022-09-08_22h42.32.762,jpn_C03,2022.1.2,MacIntel,62.5,,,space,5.037,0,13,13,17,1,トマ　ピク　ホレト　ドキ,,,CartoonStims/chef_point_boxer_r_no.jpg,audio/tomapikuhoretodoki.mp3,,,,,,,,,,,,,,,,,,,,,,,,,,,,,,,,,,,,,,,,,,,,,,,,,,,,,,,,,,,,,,,,,,,,,
,,,,,,,,,R_2t3zeFbaeAHJsoP,2022-09-08_22h42.32.762,jpn_C03,2022.1.2,MacIntel,62.5,,,space,17.587,0,14,14,33,1,パツ　ピク　ピポ　ホレト,,,CartoonStims/doctor_shoot_chef_r_no.jpg,audio/patsupikupipohoreto.mp3,,,,,,,,,,,,,,,,,,,,,,,,,,,,,,,,,,,,,,,,,,,,,,,,,,,,,,,,,,,,,,,,,,,,,
,,,,,,,,,R_2t3zeFbaeAHJsoP,2022-09-08_22h42.32.762,jpn_C03,2022.1.2,MacIntel,62.5,,,space,18.062,0,15,15,15,1,ピク　トマ　ルピン　ピポ,,,CartoonStims/burglar_point_doctor_r_no.jpg,audio/pikutomalupinpipo.mp3,,,,,,,,,,,,,,,,,,,,,,,,,,,,,,,,,,,,,,,,,,,,,,,,,,,,,,,,,,,,,,,,,,,,,
,,,,,,,,,R_2t3zeFbaeAHJsoP,2022-09-08_22h42.32.762,jpn_C03,2022.1.2,MacIntel,62.5,,,space,4.617,0,16,16,36,1,プミ　ピク　シド　ピポ,,,CartoonStims/artist_punch_doctor_r_no.jpg,audio/pumipikusidopipo.mp3,,,,,,,,,,,,,,,,,,,,,,,,,,,,,,,,,,,,,,,,,,,,,,,,,,,,,,,,,,,,,,,,,,,,,
,,,,,,,,,R_2t3zeFbaeAHJsoP,2022-09-08_22h42.32.762,jpn_C03,2022.1.2,MacIntel,62.5,,,space,6.42,0,17,17,12,1,トマ　ピク　シド　ホレト,,,CartoonStims/artist_point_chef_r_no.jpg,audio/tomapikusidohoreto.mp3,,,,,,,,,,,,,,,,,,,,,,,,,,,,,,,,,,,,,,,,,,,,,,,,,,,,,,,,,,,,,,,,,,,,,
,,,,,,,,,R_2t3zeFbaeAHJsoP,2022-09-08_22h42.32.762,jpn_C03,2022.1.2,MacIntel,62.5,,,space,8.284,0,18,18,41,1,プミ　ピク　ホレト　ルピン,,,CartoonStims/chef_punch_burglar_r_no.jpg,audio/pumipikuhoretolupin.mp3,,,,,,,,,,,,,,,,,,,,,,,,,,,,,,,,,,,,,,,,,,,,,,,,,,,,,,,,,,,,,,,,,,,,,
,,,,,,,,,R_2t3zeFbaeAHJsoP,2022-09-08_22h42.32.762,jpn_C03,2022.1.2,MacIntel,62.5,,,space,3.45,0,19,19,40,1,プミ　ピク　ホレト　シド,,,CartoonStims/chef_punch_artist_r_no.jpg,audio/pumipikuhoretosido.mp3,,,,,,,,,,,,,,,,,,,,,,,,,,,,,,,,,,,,,,,,,,,,,,,,,,,,,,,,,,,,,,,,,,,,,
,,,,,,,,,R_2t3zeFbaeAHJsoP,2022-09-08_22h42.32.762,jpn_C03,2022.1.2,MacIntel,62.5,,,space,10.501,0,20,20,24,1,パツ　ピク　シド　ムク,,,CartoonStims/artist_shoot_cowboy_r_no.jpg,audio/patsupikusidomuku.mp3,,,,,,,,,,,,,,,,,,,,,,,,,,,,,,,,,,,,,,,,,,,,,,,,,,,,,,,,,,,,,,,,,,,,,
,,,,,,,,,R_2t3zeFbaeAHJsoP,2022-09-08_22h42.32.762,jpn_C03,2022.1.2,MacIntel,62.5,,,space,3.001,0,21,21,34,1,パツ　ピク　ドキ　ホレト,,,CartoonStims/boxer_shoot_chef_r_no.jpg,audio/patsupikudokihoreto.mp3,,,,,,,,,,,,,,,,,,,,,,,,,,,,,,,,,,,,,,,,,,,,,,,,,,,,,,,,,,,,,,,,,,,,,
,,,,,,,,,R_2t3zeFbaeAHJsoP,2022-09-08_22h42.32.762,jpn_C03,2022.1.2,MacIntel,62.5,,,space,5.263,0,22,22,14,1,トマ　ピク　ルピン　ムク,,,CartoonStims/burglar_point_cowboy_r_no.jpg,audio/tomapikulupinmuku.mp3,,,,,,,,,,,,,,,,,,,,,,,,,,,,,,,,,,,,,,,,,,,,,,,,,,,,,,,,,,,,,,,,,,,,,
,,,,,,,,,R_2t3zeFbaeAHJsoP,2022-09-08_22h42.32.762,jpn_C03,2022.1.2,MacIntel,62.5,,,space,43.824,0,23,23,32,1,パツ　ピク　ピポ　ルピン,,,CartoonStims/doctor_shoot_burglar_r_no.jpg,audio/patsupikupipolupin.mp3,,,,,,,,,,,,,,,,,,,,,,,,,,,,,,,,,,,,,,,,,,,,,,,,,,,,,,,,,,,,,,,,,,,,,
,,,,,,,,,R_2t3zeFbaeAHJsoP,2022-09-08_22h42.32.762,jpn_C03,2022.1.2,MacIntel,62.5,,,space,12.004,0,24,24,5,1,セル　ピク　ホレト　ピポ,,,CartoonStims/chef_kick_doctor_r_no.jpg,audio/serupikuhoretopipo.mp3,,,,,,,,,,,,,,,,,,,,,,,,,,,,,,,,,,,,,,,,,,,,,,,,,,,,,,,,,,,,,,,,,,,,,
,,,,,,,,,R_2t3zeFbaeAHJsoP,2022-09-08_22h42.32.762,jpn_C03,2022.1.2,MacIntel,62.5,,,space,7.41,0,25,25,23,1,ピク　トマ　ドキ　ホレト,,,CartoonStims/boxer_point_chef_r_no.jpg,audio/pikutomadokihoreto.mp3,,,,,,,,,,,,,,,,,,,,,,,,,,,,,,,,,,,,,,,,,,,,,,,,,,,,,,,,,,,,,,,,,,,,,
,,,,,,,,,R_2t3zeFbaeAHJsoP,2022-09-08_22h42.32.762,jpn_C03,2022.1.2,MacIntel,62.5,,,space,11.142,0,26,26,18,1,トマ　ピク　ムク　ドキ,,,CartoonStims/cowboy_point_boxer_r_no.jpg,audio/tomapikumukudoki.mp3,,,,,,,,,,,,,,,,,,,,,,,,,,,,,,,,,,,,,,,,,,,,,,,,,,,,,,,,,,,,,,,,,,,,,
,,,,,,,,,R_2t3zeFbaeAHJsoP,2022-09-08_22h42.32.762,jpn_C03,2022.1.2,MacIntel,62.5,,,space,4.823,0,27,27,39,1,プミ　ピク　ルピン　シド,,,CartoonStims/burglar_punch_artist_r_no.jpg,audio/pumipikulupinsido.mp3,,,,,,,,,,,,,,,,,,,,,,,,,,,,,,,,,,,,,,,,,,,,,,,,,,,,,,,,,,,,,,,,,,,,,
,,,,,,,,,R_2t3zeFbaeAHJsoP,2022-09-08_22h42.32.762,jpn_C03,2022.1.2,MacIntel,62.5,,,space,6.687,0,28,28,11,1,セル　ピク　ドキ　ルピン,,,CartoonStims/boxer_kick_burglar_r_no.jpg,audio/serupikudokilupin.mp3,,,,,,,,,,,,,,,,,,,,,,,,,,,,,,,,,,,,,,,,,,,,,,,,,,,,,,,,,,,,,,,,,,,,,
,,,,,,,,,R_2t3zeFbaeAHJsoP,2022-09-08_22h42.32.762,jpn_C03,2022.1.2,MacIntel,62.5,,,space,2.668,0,29,29,9,1,セル　ピク　ピポ　シド,,,CartoonStims/doctor_kick_artist_r_no.jpg,audio/serupikupiposido.mp3,,,,,,,,,,,,,,,,,,,,,,,,,,,,,,,,,,,,,,,,,,,,,,,,,,,,,,,,,,,,,,,,,,,,,
,,,,,,,,,R_2t3zeFbaeAHJsoP,2022-09-08_22h42.32.762,jpn_C03,2022.1.2,MacIntel,62.5,,,space,5.919,0,30,30,21,1,トマ　ピク　ピポ　ルピン,,,CartoonStims/doctor_point_burglar_r_no.jpg,audio/tomapikupipolupin.mp3,,,,,,,,,,,,,,,,,,,,,,,,,,,,,,,,,,,,,,,,,,,,,,,,,,,,,,,,,,,,,,,,,,,,,
,,,,,,,,,R_2t3zeFbaeAHJsoP,2022-09-08_22h42.32.762,jpn_C03,2022.1.2,MacIntel,62.5,,,space,45.155,0,31,31,44,1,ピク　プミ　ピポ　ホレト,,,CartoonStims/doctor_punch_chef_r_no.jpg,audio/pikupumipipohoreto.mp3,,,,,,,,,,,,,,,,,,,,,,,,,,,,,,,,,,,,,,,,,,,,,,,,,,,,,,,,,,,,,,,,,,,,,
,,,,,,,,,R_2t3zeFbaeAHJsoP,2022-09-08_22h42.32.762,jpn_C03,2022.1.2,MacIntel,62.5,,,space,8.639,0,32,32,45,1,プミ　ピク　ピポ　ムク,,,CartoonStims/doctor_punch_cowboy_r_no.jpg,audio/pumipikupipomuku.mp3,,,,,,,,,,,,,,,,,,,,,,,,,,,,,,,,,,,,,,,,,,,,,,,,,,,,,,,,,,,,,,,,,,,,,
,,,,,,,,,R_2t3zeFbaeAHJsoP,2022-09-08_22h42.32.762,jpn_C03,2022.1.2,MacIntel,62.5,,,space,14.46,0,33,33,35,1,パツ　ピク　ドキ　ムク,,,CartoonStims/boxer_shoot_cowboy_r_no.jpg,audio/patsupikudokimuku.mp3,,,,,,,,,,,,,,,,,,,,,,,,,,,,,,,,,,,,,,,,,,,,,,,,,,,,,,,,,,,,,,,,,,,,,
,,,,,,,,,R_2t3zeFbaeAHJsoP,2022-09-08_22h42.32.762,jpn_C03,2022.1.2,MacIntel,62.5,,,space,7.772,0,34,34,20,1,トマ　ピク　ピポ　シド,,,CartoonStims/doctor_point_artist_r_no.jpg,audio/tomapikupiposido.mp3,,,,,,,,,,,,,,,,,,,,,,,,,,,,,,,,,,,,,,,,,,,,,,,,,,,,,,,,,,,,,,,,,,,,,
,,,,,,,,,R_2t3zeFbaeAHJsoP,2022-09-08_22h42.32.762,jpn_C03,2022.1.2,MacIntel,62.5,,,space,11.12,0,35,35,38,1,プミ　ピク　ルピン　ドキ,,,CartoonStims/burglar_punch_boxer_r_no.jpg,audio/pumipikulupindoki.mp3,,,,,,,,,,,,,,,,,,,,,,,,,,,,,,,,,,,,,,,,,,,,,,,,,,,,,,,,,,,,,,,,,,,,,
,,,,,,,,,R_2t3zeFbaeAHJsoP,2022-09-08_22h42.32.762,jpn_C03,2022.1.2,MacIntel,62.5,,,space,2.836,0,36,36,16,1,トマ　ピク　ホレト　ピポ,,,CartoonStims/chef_point_doctor_r_no.jpg,audio/tomapikuhoretopipo.mp3,,,,,,,,,,,,,,,,,,,,,,,,,,,,,,,,,,,,,,,,,,,,,,,,,,,,,,,,,,,,,,,,,,,,,
,,,,,,,,,R_2t3zeFbaeAHJsoP,2022-09-08_22h42.32.762,jpn_C03,2022.1.2,MacIntel,62.5,,,space,23.188,0,37,37,42,1,ピク　プミ　ムク　ルピン,,,CartoonStims/cowboy_punch_burglar_r_no.jpg,audio/pikupumimukulupin.mp3,,,,,,,,,,,,,,,,,,,,,,,,,,,,,,,,,,,,,,,,,,,,,,,,,,,,,,,,,,,,,,,,,,,,,
,,,,,,,,,R_2t3zeFbaeAHJsoP,2022-09-08_22h42.32.762,jpn_C03,2022.1.2,MacIntel,62.5,,,space,13.771,0,38,38,0,1,ピク　セル　シド　ルピン,,,CartoonStims/artist_kick_burglar_r_no.jpg,audio/pikuserusidolupin.mp3,,,,,,,,,,,,,,,,,,,,,,,,,,,,,,,,,,,,,,,,,,,,,,,,,,,,,,,,,,,,,,,,,,,,,
,,,,,,,,,R_2t3zeFbaeAHJsoP,2022-09-08_22h42.32.762,jpn_C03,2022.1.2,MacIntel,62.5,,,space,51.619,0,39,39,13,1,トマ　ピク　シド　ムク,,,CartoonStims/artist_point_cowboy_r_no.jpg,audio/tomapikusidomuku.mp3,,,,,,,,,,,,,,,,,,,,,,,,,,,,,,,,,,,,,,,,,,,,,,,,,,,,,,,,,,,,,,,,,,,,,
,,,,,,,,,R_2t3zeFbaeAHJsoP,2022-09-08_22h42.32.762,jpn_C03,2022.1.2,MacIntel,62.5,,,space,9.719,0,40,40,2,1,セル　ピク　ルピン　ホレト,,,CartoonStims/burglar_kick_chef_r_no.jpg,audio/serupikulupinhoreto.mp3,,,,,,,,,,,,,,,,,,,,,,,,,,,,,,,,,,,,,,,,,,,,,,,,,,,,,,,,,,,,,,,,,,,,,
,,,,,,,,,R_2t3zeFbaeAHJsoP,2022-09-08_22h42.32.762,jpn_C03,2022.1.2,MacIntel,62.5,,,space,20.568,0,41,41,27,1,ピク　パツ　ルピン　ドキ,,,CartoonStims/burglar_shoot_boxer_r_no.jpg,audio/pikupatsulupindoki.mp3,,,,,,,,,,,,,,,,,,,,,,,,,,,,,,,,,,,,,,,,,,,,,,,,,,,,,,,,,,,,,,,,,,,,,
,,,,,,,,,R_2t3zeFbaeAHJsoP,2022-09-08_22h42.32.762,jpn_C03,2022.1.2,MacIntel,62.5,,,space,13.139,0,42,42,8,1,ピク　セル　ピポ　ドキ,,,CartoonStims/doctor_kick_boxer_r_no.jpg,audio/pikuserupipodoki.mp3,,,,,,,,,,,,,,,,,,,,,,,,,,,,,,,,,,,,,,,,,,,,,,,,,,,,,,,,,,,,,,,,,,,,,
,,,,,,,,,R_2t3zeFbaeAHJsoP,2022-09-08_22h42.32.762,jpn_C03,2022.1.2,MacIntel,62.5,,,space,6.505,0,43,43,6,1,セル　ピク　ムク　ピポ,,,CartoonStims/cowboy_kick_doctor_r_no.jpg,audio/serupikumukupipo.mp3,,,,,,,,,,,,,,,,,,,,,,,,,,,,,,,,,,,,,,,,,,,,,,,,,,,,,,,,,,,,,,,,,,,,,
,,,,,,,,,R_2t3zeFbaeAHJsoP,2022-09-08_22h42.32.762,jpn_C03,2022.1.2,MacIntel,62.5,,,space,8.092,0,44,44,1,1,セル　ピク　シド　ホレト,,,CartoonStims/artist_kick_chef_r_no.jpg,audio/serupikusidohoreto.mp3,,,,,,,,,,,,,,,,,,,,,,,,,,,,,,,,,,,,,,,,,,,,,,,,,,,,,,,,,,,,,,,,,,,,,
,,,,,,,,,R_2t3zeFbaeAHJsoP,2022-09-08_22h42.32.762,jpn_C03,2022.1.2,MacIntel,62.5,,,space,7.02,0,45,45,10,1,セル　ピク　ドキ　シド,,,CartoonStims/boxer_kick_artist_r_no.jpg,audio/serupikudokisido.mp3,,,,,,,,,,,,,,,,,,,,,,,,,,,,,,,,,,,,,,,,,,,,,,,,,,,,,,,,,,,,,,,,,,,,,
,,,,,,,,,R_2t3zeFbaeAHJsoP,2022-09-08_22h42.32.762,jpn_C03,2022.1.2,MacIntel,62.5,,,space,6.938,0,46,46,37,1,プミ　ピク　シド　ドキ,,,CartoonStims/artist_punch_boxer_r_no.jpg,audio/pumipikusidodoki.mp3,,,,,,,,,,,,,,,,,,,,,,,,,,,,,,,,,,,,,,,,,,,,,,,,,,,,,,,,,,,,,,,,,,,,,
,,,,,,,,,R_2t3zeFbaeAHJsoP,2022-09-08_22h42.32.762,jpn_C03,2022.1.2,MacIntel,62.5,,,space,11.756,0,47,47,29,1,ピク　パツ　ホレト　シド,,,CartoonStims/chef_shoot_artist_r_no.jpg,audio/pikupatsuhoretosido.mp3,,,,,,,,,,,,,,,,,,,,,,,,,,,,,,,,,,,,,,,,,,,,,,,,,,,,,,,,,,,,,,,,,,,,,
,,,,,,,,,R_2t3zeFbaeAHJsoP,2022-09-08_22h42.32.762,jpn_C03,2022.1.2,MacIntel,62.5,,,,,,,,,,,,,,,space,1.721,right,0,10.221,,,,,,,,,,,,,,,,,,,,,,,,,,,,,,,,,,,,,,,,,,,,,,,,,,,,,,,,,0,0,0,0,1,,,
,,,,,,,,,R_2t3zeFbaeAHJsoP,2022-09-08_22h42.32.762,jpn_C03,2022.1.2,MacIntel,62.5,,,,,,,,,,,,,,,,,,,,,,,,,0,0,0,4,1,CartoonStims/burglar_shoot_doctor_r.jpg,セル　ピク　ルピン　ピポ,CartoonStims/burglar_kick_doctor_r.jpg,left,CartoonStims/burglar_shoot_doctor_r.jpg,audio/serupikulupinpipo.mp3,"残念！ こちらが正しい画像です。

否定文は起きていないことを示しているのを思い出してください。",,,,,,,,,,,,,,,,,,,,,,,,,,,,,,,,,,,,,,,,,,,,,,,
,,,,,,,,,R_2t3zeFbaeAHJsoP,2022-09-08_22h42.32.762,jpn_C03,2022.1.2,MacIntel,62.5,,,,,,,,,,,,,,,,,left,1,40.339,,,,,,,,,,,,,,,,,,0,0,0,0,1,,,,,,,,,,,,,,,,,,,,,,,,,,,,,,,,,,,,,,,,,,
,,,,,,,,,R_2t3zeFbaeAHJsoP,2022-09-08_22h42.32.762,jpn_C03,2022.1.2,MacIntel,62.5,,,,,,,,,,,,,,,,,,,,,,,,,0,1,1,6,1,CartoonStims/artist_shoot_boxer_r.jpg,トマ　ピク　シド　ドキ,CartoonStims/artist_point_boxer_r.jpg,left,CartoonStims/artist_shoot_boxer_r.jpg,audio/tomapikusidodoki.mp3,"残念！ こちらが正しい画像です。

否定文は起きていないことを示しているのを思い出してください。",,,,,,,,,,,,,,,,,,,,,,,,,,,,,,,,,,,,,,,,,,,,,,,
,,,,,,,,,R_2t3zeFbaeAHJsoP,2022-09-08_22h42.32.762,jpn_C03,2022.1.2,MacIntel,62.5,,,,,,,,,,,,,,,,,left,1,5.669,,,,,,,,,,,,,,,,,,0,0,0,0,1,,,,,,,,,,,,,,,,,,,,,,,,,,,,,,,,,,,,,,,,,,
,,,,,,,,,R_2t3zeFbaeAHJsoP,2022-09-08_22h42.32.762,jpn_C03,2022.1.2,MacIntel,62.5,,,,,,,,,,,,,,,,,,,,,,,,,0,2,2,8,1,CartoonStims/burglar_punch_artist_r.jpg,トマ　ピク　ルピン　シド,CartoonStims/burglar_point_artist_r.jpg,left,CartoonStims/burglar_punch_artist_r.jpg,audio/tomapikulupinsido.mp3,"残念！ こちらが正しい画像です。

否定文は起きていないことを示しているのを思い出してください。",,,,,,,,,,,,,,,,,,,,,,,,,,,,,,,,,,,,,,,,,,,,,,,
,,,,,,,,,R_2t3zeFbaeAHJsoP,2022-09-08_22h42.32.762,jpn_C03,2022.1.2,MacIntel,62.5,,,,,,,,,,,,,,,,,right,1,14.213,0,0,0,0,1,,,,,,,,,,,,,,,,,,,,,,,,,,,,,,,,,,,,,,,,,,,,,,,,,,,,,,,,,,,
,,,,,,,,,R_2t3zeFbaeAHJsoP,2022-09-08_22h42.32.762,jpn_C03,2022.1.2,MacIntel,62.5,,,,,,,,,,,,,,,,,,,,,,,,,0,3,3,3,1,CartoonStims/chef_kick_artist_r.jpg,ピク　セル　ホレト　シド,CartoonStims/chef_point_artist_r.jpg,right,CartoonStims/chef_point_artist_r.jpg,audio/pikuseruhoretosido.mp3,"残念！ こちらが正しい画像です。

否定文は起きていないことを示しているのを思い出してください。",,,,,,,,,,,,,,,,,,,,,,,,,,,,,,,,,,,,,,,,,,,,,,,
,,,,,,,,,R_2t3zeFbaeAHJsoP,2022-09-08_22h42.32.762,jpn_C03,2022.1.2,MacIntel,62.5,,,,,,,,,,,,,,,,,right,1,6.586,0,0,0,0,1,,,,,,,,,,,,,,,,,,,,,,,,,,,,,,,,,,,,,,,,,,,,,,,,,,,,,,,,,,,
,,,,,,,,,R_2t3zeFbaeAHJsoP,2022-09-08_22h42.32.762,jpn_C03,2022.1.2,MacIntel,62.5,,,,,,,,,,,,,,,,,,,,,,,,,0,4,4,9,1,CartoonStims/boxer_shoot_doctor_r.jpg,パツ　ピク　ドキ　ピポ,CartoonStims/boxer_point_doctor_r.jpg,right,CartoonStims/boxer_point_doctor_r.jpg,audio/patsupikudokipipo.mp3,"残念！ こちらが正しい画像です。

否定文は起きていないことを示しているのを思い出してください。",,,,,,,,,,,,,,,,,,,,,,,,,,,,,,,,,,,,,,,,,,,,,,,
,,,,,,,,,R_2t3zeFbaeAHJsoP,2022-09-08_22h42.32.762,jpn_C03,2022.1.2,MacIntel,62.5,,,,,,,,,,,,,,,,,left,1,40.743,,,,,,,,,,,,,,,,,,0,0,0,0,1,,,,,,,,,,,,,,,,,,,,,,,,,,,,,,,,,,,,,,,,,,
,,,,,,,,,R_2t3zeFbaeAHJsoP,2022-09-08_22h42.32.762,jpn_C03,2022.1.2,MacIntel,62.5,,,,,,,,,,,,,,,,,,,,,,,,,0,5,5,10,1,CartoonStims/doctor_punch_cowboy_r.jpg,ピク　パツ　ピポ　ムク,CartoonStims/doctor_shoot_cowboy_r.jpg,left,CartoonStims/doctor_punch_cowboy_r.jpg,audio/pikupatsupipomuku.mp3,"残念！ こちらが正しい画像です。

否定文は起きていないことを示しているのを思い出してください。",,,,,,,,,,,,,,,,,,,,,,,,,,,,,,,,,,,,,,,,,,,,,,,
,,,,,,,,,R_2t3zeFbaeAHJsoP,2022-09-08_22h42.32.762,jpn_C03,2022.1.2,MacIntel,62.5,,,,,,,,,,,,,,,,,right,1,3.27,0,0,0,0,1,,,,,,,,,,,,,,,,,,,,,,,,,,,,,,,,,,,,,,,,,,,,,,,,,,,,,,,,,,,
,,,,,,,,,R_2t3zeFbaeAHJsoP,2022-09-08_22h42.32.762,jpn_C03,2022.1.2,MacIntel,62.5,,,,,,,,,,,,,,,,,,,,,,,,,0,6,6,5,1,CartoonStims/boxer_kick_cowboy_r.jpg,セル　ピク　ドキ　ムク,CartoonStims/boxer_punch_cowboy_r.jpg,right,CartoonStims/boxer_punch_cowboy_r.jpg,audio/serupikudokimuku.mp3,"残念！ こちらが正しい画像です。

否定文は起きていないことを示しているのを思い出してください。",,,,,,,,,,,,,,,,,,,,,,,,,,,,,,,,,,,,,,,,,,,,,,,
,,,,,,,,,R_2t3zeFbaeAHJsoP,2022-09-08_22h42.32.762,jpn_C03,2022.1.2,MacIntel,62.5,,,,,,,,,,,,,,,,,left,1,26.823,,,,,,,,,,,,,,,,,,0,0,0,0,1,,,,,,,,,,,,,,,,,,,,,,,,,,,,,,,,,,,,,,,,,,
,,,,,,,,,R_2t3zeFbaeAHJsoP,2022-09-08_22h42.32.762,jpn_C03,2022.1.2,MacIntel,62.5,,,,,,,,,,,,,,,,,,,,,,,,,0,7,7,0,1,CartoonStims/artist_shoot_burglar_r.jpg,ピク　プミ　シド　ルピン,CartoonStims/artist_punch_burglar_r.jpg,left,CartoonStims/artist_shoot_burglar_r.jpg,audio/pikupumisidolupin.mp3,"残念！ こちらが正しい画像です。

否定文は起きていないことを示しているのを思い出してください。",,,,,,,,,,,,,,,,,,,,,,,,,,,,,,,,,,,,,,,,,,,,,,,
,,,,,,,,,R_2t3zeFbaeAHJsoP,2022-09-08_22h42.32.762,jpn_C03,2022.1.2,MacIntel,62.5,,,,,,,,,,,,,,,,,right,1,6.253,0,0,0,0,1,,,,,,,,,,,,,,,,,,,,,,,,,,,,,,,,,,,,,,,,,,,,,,,,,,,,,,,,,,,
,,,,,,,,,R_2t3zeFbaeAHJsoP,2022-09-08_22h42.32.762,jpn_C03,2022.1.2,MacIntel,62.5,,,,,,,,,,,,,,,,,,,,,,,,,0,8,8,7,1,CartoonStims/cowboy_point_chef_r.jpg,ピク　トマ　ムク　ホレト,CartoonStims/cowboy_kick_chef_r.jpg,right,CartoonStims/cowboy_kick_chef_r.jpg,audio/pikutomamukuhoreto.mp3,"残念！ こちらが正しい画像です。

否定文は起きていないことを示しているのを思い出してください。",,,,,,,,,,,,,,,,,,,,,,,,,,,,,,,,,,,,,,,,,,,,,,,
,,,,,,,,,R_2t3zeFbaeAHJsoP,2022-09-08_22h42.32.762,jpn_C03,2022.1.2,MacIntel,62.5,,,,,,,,,,,,,,,,,right,1,15.307,0,0,0,0,1,,,,,,,,,,,,,,,,,,,,,,,,,,,,,,,,,,,,,,,,,,,,,,,,,,,,,,,,,,,
,,,,,,,,,R_2t3zeFbaeAHJsoP,2022-09-08_22h42.32.762,jpn_C03,2022.1.2,MacIntel,62.5,,,,,,,,,,,,,,,,,,,,,,,,,0,9,9,11,1,CartoonStims/chef_shoot_burglar_r.jpg,パツ　ピク　ホレト　ルピン,CartoonStims/chef_kick_burglar_r.jpg,right,CartoonStims/chef_kick_burglar_r.jpg,audio/patsupikuhoretolupin.mp3,"残念！ こちらが正しい画像です。

否定文は起きていないことを示しているのを思い出してください。",,,,,,,,,,,,,,,,,,,,,,,,,,,,,,,,,,,,,,,,,,,,,,,
,,,,,,,,,R_2t3zeFbaeAHJsoP,2022-09-08_22h42.32.762,jpn_C03,2022.1.2,MacIntel,62.5,,,,,,,,,,,,,,,,,left,1,7.177,,,,,,,,,,,,,,,,,,0,0,0,0,1,,,,,,,,,,,,,,,,,,,,,,,,,,,,,,,,,,,,,,,,,,
,,,,,,,,,R_2t3zeFbaeAHJsoP,2022-09-08_22h42.32.762,jpn_C03,2022.1.2,MacIntel,62.5,,,,,,,,,,,,,,,,,,,,,,,,,0,10,10,2,1,CartoonStims/doctor_point_boxer_r.jpg,プミ　ピク　ピポ　ドキ,CartoonStims/doctor_punch_boxer_r.jpg,left,CartoonStims/doctor_point_boxer_r.jpg,audio/pumipikupipodoki.mp3,"残念！ こちらが正しい画像です。

否定文は起きていないことを示しているのを思い出してください。",,,,,,,,,,,,,,,,,,,,,,,,,,,,,,,,,,,,,,,,,,,,,,,
,,,,,,,,,R_2t3zeFbaeAHJsoP,2022-09-08_22h42.32.762,jpn_C03,2022.1.2,MacIntel,62.5,,,,,,,,,,,,,,,,,right,1,4.133,0,0,0,0,1,,,,,,,,,,,,,,,,,,,,,,,,,,,,,,,,,,,,,,,,,,,,,,,,,,,,,,,,,,,
,,,,,,,,,R_2t3zeFbaeAHJsoP,2022-09-08_22h42.32.762,jpn_C03,2022.1.2,MacIntel,62.5,,,,,,,,,,,,,,,,,,,,,,,,,0,11,11,1,1,CartoonStims/chef_punch_cowboy_r.jpg,プミ　ピク　ホレト　ムク,CartoonStims/chef_kick_cowboy_r.jpg,right,CartoonStims/chef_kick_cowboy_r.jpg,audio/pumipikuhoretomuku.mp3,"残念！ こちらが正しい画像です。

否定文は起きていないことを示しているのを思い出してください。",,,,,,,,,,,,,,,,,,,,,,,,,,,,,,,,,,,,,,,,,,,,,,,
,,,,,,,,,R_2t3zeFbaeAHJsoP,2022-09-08_22h42.32.762,jpn_C03,2022.1.2,MacIntel,62.5,,,,,,,,,,,,,CartoonStims/boxer_punch_artist_r.jpg,,,,,,,,,,,,,,,,,,,,,,,,,,,,,space,5.927,プミ　ドキ　シド　,right,29.26,,,,,,0,0,0,35,1,,,,,,,,,,,,,,,,,,,,,,,,,プミ　ドキ　シド,プミ　ドキ　シド,0
,,,,,,,,,R_2t3zeFbaeAHJsoP,2022-09-08_22h42.32.762,jpn_C03,2022.1.2,MacIntel,62.5,,,,,,,,,,,,,CartoonStims/burglar_point_artist_r.jpg,,,,,,,,,,,,,,,,,,,,,,,,,,,,,,,トマ　ルピン　シド　,right,26.162,,,,,,0,1,1,28,1,,,,,,,,,,,,,,,,,,,,,,,,,トマ　ルピン　シド,トマ　ルピン　シド,0
,,,,,,,,,R_2t3zeFbaeAHJsoP,2022-09-08_22h42.32.762,jpn_C03,2022.1.2,MacIntel,62.5,,,,,,,,,,,,,CartoonStims/cowboy_kick_burglar_r.jpg,,,,,,,,,,,,,,,,,,,,,,,,,,,,,,,セル　ムク　ルピン,right,16.076,,,,,,0,2,2,24,1,,,,,,,,,,,,,,,,,,,,,,,,,セル　ムク　ルピン,セル　ムク　ルピン,0
,,,,,,,,,R_2t3zeFbaeAHJsoP,2022-09-08_22h42.32.762,jpn_C03,2022.1.2,MacIntel,62.5,,,,,,,,,,,,,CartoonStims/cowboy_shoot_boxer_r_no.jpg,,,,,,,,,,,,,,,,,,,,,,,,,,,,,,,パツ　ピク　ムク　ドキ,right,25.06,,,,,,0,3,3,15,1,,,,,,,,,,,,,,,,,,,,,,,,,ピク　パツ　ムク　ドキ,パツ　ピク　ムク　ドキ,1
,,,,,,,,,R_2t3zeFbaeAHJsoP,2022-09-08_22h42.32.762,jpn_C03,2022.1.2,MacIntel,62.5,,,,,,,,,,,,,CartoonStims/cowboy_punch_artist_r_no.jpg,,,,,,,,,,,,,,,,,,,,,,,,,,,,,,,プミ　ピク　ムク　ドキ,right,33.685,,,,,,0,4,4,21,1,,,,,,,,,,,,,,,,,,,,,,,,,ピク　プミ　ムク　シド,プミ　ピク　ムク　シド,1
,,,,,,,,,R_2t3zeFbaeAHJsoP,2022-09-08_22h42.32.762,jpn_C03,2022.1.2,MacIntel,62.5,,,,,,,,,,,,,CartoonStims/chef_point_cowboy_r_no.jpg,,,,,,,,,,,,,,,,,,,,,,,,,,,,,,,トマ　ピク　ホレト　ムク,right,19.245,,,,,,0,5,5,8,1,,,,,,,,,,,,,,,,,,,,,,,,,ピク　トマ　ホレト　ムク,トマ　ピク　ホレト　ムク,1
,,,,,,,,,R_2t3zeFbaeAHJsoP,2022-09-08_22h42.32.762,jpn_C03,2022.1.2,MacIntel,62.5,,,,,,,,,,,,,CartoonStims/chef_shoot_cowboy_r.jpg,,,,,,,,,,,,,,,,,,,,,,,,,,,,,,,パツ　ホレト　ムク,right,16.786,,,,,,0,6,6,31,1,,,,,,,,,,,,,,,,,,,,,,,,,パツ　ホレト　ムク,パツ　ホレト　ムク,0
,,,,,,,,,R_2t3zeFbaeAHJsoP,2022-09-08_22h42.32.762,jpn_C03,2022.1.2,MacIntel,62.5,,,,,,,,,,,,,CartoonStims/burglar_punch_doctor_r_no.jpg,,,,,,,,,,,,,,,,,,,,,,,,,,,,,,,プミ　ピク　ルピン　ピポ,right,18.781,,,,,,0,7,7,19,1,,,,,,,,,,,,,,,,,,,,,,,,,ピク　プミ　ルピン　ピポ,プミ　ピク　ルピン　ピポ,1
,,,,,,,,,R_2t3zeFbaeAHJsoP,2022-09-08_22h42.32.762,jpn_C03,2022.1.2,MacIntel,62.5,,,,,,,,,,,,,CartoonStims/burglar_point_chef_r_no.jpg,,,,,,,,,,,,,,,,,,,,,,,,,,,,,,,トマ　ピク　ルピン　ホレト,right,21.558,,,,,,0,8,8,7,1,,,,,,,,,,,,,,,,,,,,,,,,,ピク　トマ　ルピン　ホレト,トマ　ピク　ルピン　ホレト,1
,,,,,,,,,R_2t3zeFbaeAHJsoP,2022-09-08_22h42.32.762,jpn_C03,2022.1.2,MacIntel,62.5,,,,,,,,,,,,,CartoonStims/boxer_kick_doctor_r_no.jpg,,,,,,,,,,,,,,,,,,,,,,,,,,,,,,,セル　ピク　ドキ　ピポ,right,14.618,,,,,,0,9,9,5,1,,,,,,,,,,,,,,,,,,,,,,,,,ピク　セル　ドキ　ピポ,セル　ピク　ドキ　ピポ,1
,,,,,,,,,R_2t3zeFbaeAHJsoP,2022-09-08_22h42.32.762,jpn_C03,2022.1.2,MacIntel,62.5,,,,,,,,,,,,,CartoonStims/artist_kick_boxer_r_no.jpg,,,,,,,,,,,,,,,,,,,,,,,,,,,,,,,セル　ピク　シド　ドキ,right,16.241,,,,,,0,10,10,0,1,,,,,,,,,,,,,,,,,,,,,,,,,ピク　セル　シド　ドキ,セル　ピク　シド　ドキ,1
,,,,,,,,,R_2t3zeFbaeAHJsoP,2022-09-08_22h42.32.762,jpn_C03,2022.1.2,MacIntel,62.5,,,,,,,,,,,,,CartoonStims/doctor_shoot_artist_r_no.jpg,,,,,,,,,,,,,,,,,,,,,,,,,,,,,,,パツ　ピク　ピポ　シド,right,10.62,,,,,,0,11,11,16,1,,,,,,,,,,,,,,,,,,,,,,,,,ピク　パツ　ピポ　シド,パツ　ピク　ピポ　シド,1
,,,,,,,,,R_2t3zeFbaeAHJsoP,2022-09-08_22h42.32.762,jpn_C03,2022.1.2,MacIntel,62.5,,,,,,,,,,,,,CartoonStims/burglar_shoot_cowboy_r_no.jpg,,,,,,,,,,,,,,,,,,,,,,,,,,,,,,,パツ　ピク　ルピン　ムク,right,15.245,,,,,,0,12,12,13,1,,,,,,,,,,,,,,,,,,,,,,,,,ピク　パツ　ルピン　ムク,パツ　ピク　ルピン　ムク,1
,,,,,,,,,R_2t3zeFbaeAHJsoP,2022-09-08_22h42.32.762,jpn_C03,2022.1.2,MacIntel,62.5,,,,,,,,,,,,,CartoonStims/doctor_kick_chef_r.jpg,,,,,,,,,,,,,,,,,,,,,,,,,,,,,,,セル　ピポ　ホレト,right,10.137,,,,,,0,13,13,25,1,,,,,,,,,,,,,,,,,,,,,,,,,セル　ピポ　ホレト,セル　ピポ　ホレト,0
,,,,,,,,,R_2t3zeFbaeAHJsoP,2022-09-08_22h42.32.762,jpn_C03,2022.1.2,MacIntel,62.5,,,,,,,,,,,,,CartoonStims/artist_point_boxer_r.jpg,,,,,,,,,,,,,,,,,,,,,,,,,,,,,,,トマ　シド　ドキ,right,13.953,,,,,,0,14,14,27,1,,,,,,,,,,,,,,,,,,,,,,,,,トマ　シド　ドキ,トマ　シド　ドキ,0
,,,,,,,,,R_2t3zeFbaeAHJsoP,2022-09-08_22h42.32.762,jpn_C03,2022.1.2,MacIntel,62.5,,,,,,,,,,,,,CartoonStims/burglar_shoot_chef_r.jpg,,,,,,,,,,,,,,,,,,,,,,,,,,,,,,,パツ　ルピン　ホレト,right,22.198,,,,,,0,15,15,30,1,,,,,,,,,,,,,,,,,,,,,,,,,パツ　ルピン　ホレト,パツ　ルピン　ホレト,0
,,,,,,,,,R_2t3zeFbaeAHJsoP,2022-09-08_22h42.32.762,jpn_C03,2022.1.2,MacIntel,62.5,,,,,,,,,,,,,CartoonStims/doctor_point_boxer_r_no.jpg,,,,,,,,,,,,,,,,,,,,,,,,,,,,,,,トマ　ピク　ピポ　ドキ,right,18.864,,,,,,0,16,16,10,1,,,,,,,,,,,,,,,,,,,,,,,,,ピク　トマ　ピポ　ドキ,トマ　ピク　ピポ　ドキ,1
,,,,,,,,,R_2t3zeFbaeAHJsoP,2022-09-08_22h42.32.762,jpn_C03,2022.1.2,MacIntel,62.5,,,,,,,,,,,,,CartoonStims/cowboy_shoot_doctor_r.jpg,,,,,,,,,,,,,,,,,,,,,,,,,,,,,,,パツ　ムク　ピポ,right,13.099,,,,,,0,17,17,32,1,,,,,,,,,,,,,,,,,,,,,,,,,パツ　ムク　ピポ,パツ　ムク　ピポ,0
,,,,,,,,,R_2t3zeFbaeAHJsoP,2022-09-08_22h42.32.762,jpn_C03,2022.1.2,MacIntel,62.5,,,,,,,,,,,,,CartoonStims/chef_kick_burglar_r_no.jpg,,,,,,,,,,,,,,,,,,,,,,,,,,,,,,,セル　ピク　ホレト　ルピン,right,17.01,,,,,,0,18,18,2,1,,,,,,,,,,,,,,,,,,,,,,,,,ピク　セル　ホレト　ルピン,セル　ピク　ホレト　ルピン,1
,,,,,,,,,R_2t3zeFbaeAHJsoP,2022-09-08_22h42.32.762,jpn_C03,2022.1.2,MacIntel,62.5,,,,,,,,,,,,,CartoonStims/boxer_shoot_burglar_r_no.jpg,,,,,,,,,,,,,,,,,,,,,,,,,,,,,,,パツ　ピク　ドキ　ルピん,right,21.365,,,,,,0,19,19,17,1,,,,,,,,,,,,,,,,,,,,,,,,,ピク　パツ　ドキ　ルピン,パツ　ピク　ドキ　ルピン,1
,,,,,,,,,R_2t3zeFbaeAHJsoP,2022-09-08_22h42.32.762,jpn_C03,2022.1.2,MacIntel,62.5,,,,,,,,,,,,,CartoonStims/boxer_punch_chef_r_no.jpg,,,,,,,,,,,,,,,,,,,,,,,,,,,,,,,プミ　ピク　ドキ　ホレト,right,23.7,,,,,,0,20,20,23,1,,,,,,,,,,,,,,,,,,,,,,,,,ピク　プミ　ドキ　ホレト,プミ　ピク　ドキ　ホレト,1
,,,,,,,,,R_2t3zeFbaeAHJsoP,2022-09-08_22h42.32.762,jpn_C03,2022.1.2,MacIntel,62.5,,,,,,,,,,,,,CartoonStims/boxer_kick_cowboy_r.jpg,,,,,,,,,,,,,,,,,,,,,,,,,,,,,,,セル　ドキ　剥く,right,9.096,,,,,,0,21,21,26,1,,,,,,,,,,,,,,,,,,,,,,,,,セル　ドキ　ムク,セル　ドキ　ムク,0
,,,,,,,,,R_2t3zeFbaeAHJsoP,2022-09-08_22h42.32.762,jpn_C03,2022.1.2,MacIntel,62.5,,,,,,,,,,,,,CartoonStims/chef_shoot_doctor_r_no.jpg,,,,,,,,,,,,,,,,,,,,,,,,,,,,,,,パツ　ピク　ホレト　ピポ,right,23.298,,,,,,0,22,22,14,1,,,,,,,,,,,,,,,,,,,,,,,,,ピク　パツ　ホレト　ピポ,パツ　ピク　ホレト　ピポ,1
,,,,,,,,,R_2t3zeFbaeAHJsoP,2022-09-08_22h42.32.762,jpn_C03,2022.1.2,MacIntel,62.5,,,,,,,,,,,,,CartoonStims/artist_punch_burglar_r.jpg,,,,,,,,,,,,,,,,,,,,,,,,,,,,,,,プミ　シド　ルピン,right,14.411,,,,,,0,23,23,33,1,,,,,,,,,,,,,,,,,,,,,,,,,プミ　シド　ルピン,プミ　シド　ルピン,0
,,,,,,,,,R_2t3zeFbaeAHJsoP,2022-09-08_22h42.32.762,jpn_C03,2022.1.2,MacIntel,62.5,,,,,,,,,,,,,CartoonStims/artist_point_burglar_r_no.jpg,,,,,,,,,,,,,,,,,,,,,,,,,,,,,,,トマ　ピク　シド　ルピン,right,14.648,,,,,,0,24,24,6,1,,,,,,,,,,,,,,,,,,,,,,,,,ピク　トマ　シド　ルピン,トマ　ピク　シド　ルピン,1
,,,,,,,,,R_2t3zeFbaeAHJsoP,2022-09-08_22h42.32.762,jpn_C03,2022.1.2,MacIntel,62.5,,,,,,,,,,,,,CartoonStims/artist_shoot_chef_r_no.jpg,,,,,,,,,,,,,,,,,,,,,,,,,,,,,,,パツ　ピク　シド　ホレト,right,18.099,,,,,,0,25,25,12,1,,,,,,,,,,,,,,,,,,,,,,,,,ピク　パツ　シド　ホレト,パツ　ピク　シド　ホレト,1
,,,,,,,,,R_2t3zeFbaeAHJsoP,2022-09-08_22h42.32.762,jpn_C03,2022.1.2,MacIntel,62.5,,,,,,,,,,,,,CartoonStims/doctor_punch_burglar_r_no.jpg,,,,,,,,,,,,,,,,,,,,,,,,,,,,,,,プミ　ピク　ピポ　ルピン,right,21.263,,,,,,0,26,26,22,1,,,,,,,,,,,,,,,,,,,,,,,,,ピク　プミ　ピポ　ルピン,プミ　ピク　ピポ　ルピン,1
,,,,,,,,,R_2t3zeFbaeAHJsoP,2022-09-08_22h42.32.762,jpn_C03,2022.1.2,MacIntel,62.5,,,,,,,,,,,,,CartoonStims/chef_punch_boxer_r_no.jpg,,,,,,,,,,,,,,,,,,,,,,,,,,,,,,,プミ　ピク　ホレト　ドキ,right,15.542,,,,,,0,27,27,20,1,,,,,,,,,,,,,,,,,,,,,,,,,ピク　プミ　ホレト　ドキ,プミ　ピク　ホレト　ドキ,1
,,,,,,,,,R_2t3zeFbaeAHJsoP,2022-09-08_22h42.32.762,jpn_C03,2022.1.2,MacIntel,62.5,,,,,,,,,,,,,CartoonStims/artist_punch_cowboy_r_no.jpg,,,,,,,,,,,,,,,,,,,,,,,,,,,,,,,プミ　ピク　シド　ムク,right,14.727,,,,,,0,28,28,18,1,,,,,,,,,,,,,,,,,,,,,,,,,ピク　プミ　シド　ムク,プミ　ピク　シド　ムク,1
,,,,,,,,,R_2t3zeFbaeAHJsoP,2022-09-08_22h42.32.762,jpn_C03,2022.1.2,MacIntel,62.5,,,,,,,,,,,,,CartoonStims/chef_point_burglar_r.jpg,,,,,,,,,,,,,,,,,,,,,,,,,,,,,,,トマ　ホレト　ルピン,right,12.562,,,,,,0,29,29,29,1,,,,,,,,,,,,,,,,,,,,,,,,,トマ　ホレト　ルピン,トマ　ホレト　ルピン,0
,,,,,,,,,R_2t3zeFbaeAHJsoP,2022-09-08_22h42.32.762,jpn_C03,2022.1.2,MacIntel,62.5,,,,,,,,,,,,,CartoonStims/doctor_kick_cowboy_r_no.jpg,,,,,,,,,,,,,,,,,,,,,,,,,,,,,,,セル　ピク　ピポ　ムク,right,15.209,,,,,,0,30,30,4,1,,,,,,,,,,,,,,,,,,,,,,,,,ピク　セル　ピポ　ムク,セル　ピク　ピポ　ムク,1
,,,,,,,,,R_2t3zeFbaeAHJsoP,2022-09-08_22h42.32.762,jpn_C03,2022.1.2,MacIntel,62.5,,,,,,,,,,,,,CartoonStims/doctor_punch_boxer_r.jpg,,,,,,,,,,,,,,,,,,,,,,,,,,,,,,,プミ　ピポ　ドキ,right,8.499,,,,,,0,31,31,34,1,,,,,,,,,,,,,,,,,,,,,,,,,プミ　ピポ　ドキ,プミ　ピポ　ドキ,0
,,,,,,,,,R_2t3zeFbaeAHJsoP,2022-09-08_22h42.32.762,jpn_C03,2022.1.2,MacIntel,62.5,,,,,,,,,,,,,CartoonStims/cowboy_kick_chef_r_no.jpg,,,,,,,,,,,,,,,,,,,,,,,,,,,,,,,セル　ピク　ムク　ホレト,right,12.865,,,,,,0,32,32,3,1,,,,,,,,,,,,,,,,,,,,,,,,,ピク　セル　ムク　ホレト,セル　ピク　ムク　ホレト,1
,,,,,,,,,R_2t3zeFbaeAHJsoP,2022-09-08_22h42.32.762,jpn_C03,2022.1.2,MacIntel,62.5,,,,,,,,,,,,,CartoonStims/cowboy_point_doctor_r_no.jpg,,,,,,,,,,,,,,,,,,,,,,,,,,,,,,,トマ　ピク　ムク　ピポ,right,14.993,,,,,,0,33,33,9,1,,,,,,,,,,,,,,,,,,,,,,,,,ピク　トマ　ムク　ピポ,トマ　ピク　ムク　ピポ,1
,,,,,,,,,R_2t3zeFbaeAHJsoP,2022-09-08_22h42.32.762,jpn_C03,2022.1.2,MacIntel,62.5,,,,,,,,,,,,,CartoonStims/burglar_kick_artist_r_no.jpg,,,,,,,,,,,,,,,,,,,,,,,,,,,,,,,セル　ピク　ルピン　シド,right,14.025,,,,,,0,34,34,1,1,,,,,,,,,,,,,,,,,,,,,,,,,ピク　セル　ルピン　シド,セル　ピク　ルピン　シド,1
,,,,,,,,,R_2t3zeFbaeAHJsoP,2022-09-08_22h42.32.762,jpn_C03,2022.1.2,MacIntel,62.5,,,,,,,,,,,,,CartoonStims/boxer_point_artist_r_no.jpg,,,,,,,,,,,,,,,,,,,,,,,,,,,,,,,トマ　ピク　ドキ　シド,right,11.177,,,,,,0,35,35,11,1,,,,,,,,,,,,,,,,,,,,,,,,,ピク　トマ　ドキ　シド,トマ　ピク　ドキ　シド,1
,,,,,,,,,R_2t3zeFbaeAHJsoP,2022-09-08_22h42.32.762,jpn_C03,2022.1.2,MacIntel,62.5,,,,,,,,,,,,,,,,,,,,,,,,,,,,,,,,,,,,,,,,,,,,,,,,,,,,,,,,,,,space,3.268,0,2,2,2,1,VNegCondition.xlsx,"ここではこの言語における否定の文を学習していただきます。引き続き注意して、 聞こえた音を復唱してください。

スペースキーを押してください。",1,VNegFCT.xlsx,ここからクイズが始まります。 スクリーンに表示されるテキストに合うイメージを選んでください。,NegTest.xlsx,1,最後にここまで学んだことをアウトプットしていただきます。 テキストボックスにあるイメージを描写するテキストを入力してください。 このタスクでは、 答え合わせは行いません。,0,これですべての実験が終わりました。 お疲れさまです。 この後はアンケートに答えていただきます。,,,,,,,,