key_resp_instr_a.keys,key_resp_instr_a.rt,key_resp_instr_b.keys,key_resp_instr_b.rt,dummy.thisRepN,dummy.thisTrialN,dummy.thisN,dummy.thisIndex,dummy.ran,participant,date,expName,psychopyVersion,OS,frameRate,key_resp_instr1.keys,key_resp_instr1.rt,key_resp.keys,key_resp.rt,exp_loop.thisRepN,exp_loop.thisTrialN,exp_loop.thisN,exp_loop.thisIndex,exp_loop.ran,Word,English,Flip,Path,Audio,key_resp_instr2.keys,key_resp_instr2.rt,key_resp_fct.keys,key_resp_fct.corr,key_resp_fct.rt,trials.thisRepN,trials.thisTrialN,trials.thisN,trials.thisIndex,trials.ran,fct_loop.thisRepN,fct_loop.thisTrialN,fct_loop.thisN,fct_loop.thisIndex,fct_loop.ran,left_img,word,right_img,correctans,correct_img,audio,incorrect_feedback,trials_2.thisRepN,trials_2.thisTrialN,trials_2.thisN,trials_2.thisIndex,trials_2.ran,key_resp_instr3.keys,key_resp_instr3.rt,textbox.text,key_resp_2.keys,key_resp_2.rt,fb_yn.thisRepN,fb_yn.thisTrialN,fb_yn.thisN,fb_yn.thisIndex,fb_yn.ran,gather_loop.thisRepN,gather_loop.thisTrialN,gather_loop.thisN,gather_loop.thisIndex,gather_loop.ran,Text,Wordbank,key_resp_instr4.keys,key_resp_instr4.rt,master_loop.thisRepN,master_loop.thisTrialN,master_loop.thisN,master_loop.thisIndex,master_loop.ran,exposure_file,instr_1,exp_reps,fct_file,instr_2,gather_file,gather_reps,instr_3,fReps,instr_4,trials_4.thisRepN,trials_4.thisTrialN,trials_4.thisN,trials_4.thisIndex,trials_4.ran,trials_3.thisRepN,trials_3.thisTrialN,trials_3.thisN,trials_3.thisIndex,trials_3.ran,NegVSentence,VNegSentence,NegTF
space,7.2657,space,23.1514,0,0,0,0,1,R_29pVfRS7pL1qY1P,2022-09-03_09h10.24.631,jpn_C03,2022.1.2,Win32,60.26637739,,,,,,,,,,,,,,,,,,,,,,,,,,,,,,,,,,,,,,,,,,,,,,,,,,,,,,,,,,,,,,,,,,,,,,,,,,,,,,,,,,,,,,,,
,,,,,,,,,R_29pVfRS7pL1qY1P,2022-09-03_09h10.24.631,jpn_C03,2022.1.2,Win32,60.26637739,space,75.9081,space,5.771,0,0,0,4,1,ピポ,doctor,,CartoonStims/doctor_r.jpg,audio/pipo.mp3,,,,,,,,,,,,,,,,,,,,,,,,,,,,,,,,,,,,,,,,,,,,,,,,,,,,,,,,,,,,,,,,,,,,,,,,,,
,,,,,,,,,R_29pVfRS7pL1qY1P,2022-09-03_09h10.24.631,jpn_C03,2022.1.2,Win32,60.26637739,,,space,6.4536,0,1,1,3,1,ムク,cowboy,,CartoonStims/cowboy_r.jpg,audio/muku.mp3,,,,,,,,,,,,,,,,,,,,,,,,,,,,,,,,,,,,,,,,,,,,,,,,,,,,,,,,,,,,,,,,,,,,,,,,,,
,,,,,,,,,R_29pVfRS7pL1qY1P,2022-09-03_09h10.24.631,jpn_C03,2022.1.2,Win32,60.26637739,,,space,5.586,0,2,2,5,1,ドキ,boxer,,CartoonStims/boxer_r.jpg,audio/doki.mp3,,,,,,,,,,,,,,,,,,,,,,,,,,,,,,,,,,,,,,,,,,,,,,,,,,,,,,,,,,,,,,,,,,,,,,,,,,
,,,,,,,,,R_29pVfRS7pL1qY1P,2022-09-03_09h10.24.631,jpn_C03,2022.1.2,Win32,60.26637739,,,space,4.3821,0,3,3,0,1,シド,artist,,CartoonStims/artist_r.jpg,audio/sido.mp3,,,,,,,,,,,,,,,,,,,,,,,,,,,,,,,,,,,,,,,,,,,,,,,,,,,,,,,,,,,,,,,,,,,,,,,,,,
,,,,,,,,,R_29pVfRS7pL1qY1P,2022-09-03_09h10.24.631,jpn_C03,2022.1.2,Win32,60.26637739,,,space,5.3049,0,4,4,1,1,ルピン,burglar,,CartoonStims/burglar_r.jpg,audio/lupin.mp3,,,,,,,,,,,,,,,,,,,,,,,,,,,,,,,,,,,,,,,,,,,,,,,,,,,,,,,,,,,,,,,,,,,,,,,,,,
,,,,,,,,,R_29pVfRS7pL1qY1P,2022-09-03_09h10.24.631,jpn_C03,2022.1.2,Win32,60.26637739,,,space,4.2158,0,5,5,2,1,ホレト,chef,,CartoonStims/chef_r.jpg,audio/horeto.mp3,,,,,,,,,,,,,,,,,,,,,,,,,,,,,,,,,,,,,,,,,,,,,,,,,,,,,,,,,,,,,,,,,,,,,,,,,,
,,,,,,,,,R_29pVfRS7pL1qY1P,2022-09-03_09h10.24.631,jpn_C03,2022.1.2,Win32,60.26637739,,,space,4.7033,1,0,6,0,1,シド,artist,,CartoonStims/artist_r.jpg,audio/sido.mp3,,,,,,,,,,,,,,,,,,,,,,,,,,,,,,,,,,,,,,,,,,,,,,,,,,,,,,,,,,,,,,,,,,,,,,,,,,
,,,,,,,,,R_29pVfRS7pL1qY1P,2022-09-03_09h10.24.631,jpn_C03,2022.1.2,Win32,60.26637739,,,space,4.2432,1,1,7,2,1,ホレト,chef,,CartoonStims/chef_r.jpg,audio/horeto.mp3,,,,,,,,,,,,,,,,,,,,,,,,,,,,,,,,,,,,,,,,,,,,,,,,,,,,,,,,,,,,,,,,,,,,,,,,,,
,,,,,,,,,R_29pVfRS7pL1qY1P,2022-09-03_09h10.24.631,jpn_C03,2022.1.2,Win32,60.26637739,,,space,2.8227,1,2,8,5,1,ドキ,boxer,,CartoonStims/boxer_r.jpg,audio/doki.mp3,,,,,,,,,,,,,,,,,,,,,,,,,,,,,,,,,,,,,,,,,,,,,,,,,,,,,,,,,,,,,,,,,,,,,,,,,,
,,,,,,,,,R_29pVfRS7pL1qY1P,2022-09-03_09h10.24.631,jpn_C03,2022.1.2,Win32,60.26637739,,,space,2.8339,1,3,9,1,1,ルピン,burglar,,CartoonStims/burglar_r.jpg,audio/lupin.mp3,,,,,,,,,,,,,,,,,,,,,,,,,,,,,,,,,,,,,,,,,,,,,,,,,,,,,,,,,,,,,,,,,,,,,,,,,,
,,,,,,,,,R_29pVfRS7pL1qY1P,2022-09-03_09h10.24.631,jpn_C03,2022.1.2,Win32,60.26637739,,,space,5.7412,1,4,10,4,1,ピポ,doctor,,CartoonStims/doctor_r.jpg,audio/pipo.mp3,,,,,,,,,,,,,,,,,,,,,,,,,,,,,,,,,,,,,,,,,,,,,,,,,,,,,,,,,,,,,,,,,,,,,,,,,,
,,,,,,,,,R_29pVfRS7pL1qY1P,2022-09-03_09h10.24.631,jpn_C03,2022.1.2,Win32,60.26637739,,,space,4.9434,1,5,11,3,1,ムク,cowboy,,CartoonStims/cowboy_r.jpg,audio/muku.mp3,,,,,,,,,,,,,,,,,,,,,,,,,,,,,,,,,,,,,,,,,,,,,,,,,,,,,,,,,,,,,,,,,,,,,,,,,,
,,,,,,,,,R_29pVfRS7pL1qY1P,2022-09-03_09h10.24.631,jpn_C03,2022.1.2,Win32,60.26637739,,,space,6.184,2,0,12,0,1,シド,artist,,CartoonStims/artist_r.jpg,audio/sido.mp3,,,,,,,,,,,,,,,,,,,,,,,,,,,,,,,,,,,,,,,,,,,,,,,,,,,,,,,,,,,,,,,,,,,,,,,,,,
,,,,,,,,,R_29pVfRS7pL1qY1P,2022-09-03_09h10.24.631,jpn_C03,2022.1.2,Win32,60.26637739,,,space,4.2756,2,1,13,3,1,ムク,cowboy,,CartoonStims/cowboy_r.jpg,audio/muku.mp3,,,,,,,,,,,,,,,,,,,,,,,,,,,,,,,,,,,,,,,,,,,,,,,,,,,,,,,,,,,,,,,,,,,,,,,,,,
,,,,,,,,,R_29pVfRS7pL1qY1P,2022-09-03_09h10.24.631,jpn_C03,2022.1.2,Win32,60.26637739,,,space,1.9663,2,2,14,5,1,ドキ,boxer,,CartoonStims/boxer_r.jpg,audio/doki.mp3,,,,,,,,,,,,,,,,,,,,,,,,,,,,,,,,,,,,,,,,,,,,,,,,,,,,,,,,,,,,,,,,,,,,,,,,,,
,,,,,,,,,R_29pVfRS7pL1qY1P,2022-09-03_09h10.24.631,jpn_C03,2022.1.2,Win32,60.26637739,,,space,1.6994,2,3,15,2,1,ホレト,chef,,CartoonStims/chef_r.jpg,audio/horeto.mp3,,,,,,,,,,,,,,,,,,,,,,,,,,,,,,,,,,,,,,,,,,,,,,,,,,,,,,,,,,,,,,,,,,,,,,,,,,
,,,,,,,,,R_29pVfRS7pL1qY1P,2022-09-03_09h10.24.631,jpn_C03,2022.1.2,Win32,60.26637739,,,space,1.4721,2,4,16,1,1,ルピン,burglar,,CartoonStims/burglar_r.jpg,audio/lupin.mp3,,,,,,,,,,,,,,,,,,,,,,,,,,,,,,,,,,,,,,,,,,,,,,,,,,,,,,,,,,,,,,,,,,,,,,,,,,
,,,,,,,,,R_29pVfRS7pL1qY1P,2022-09-03_09h10.24.631,jpn_C03,2022.1.2,Win32,60.26637739,,,space,7.5141,2,5,17,4,1,ピポ,doctor,,CartoonStims/doctor_r.jpg,audio/pipo.mp3,,,,,,,,,,,,,,,,,,,,,,,,,,,,,,,,,,,,,,,,,,,,,,,,,,,,,,,,,,,,,,,,,,,,,,,,,,
,,,,,,,,,R_29pVfRS7pL1qY1P,2022-09-03_09h10.24.631,jpn_C03,2022.1.2,Win32,60.26637739,,,,,,,,,,,,,,,space,4.207,left,1,1.1663,0,0,0,0,1,,,,,,,,,,,,,,,,,,,,,,,,,,,,,,,,,,,,,,,,,,,,,,,,,,,,,,,,,,,,,,,,
,,,,,,,,,R_29pVfRS7pL1qY1P,2022-09-03_09h10.24.631,jpn_C03,2022.1.2,Win32,60.26637739,,,,,,,,,,,,,,,,,,,,,,,,,0,0,0,4,1,CartoonStims/doctor_r.jpg,ピポ,CartoonStims/boxer_r.jpg,left,CartoonStims/doctor_r.jpg,audio/pipo.mp3,残念！ こちらが正しい画像です。,,,,,,,,,,,,,,,,,,,,,,,,,,,,,,,,,,,,,,,,,,,,,,,,,,,,
,,,,,,,,,R_29pVfRS7pL1qY1P,2022-09-03_09h10.24.631,jpn_C03,2022.1.2,Win32,60.26637739,,,,,,,,,,,,,,,,,right,1,0.3454,,,,,,,,,,,,,,,,,,0,0,0,0,1,,,,,,,,,,,,,,,,,,,,,,,,,,,,,,,,,,,,,,,,,,,,,,,
,,,,,,,,,R_29pVfRS7pL1qY1P,2022-09-03_09h10.24.631,jpn_C03,2022.1.2,Win32,60.26637739,,,,,,,,,,,,,,,,,,,,,,,,,0,1,1,7,1,CartoonStims/cowboy_r.jpg,ルピン,CartoonStims/burglar_r.jpg,right,CartoonStims/burglar_r.jpg,audio/lupin.mp3,残念！ こちらが正しい画像です。,,,,,,,,,,,,,,,,,,,,,,,,,,,,,,,,,,,,,,,,,,,,,,,,,,,,
,,,,,,,,,R_29pVfRS7pL1qY1P,2022-09-03_09h10.24.631,jpn_C03,2022.1.2,Win32,60.26637739,,,,,,,,,,,,,,,,,right,1,1.0667,,,,,,,,,,,,,,,,,,0,0,0,0,1,,,,,,,,,,,,,,,,,,,,,,,,,,,,,,,,,,,,,,,,,,,,,,,
,,,,,,,,,R_29pVfRS7pL1qY1P,2022-09-03_09h10.24.631,jpn_C03,2022.1.2,Win32,60.26637739,,,,,,,,,,,,,,,,,,,,,,,,,0,2,2,9,1,CartoonStims/boxer_r.jpg,ムク,CartoonStims/cowboy_r.jpg,right,CartoonStims/cowboy_r.jpg,audio/muku.mp3,残念！ こちらが正しい画像です。,,,,,,,,,,,,,,,,,,,,,,,,,,,,,,,,,,,,,,,,,,,,,,,,,,,,
,,,,,,,,,R_29pVfRS7pL1qY1P,2022-09-03_09h10.24.631,jpn_C03,2022.1.2,Win32,60.26637739,,,,,,,,,,,,,,,,,right,1,2.3938,,,,,,,,,,,,,,,,,,0,0,0,0,1,,,,,,,,,,,,,,,,,,,,,,,,,,,,,,,,,,,,,,,,,,,,,,,
,,,,,,,,,R_29pVfRS7pL1qY1P,2022-09-03_09h10.24.631,jpn_C03,2022.1.2,Win32,60.26637739,,,,,,,,,,,,,,,,,,,,,,,,,0,3,3,10,1,CartoonStims/artist_r.jpg,ピポ,CartoonStims/doctor_r.jpg,right,CartoonStims/doctor_r.jpg,audio/pipo.mp3,残念！ こちらが正しい画像です。,,,,,,,,,,,,,,,,,,,,,,,,,,,,,,,,,,,,,,,,,,,,,,,,,,,,
,,,,,,,,,R_29pVfRS7pL1qY1P,2022-09-03_09h10.24.631,jpn_C03,2022.1.2,Win32,60.26637739,,,,,,,,,,,,,,,,,left,1,0.7507,0,0,0,0,1,,,,,,,,,,,,,,,,,,,,,,,,,,,,,,,,,,,,,,,,,,,,,,,,,,,,,,,,,,,,,,,,
,,,,,,,,,R_29pVfRS7pL1qY1P,2022-09-03_09h10.24.631,jpn_C03,2022.1.2,Win32,60.26637739,,,,,,,,,,,,,,,,,,,,,,,,,0,4,4,5,1,CartoonStims/boxer_r.jpg,ドキ,CartoonStims/artist_r.jpg,left,CartoonStims/boxer_r.jpg,audio/doki.mp3,残念！ こちらが正しい画像です。,,,,,,,,,,,,,,,,,,,,,,,,,,,,,,,,,,,,,,,,,,,,,,,,,,,,
,,,,,,,,,R_29pVfRS7pL1qY1P,2022-09-03_09h10.24.631,jpn_C03,2022.1.2,Win32,60.26637739,,,,,,,,,,,,,,,,,left,1,4.4025,0,0,0,0,1,,,,,,,,,,,,,,,,,,,,,,,,,,,,,,,,,,,,,,,,,,,,,,,,,,,,,,,,,,,,,,,,
,,,,,,,,,R_29pVfRS7pL1qY1P,2022-09-03_09h10.24.631,jpn_C03,2022.1.2,Win32,60.26637739,,,,,,,,,,,,,,,,,,,,,,,,,0,5,5,3,1,CartoonStims/cowboy_r.jpg,ムク,CartoonStims/doctor_r.jpg,left,CartoonStims/cowboy_r.jpg,audio/muku.mp3,残念！ こちらが正しい画像です。,,,,,,,,,,,,,,,,,,,,,,,,,,,,,,,,,,,,,,,,,,,,,,,,,,,,
,,,,,,,,,R_29pVfRS7pL1qY1P,2022-09-03_09h10.24.631,jpn_C03,2022.1.2,Win32,60.26637739,,,,,,,,,,,,,,,,,right,1,1.3499,,,,,,,,,,,,,,,,,,0,0,0,0,1,,,,,,,,,,,,,,,,,,,,,,,,,,,,,,,,,,,,,,,,,,,,,,,
,,,,,,,,,R_29pVfRS7pL1qY1P,2022-09-03_09h10.24.631,jpn_C03,2022.1.2,Win32,60.26637739,,,,,,,,,,,,,,,,,,,,,,,,,0,6,6,11,1,CartoonStims/burglar_r.jpg,ドキ,CartoonStims/boxer_r.jpg,right,CartoonStims/boxer_r.jpg,audio/doki.mp3,残念！ こちらが正しい画像です。,,,,,,,,,,,,,,,,,,,,,,,,,,,,,,,,,,,,,,,,,,,,,,,,,,,,
,,,,,,,,,R_29pVfRS7pL1qY1P,2022-09-03_09h10.24.631,jpn_C03,2022.1.2,Win32,60.26637739,,,,,,,,,,,,,,,,,left,1,0.5239,0,0,0,0,1,,,,,,,,,,,,,,,,,,,,,,,,,,,,,,,,,,,,,,,,,,,,,,,,,,,,,,,,,,,,,,,,
,,,,,,,,,R_29pVfRS7pL1qY1P,2022-09-03_09h10.24.631,jpn_C03,2022.1.2,Win32,60.26637739,,,,,,,,,,,,,,,,,,,,,,,,,0,7,7,2,1,CartoonStims/chef_r.jpg,ホレト,CartoonStims/cowboy_r.jpg,left,CartoonStims/chef_r.jpg,audio/horeto.mp3,残念！ こちらが正しい画像です。,,,,,,,,,,,,,,,,,,,,,,,,,,,,,,,,,,,,,,,,,,,,,,,,,,,,
,,,,,,,,,R_29pVfRS7pL1qY1P,2022-09-03_09h10.24.631,jpn_C03,2022.1.2,Win32,60.26637739,,,,,,,,,,,,,,,,,right,1,1.6712,,,,,,,,,,,,,,,,,,0,0,0,0,1,,,,,,,,,,,,,,,,,,,,,,,,,,,,,,,,,,,,,,,,,,,,,,,
,,,,,,,,,R_29pVfRS7pL1qY1P,2022-09-03_09h10.24.631,jpn_C03,2022.1.2,Win32,60.26637739,,,,,,,,,,,,,,,,,,,,,,,,,0,8,8,8,1,CartoonStims/doctor_r.jpg,ホレト,CartoonStims/chef_r.jpg,right,CartoonStims/chef_r.jpg,audio/horeto.mp3,残念！ こちらが正しい画像です。,,,,,,,,,,,,,,,,,,,,,,,,,,,,,,,,,,,,,,,,,,,,,,,,,,,,
,,,,,,,,,R_29pVfRS7pL1qY1P,2022-09-03_09h10.24.631,jpn_C03,2022.1.2,Win32,60.26637739,,,,,,,,,,,,,,,,,left,1,0.6081,0,0,0,0,1,,,,,,,,,,,,,,,,,,,,,,,,,,,,,,,,,,,,,,,,,,,,,,,,,,,,,,,,,,,,,,,,
,,,,,,,,,R_29pVfRS7pL1qY1P,2022-09-03_09h10.24.631,jpn_C03,2022.1.2,Win32,60.26637739,,,,,,,,,,,,,,,,,,,,,,,,,0,9,9,1,1,CartoonStims/burglar_r.jpg,ルピン,CartoonStims/chef_r.jpg,left,CartoonStims/burglar_r.jpg,audio/lupin.mp3,残念！ こちらが正しい画像です。,,,,,,,,,,,,,,,,,,,,,,,,,,,,,,,,,,,,,,,,,,,,,,,,,,,,
,,,,,,,,,R_29pVfRS7pL1qY1P,2022-09-03_09h10.24.631,jpn_C03,2022.1.2,Win32,60.26637739,,,,,,,,,,,,,,,,,right,1,2.1727,,,,,,,,,,,,,,,,,,0,0,0,0,1,,,,,,,,,,,,,,,,,,,,,,,,,,,,,,,,,,,,,,,,,,,,,,,
,,,,,,,,,R_29pVfRS7pL1qY1P,2022-09-03_09h10.24.631,jpn_C03,2022.1.2,Win32,60.26637739,,,,,,,,,,,,,,,,,,,,,,,,,0,10,10,6,1,CartoonStims/chef_r.jpg,シド,CartoonStims/artist_r.jpg,right,CartoonStims/artist_r.jpg,audio/sido.mp3,残念！ こちらが正しい画像です。,,,,,,,,,,,,,,,,,,,,,,,,,,,,,,,,,,,,,,,,,,,,,,,,,,,,
,,,,,,,,,R_29pVfRS7pL1qY1P,2022-09-03_09h10.24.631,jpn_C03,2022.1.2,Win32,60.26637739,,,,,,,,,,,,,,,,,left,1,1.1263,0,0,0,0,1,,,,,,,,,,,,,,,,,,,,,,,,,,,,,,,,,,,,,,,,,,,,,,,,,,,,,,,,,,,,,,,,
,,,,,,,,,R_29pVfRS7pL1qY1P,2022-09-03_09h10.24.631,jpn_C03,2022.1.2,Win32,60.26637739,,,,,,,,,,,,,,,,,,,,,,,,,0,11,11,0,1,CartoonStims/artist_r.jpg,シド,CartoonStims/burglar_r.jpg,left,CartoonStims/artist_r.jpg,audio/sido.mp3,残念！ こちらが正しい画像です。,,,,,,,,,,,,,,,,,,,,,,,,,,,,,,,,,,,,,,,,,,,,,,,,,,,,
,,,,,,,,,R_29pVfRS7pL1qY1P,2022-09-03_09h10.24.631,jpn_C03,2022.1.2,Win32,60.26637739,,,,,,,,,,,,,,,,,,,,,,,,,,,,,,,,,,,,,,,,,,space,5.1161,シド,right,18.4118,0,0,0,0,1,,,,,,,,,,,,,,,,,,,,,,,,,,,,,,,,,,,,,
,,,,,,,,,R_29pVfRS7pL1qY1P,2022-09-03_09h10.24.631,jpn_C03,2022.1.2,Win32,60.26637739,,,,,,,,,,,,,CartoonStims/cowboy_r.jpg,audio/muku.mp3,,,,,,,,,,,,,,,,,,,,,,,,,,,,,,,,,,,,,,0,0,0,3,1,ムク,,,,,,,,,,,,,,,,,,,,,,,,,,,,,,,
,,,,,,,,,R_29pVfRS7pL1qY1P,2022-09-03_09h10.24.631,jpn_C03,2022.1.2,Win32,60.26637739,,,,,,,,,,,,,,,,,,,,,,,,,,,,,,,,,,,,,,,,,,,,シド,right,3.7394,0,0,0,0,1,,,,,,,,,,,,,,,,,,,,,,,,,,,,,,,,,,,,,
,,,,,,,,,R_29pVfRS7pL1qY1P,2022-09-03_09h10.24.631,jpn_C03,2022.1.2,Win32,60.26637739,,,,,,,,,,,,,CartoonStims/artist_r.jpg,audio/sido.mp3,,,,,,,,,,,,,,,,,,,,,,,,,,,,,,,,,,,,,,0,1,1,0,1,シド,,,,,,,,,,,,,,,,,,,,,,,,,,,,,,,
,,,,,,,,,R_29pVfRS7pL1qY1P,2022-09-03_09h10.24.631,jpn_C03,2022.1.2,Win32,60.26637739,,,,,,,,,,,,,,,,,,,,,,,,,,,,,,,,,,,,,,,,,,,,くつ,right,21.6022,0,0,0,0,1,,,,,,,,,,,,,,,,,,,,,,,,,,,,,,,,,,,,,
,,,,,,,,,R_29pVfRS7pL1qY1P,2022-09-03_09h10.24.631,jpn_C03,2022.1.2,Win32,60.26637739,,,,,,,,,,,,,CartoonStims/boxer_r.jpg,audio/doki.mp3,,,,,,,,,,,,,,,,,,,,,,,,,,,,,,,,,,,,,,0,2,2,5,1,ドキ,,,,,,,,,,,,,,,,,,,,,,,,,,,,,,,
,,,,,,,,,R_29pVfRS7pL1qY1P,2022-09-03_09h10.24.631,jpn_C03,2022.1.2,Win32,60.26637739,,,,,,,,,,,,,,,,,,,,,,,,,,,,,,,,,,,,,,,,,,,,ルピン,right,7.3568,0,0,0,0,1,,,,,,,,,,,,,,,,,,,,,,,,,,,,,,,,,,,,,
,,,,,,,,,R_29pVfRS7pL1qY1P,2022-09-03_09h10.24.631,jpn_C03,2022.1.2,Win32,60.26637739,,,,,,,,,,,,,CartoonStims/burglar_r.jpg,audio/lupin.mp3,,,,,,,,,,,,,,,,,,,,,,,,,,,,,,,,,,,,,,0,3,3,1,1,ルピン,,,,,,,,,,,,,,,,,,,,,,,,,,,,,,,
,,,,,,,,,R_29pVfRS7pL1qY1P,2022-09-03_09h10.24.631,jpn_C03,2022.1.2,Win32,60.26637739,,,,,,,,,,,,,,,,,,,,,,,,,,,,,,,,,,,,,,,,,,,,ポピン,right,8.0815,0,0,0,0,1,,,,,,,,,,,,,,,,,,,,,,,,,,,,,,,,,,,,,
,,,,,,,,,R_29pVfRS7pL1qY1P,2022-09-03_09h10.24.631,jpn_C03,2022.1.2,Win32,60.26637739,,,,,,,,,,,,,CartoonStims/chef_r.jpg,audio/horeto.mp3,,,,,,,,,,,,,,,,,,,,,,,,,,,,,,,,,,,,,,0,4,4,2,1,ホレト,,,,,,,,,,,,,,,,,,,,,,,,,,,,,,,
,,,,,,,,,R_29pVfRS7pL1qY1P,2022-09-03_09h10.24.631,jpn_C03,2022.1.2,Win32,60.26637739,,,,,,,,,,,,,,,,,,,,,,,,,,,,,,,,,,,,,,,,,,,,ムク,right,4.8674,0,0,0,0,1,,,,,,,,,,,,,,,,,,,,,,,,,,,,,,,,,,,,,
,,,,,,,,,R_29pVfRS7pL1qY1P,2022-09-03_09h10.24.631,jpn_C03,2022.1.2,Win32,60.26637739,,,,,,,,,,,,,CartoonStims/doctor_r.jpg,audio/pipo.mp3,,,,,,,,,,,,,,,,,,,,,,,,,,,,,,,,,,,,,,0,5,5,4,1,ピポ,,,,,,,,,,,,,,,,,,,,,,,,,,,,,,,
,,,,,,,,,R_29pVfRS7pL1qY1P,2022-09-03_09h10.24.631,jpn_C03,2022.1.2,Win32,60.26637739,,,,,,,,,,,,,,,,,,,,,,,,,,,,,,,,,,,,,,,,,,,,シド,right,3.2646,0,0,0,0,1,,,,,,,,,,,,,,,,,,,,,,,,,,,,,,,,,,,,,
,,,,,,,,,R_29pVfRS7pL1qY1P,2022-09-03_09h10.24.631,jpn_C03,2022.1.2,Win32,60.26637739,,,,,,,,,,,,,CartoonStims/artist_r.jpg,audio/sido.mp3,,,,,,,,,,,,,,,,,,,,,,,,,,,,,,,,,,,,,,1,0,6,0,1,シド,,,,,,,,,,,,,,,,,,,,,,,,,,,,,,,
,,,,,,,,,R_29pVfRS7pL1qY1P,2022-09-03_09h10.24.631,jpn_C03,2022.1.2,Win32,60.26637739,,,,,,,,,,,,,,,,,,,,,,,,,,,,,,,,,,,,,,,,,,,,ホレト,right,3.9691,0,0,0,0,1,,,,,,,,,,,,,,,,,,,,,,,,,,,,,,,,,,,,,
,,,,,,,,,R_29pVfRS7pL1qY1P,2022-09-03_09h10.24.631,jpn_C03,2022.1.2,Win32,60.26637739,,,,,,,,,,,,,CartoonStims/chef_r.jpg,audio/horeto.mp3,,,,,,,,,,,,,,,,,,,,,,,,,,,,,,,,,,,,,,1,1,7,2,1,ホレト,,,,,,,,,,,,,,,,,,,,,,,,,,,,,,,
,,,,,,,,,R_29pVfRS7pL1qY1P,2022-09-03_09h10.24.631,jpn_C03,2022.1.2,Win32,60.26637739,,,,,,,,,,,,,,,,,,,,,,,,,,,,,,,,,,,,,,,,,,,,ピポ,right,7.9783,0,0,0,0,1,,,,,,,,,,,,,,,,,,,,,,,,,,,,,,,,,,,,,
,,,,,,,,,R_29pVfRS7pL1qY1P,2022-09-03_09h10.24.631,jpn_C03,2022.1.2,Win32,60.26637739,,,,,,,,,,,,,CartoonStims/cowboy_r.jpg,audio/muku.mp3,,,,,,,,,,,,,,,,,,,,,,,,,,,,,,,,,,,,,,1,2,8,3,1,ムク,,,,,,,,,,,,,,,,,,,,,,,,,,,,,,,
,,,,,,,,,R_29pVfRS7pL1qY1P,2022-09-03_09h10.24.631,jpn_C03,2022.1.2,Win32,60.26637739,,,,,,,,,,,,,,,,,,,,,,,,,,,,,,,,,,,,,,,,,,,,ちよ,right,20.1376,0,0,0,0,1,,,,,,,,,,,,,,,,,,,,,,,,,,,,,,,,,,,,,
,,,,,,,,,R_29pVfRS7pL1qY1P,2022-09-03_09h10.24.631,jpn_C03,2022.1.2,Win32,60.26637739,,,,,,,,,,,,,CartoonStims/boxer_r.jpg,audio/doki.mp3,,,,,,,,,,,,,,,,,,,,,,,,,,,,,,,,,,,,,,1,3,9,5,1,ドキ,,,,,,,,,,,,,,,,,,,,,,,,,,,,,,,
,,,,,,,,,R_29pVfRS7pL1qY1P,2022-09-03_09h10.24.631,jpn_C03,2022.1.2,Win32,60.26637739,,,,,,,,,,,,,,,,,,,,,,,,,,,,,,,,,,,,,,,,,,,,ピポ,right,5.6963,0,0,0,0,1,,,,,,,,,,,,,,,,,,,,,,,,,,,,,,,,,,,,,
,,,,,,,,,R_29pVfRS7pL1qY1P,2022-09-03_09h10.24.631,jpn_C03,2022.1.2,Win32,60.26637739,,,,,,,,,,,,,CartoonStims/doctor_r.jpg,audio/pipo.mp3,,,,,,,,,,,,,,,,,,,,,,,,,,,,,,,,,,,,,,1,4,10,4,1,ピポ,,,,,,,,,,,,,,,,,,,,,,,,,,,,,,,
,,,,,,,,,R_29pVfRS7pL1qY1P,2022-09-03_09h10.24.631,jpn_C03,2022.1.2,Win32,60.26637739,,,,,,,,,,,,,,,,,,,,,,,,,,,,,,,,,,,,,,,,,,,,ルピン,right,3.0493,0,0,0,0,1,,,,,,,,,,,,,,,,,,,,,,,,,,,,,,,,,,,,,
,,,,,,,,,R_29pVfRS7pL1qY1P,2022-09-03_09h10.24.631,jpn_C03,2022.1.2,Win32,60.26637739,,,,,,,,,,,,,CartoonStims/burglar_r.jpg,audio/lupin.mp3,,,,,,,,,,,,,,,,,,,,,,,,,,,,,,,,,,,,,,1,5,11,1,1,ルピン,,,,,,,,,,,,,,,,,,,,,,,,,,,,,,,
,,,,,,,,,R_29pVfRS7pL1qY1P,2022-09-03_09h10.24.631,jpn_C03,2022.1.2,Win32,60.26637739,,,,,,,,,,,,,,,,,,,,,,,,,,,,,,,,,,,,,,,,,,,,,,,,,,,,,,,,,,,space,23.6905,0,0,0,0,1,NounExposure.xlsx,"最初のトライアルでは、 画像が表示され、 その画像の下に単語が出てきます。 またこの単語の音も聞くことができます。 この音を大きな声で復唱してください。 そしてこの画像がどのような単語を示しているのか, 考えてみてください。 その後、 続きのボタンを押すと次の単語の学習が始まります。

スペースキーを押して、学習を始めましょう。",3,NounFCT.xlsx,ここから語彙のクイズが始まります。スクリーンに表示される単語に合う画像をキーボードの右と左の矢印キーを使って選択してください。,NounTest.xlsx,2,次に、これまで学習してきたことをアウトプットしていただきます。 表示される画像を描写していると思う単語を、テキストボックスにタイプしてください。,1,"ここまでが最初のトライアルです。ここで休憩をとっても構いません。

休憩が済みましたら、スペースキーを押して続きを始めましょう。",,,,,,,,,,,,,
,,,,,,,,,R_29pVfRS7pL1qY1P,2022-09-03_09h10.24.631,jpn_C03,2022.1.2,Win32,60.26637739,space,4.7091,space,10.038,0,0,0,18,1,トマ　ムク　ドキ,,,CartoonStims/cowboy_point_boxer_r.jpg,audio/tomamukudoki.mp3,,,,,,,,,,,,,,,,,,,,,,,,,,,,,,,,,,,,,,,,,,,,,,,,,,,,,,,,,,,,,,,,,,,,,,,,,,
,,,,,,,,,R_29pVfRS7pL1qY1P,2022-09-03_09h10.24.631,jpn_C03,2022.1.2,Win32,60.26637739,,,space,8.6149,0,1,1,14,1,トマ　ルピン　ムク,,,CartoonStims/burglar_point_cowboy_r.jpg,audio/tomalupinmuku.mp3,,,,,,,,,,,,,,,,,,,,,,,,,,,,,,,,,,,,,,,,,,,,,,,,,,,,,,,,,,,,,,,,,,,,,,,,,,
,,,,,,,,,R_29pVfRS7pL1qY1P,2022-09-03_09h10.24.631,jpn_C03,2022.1.2,Win32,60.26637739,,,space,9.5455,0,2,2,24,1,パツ　シド　ムク,,,CartoonStims/artist_shoot_cowboy_r.jpg,audio/patsusidomuku.mp3,,,,,,,,,,,,,,,,,,,,,,,,,,,,,,,,,,,,,,,,,,,,,,,,,,,,,,,,,,,,,,,,,,,,,,,,,,
,,,,,,,,,R_29pVfRS7pL1qY1P,2022-09-03_09h10.24.631,jpn_C03,2022.1.2,Win32,60.26637739,,,space,8.585,0,3,3,32,1,パツ　ピポ　ルピン,,,CartoonStims/doctor_shoot_burglar_r.jpg,audio/patsupipolupin.mp3,,,,,,,,,,,,,,,,,,,,,,,,,,,,,,,,,,,,,,,,,,,,,,,,,,,,,,,,,,,,,,,,,,,,,,,,,,
,,,,,,,,,R_29pVfRS7pL1qY1P,2022-09-03_09h10.24.631,jpn_C03,2022.1.2,Win32,60.26637739,,,space,6.505,0,4,4,28,1,パツ　ホレト　ドキ,,,CartoonStims/chef_shoot_boxer_r.jpg,audio/patsuhoretodoki.mp3,,,,,,,,,,,,,,,,,,,,,,,,,,,,,,,,,,,,,,,,,,,,,,,,,,,,,,,,,,,,,,,,,,,,,,,,,,
,,,,,,,,,R_29pVfRS7pL1qY1P,2022-09-03_09h10.24.631,jpn_C03,2022.1.2,Win32,60.26637739,,,space,7.8985,0,5,5,27,1,パツ　ルピン　ドキ,,,CartoonStims/burglar_shoot_boxer_r.jpg,audio/patsulupindoki.mp3,,,,,,,,,,,,,,,,,,,,,,,,,,,,,,,,,,,,,,,,,,,,,,,,,,,,,,,,,,,,,,,,,,,,,,,,,,
,,,,,,,,,R_29pVfRS7pL1qY1P,2022-09-03_09h10.24.631,jpn_C03,2022.1.2,Win32,60.26637739,,,space,4.7923,0,6,6,20,1,トマ　ピポ　シド,,,CartoonStims/doctor_point_artist_r.jpg,audio/tomapiposido.mp3,,,,,,,,,,,,,,,,,,,,,,,,,,,,,,,,,,,,,,,,,,,,,,,,,,,,,,,,,,,,,,,,,,,,,,,,,,
,,,,,,,,,R_29pVfRS7pL1qY1P,2022-09-03_09h10.24.631,jpn_C03,2022.1.2,Win32,60.26637739,,,space,5.8062,0,7,7,44,1,プミ　ピポ　ホレト,,,CartoonStims/doctor_punch_chef_r.jpg,audio/pumipipohoreto.mp3,,,,,,,,,,,,,,,,,,,,,,,,,,,,,,,,,,,,,,,,,,,,,,,,,,,,,,,,,,,,,,,,,,,,,,,,,,
,,,,,,,,,R_29pVfRS7pL1qY1P,2022-09-03_09h10.24.631,jpn_C03,2022.1.2,Win32,60.26637739,,,space,6.9654,0,8,8,47,1,プミ　ドキ　ピポ,,,CartoonStims/boxer_punch_doctor_r.jpg,audio/pumidokipipo.mp3,,,,,,,,,,,,,,,,,,,,,,,,,,,,,,,,,,,,,,,,,,,,,,,,,,,,,,,,,,,,,,,,,,,,,,,,,,
,,,,,,,,,R_29pVfRS7pL1qY1P,2022-09-03_09h10.24.631,jpn_C03,2022.1.2,Win32,60.26637739,,,space,5.7669,0,9,9,13,1,トマ　シド　ムク,,,CartoonStims/artist_point_cowboy_r.jpg,audio/tomasidomuku.mp3,,,,,,,,,,,,,,,,,,,,,,,,,,,,,,,,,,,,,,,,,,,,,,,,,,,,,,,,,,,,,,,,,,,,,,,,,,
,,,,,,,,,R_29pVfRS7pL1qY1P,2022-09-03_09h10.24.631,jpn_C03,2022.1.2,Win32,60.26637739,,,space,5.6658,0,10,10,23,1,トマ　ドキ　ホレト,,,CartoonStims/boxer_point_chef_r.jpg,audio/tomadokihoreto.mp3,,,,,,,,,,,,,,,,,,,,,,,,,,,,,,,,,,,,,,,,,,,,,,,,,,,,,,,,,,,,,,,,,,,,,,,,,,
,,,,,,,,,R_29pVfRS7pL1qY1P,2022-09-03_09h10.24.631,jpn_C03,2022.1.2,Win32,60.26637739,,,space,6.6879,0,11,11,11,1,セル　ドキ　ルピン,,,CartoonStims/boxer_kick_burglar_r.jpg,audio/serudokilupin.mp3,,,,,,,,,,,,,,,,,,,,,,,,,,,,,,,,,,,,,,,,,,,,,,,,,,,,,,,,,,,,,,,,,,,,,,,,,,
,,,,,,,,,R_29pVfRS7pL1qY1P,2022-09-03_09h10.24.631,jpn_C03,2022.1.2,Win32,60.26637739,,,space,5.2408,0,12,12,7,1,セル　ムク　ドキ,,,CartoonStims/cowboy_kick_boxer_r.jpg,audio/serumukudoki.mp3,,,,,,,,,,,,,,,,,,,,,,,,,,,,,,,,,,,,,,,,,,,,,,,,,,,,,,,,,,,,,,,,,,,,,,,,,,
,,,,,,,,,R_29pVfRS7pL1qY1P,2022-09-03_09h10.24.631,jpn_C03,2022.1.2,Win32,60.26637739,,,space,7.3083,0,13,13,38,1,プミ　ルピン　ドキ,,,CartoonStims/burglar_punch_boxer_r.jpg,audio/pumilupindoki.mp3,,,,,,,,,,,,,,,,,,,,,,,,,,,,,,,,,,,,,,,,,,,,,,,,,,,,,,,,,,,,,,,,,,,,,,,,,,
,,,,,,,,,R_29pVfRS7pL1qY1P,2022-09-03_09h10.24.631,jpn_C03,2022.1.2,Win32,60.26637739,,,space,10.1137,0,14,14,37,1,プミ　シド　ドキ,,,CartoonStims/artist_punch_boxer_r.jpg,audio/pumisidodoki.mp3,,,,,,,,,,,,,,,,,,,,,,,,,,,,,,,,,,,,,,,,,,,,,,,,,,,,,,,,,,,,,,,,,,,,,,,,,,
,,,,,,,,,R_29pVfRS7pL1qY1P,2022-09-03_09h10.24.631,jpn_C03,2022.1.2,Win32,60.26637739,,,space,4.9591,0,15,15,6,1,セル　ムク　ピポ,,,CartoonStims/cowboy_kick_doctor_r.jpg,audio/serumukupipo.mp3,,,,,,,,,,,,,,,,,,,,,,,,,,,,,,,,,,,,,,,,,,,,,,,,,,,,,,,,,,,,,,,,,,,,,,,,,,
,,,,,,,,,R_29pVfRS7pL1qY1P,2022-09-03_09h10.24.631,jpn_C03,2022.1.2,Win32,60.26637739,,,space,6.4818,0,16,16,2,1,セル 　ルピン 　ホレト,,,CartoonStims/burglar_kick_chef_r.jpg,audio/serulupinhoreto.mp3,,,,,,,,,,,,,,,,,,,,,,,,,,,,,,,,,,,,,,,,,,,,,,,,,,,,,,,,,,,,,,,,,,,,,,,,,,
,,,,,,,,,R_29pVfRS7pL1qY1P,2022-09-03_09h10.24.631,jpn_C03,2022.1.2,Win32,60.26637739,,,space,6.2655,0,17,17,16,1,トマ　ホレト　ピポ,,,CartoonStims/chef_point_doctor_r.jpg,audio/tomahoretopipo.mp3,,,,,,,,,,,,,,,,,,,,,,,,,,,,,,,,,,,,,,,,,,,,,,,,,,,,,,,,,,,,,,,,,,,,,,,,,,
,,,,,,,,,R_29pVfRS7pL1qY1P,2022-09-03_09h10.24.631,jpn_C03,2022.1.2,Win32,60.26637739,,,space,8.963,0,18,18,25,1,パツ　シド　ピポ,,,CartoonStims/artist_shoot_doctor_r.jpg,audio/patsusidopipo.mp3,,,,,,,,,,,,,,,,,,,,,,,,,,,,,,,,,,,,,,,,,,,,,,,,,,,,,,,,,,,,,,,,,,,,,,,,,,
,,,,,,,,,R_29pVfRS7pL1qY1P,2022-09-03_09h10.24.631,jpn_C03,2022.1.2,Win32,60.26637739,,,space,12.3042,0,19,19,36,1,プミ　シド　ピポ,,,CartoonStims/artist_punch_doctor_r.jpg,audio/pumisidopipo.mp3,,,,,,,,,,,,,,,,,,,,,,,,,,,,,,,,,,,,,,,,,,,,,,,,,,,,,,,,,,,,,,,,,,,,,,,,,,
,,,,,,,,,R_29pVfRS7pL1qY1P,2022-09-03_09h10.24.631,jpn_C03,2022.1.2,Win32,60.26637739,,,space,8.9307,0,20,20,15,1,トマ　ルピン　ピポ,,,CartoonStims/burglar_point_doctor_r.jpg,audio/tomalupinpipo.mp3,,,,,,,,,,,,,,,,,,,,,,,,,,,,,,,,,,,,,,,,,,,,,,,,,,,,,,,,,,,,,,,,,,,,,,,,,,
,,,,,,,,,R_29pVfRS7pL1qY1P,2022-09-03_09h10.24.631,jpn_C03,2022.1.2,Win32,60.26637739,,,space,2.4399,0,21,21,26,1,パツ　ルピン　ピポ,,,CartoonStims/burglar_shoot_doctor_r.jpg,audio/patsulupinpipo.mp3,,,,,,,,,,,,,,,,,,,,,,,,,,,,,,,,,,,,,,,,,,,,,,,,,,,,,,,,,,,,,,,,,,,,,,,,,,
,,,,,,,,,R_29pVfRS7pL1qY1P,2022-09-03_09h10.24.631,jpn_C03,2022.1.2,Win32,60.26637739,,,space,5.7648,0,22,22,0,1,セル　シド　ルピン,,,CartoonStims/artist_kick_burglar_r.jpg,audio/serusidolupin.mp3,,,,,,,,,,,,,,,,,,,,,,,,,,,,,,,,,,,,,,,,,,,,,,,,,,,,,,,,,,,,,,,,,,,,,,,,,,
,,,,,,,,,R_29pVfRS7pL1qY1P,2022-09-03_09h10.24.631,jpn_C03,2022.1.2,Win32,60.26637739,,,space,6.5415,0,23,23,12,1,トマ　シド　ホレト,,,CartoonStims/artist_point_chef_r.jpg,audio/tomasidohoreto.mp3,,,,,,,,,,,,,,,,,,,,,,,,,,,,,,,,,,,,,,,,,,,,,,,,,,,,,,,,,,,,,,,,,,,,,,,,,,
,,,,,,,,,R_29pVfRS7pL1qY1P,2022-09-03_09h10.24.631,jpn_C03,2022.1.2,Win32,60.26637739,,,space,7.2149,0,24,24,22,1,トマ　ドキ　ルピン,,,CartoonStims/boxer_point_burglar_r.jpg,audio/tomadokilupin.mp3,,,,,,,,,,,,,,,,,,,,,,,,,,,,,,,,,,,,,,,,,,,,,,,,,,,,,,,,,,,,,,,,,,,,,,,,,,
,,,,,,,,,R_29pVfRS7pL1qY1P,2022-09-03_09h10.24.631,jpn_C03,2022.1.2,Win32,60.26637739,,,space,9.1967,0,25,25,30,1,パツ　ムク　シド,,,CartoonStims/cowboy_shoot_artist_r.jpg,audio/patsumukusido.mp3,,,,,,,,,,,,,,,,,,,,,,,,,,,,,,,,,,,,,,,,,,,,,,,,,,,,,,,,,,,,,,,,,,,,,,,,,,
,,,,,,,,,R_29pVfRS7pL1qY1P,2022-09-03_09h10.24.631,jpn_C03,2022.1.2,Win32,60.26637739,,,space,5.3481,0,26,26,1,1,セル 　シド 　ホレト,,,CartoonStims/artist_kick_chef_r.jpg,audio/serusidohoreto.mp3,,,,,,,,,,,,,,,,,,,,,,,,,,,,,,,,,,,,,,,,,,,,,,,,,,,,,,,,,,,,,,,,,,,,,,,,,,
,,,,,,,,,R_29pVfRS7pL1qY1P,2022-09-03_09h10.24.631,jpn_C03,2022.1.2,Win32,60.26637739,,,space,5.2422,0,27,27,4,1,セル　ホレト　ムク,,,CartoonStims/chef_kick_cowboy_r.jpg,audio/seruhoretomuku.mp3,,,,,,,,,,,,,,,,,,,,,,,,,,,,,,,,,,,,,,,,,,,,,,,,,,,,,,,,,,,,,,,,,,,,,,,,,,
,,,,,,,,,R_29pVfRS7pL1qY1P,2022-09-03_09h10.24.631,jpn_C03,2022.1.2,Win32,60.26637739,,,space,3.6663,0,28,28,9,1,セル　ピポ　シド,,,CartoonStims/doctor_kick_artist_r.jpg,audio/serupiposido.mp3,,,,,,,,,,,,,,,,,,,,,,,,,,,,,,,,,,,,,,,,,,,,,,,,,,,,,,,,,,,,,,,,,,,,,,,,,,
,,,,,,,,,R_29pVfRS7pL1qY1P,2022-09-03_09h10.24.631,jpn_C03,2022.1.2,Win32,60.26637739,,,space,5.4224,0,29,29,35,1,パツ　ドキ　ムク,,,CartoonStims/boxer_shoot_cowboy_r.jpg,audio/patsudokimuku.mp3,,,,,,,,,,,,,,,,,,,,,,,,,,,,,,,,,,,,,,,,,,,,,,,,,,,,,,,,,,,,,,,,,,,,,,,,,,
,,,,,,,,,R_29pVfRS7pL1qY1P,2022-09-03_09h10.24.631,jpn_C03,2022.1.2,Win32,60.26637739,,,space,4.887,0,30,30,17,1,トマ　ホレト　ドキ,,,CartoonStims/chef_point_boxer_r.jpg,audio/tomahoretodoki.mp3,,,,,,,,,,,,,,,,,,,,,,,,,,,,,,,,,,,,,,,,,,,,,,,,,,,,,,,,,,,,,,,,,,,,,,,,,,
,,,,,,,,,R_29pVfRS7pL1qY1P,2022-09-03_09h10.24.631,jpn_C03,2022.1.2,Win32,60.26637739,,,space,3.0268,0,31,31,46,1,プミ　ドキ　ムク,,,CartoonStims/boxer_punch_cowboy_r.jpg,audio/pumidokimuku.mp3,,,,,,,,,,,,,,,,,,,,,,,,,,,,,,,,,,,,,,,,,,,,,,,,,,,,,,,,,,,,,,,,,,,,,,,,,,
,,,,,,,,,R_29pVfRS7pL1qY1P,2022-09-03_09h10.24.631,jpn_C03,2022.1.2,Win32,60.26637739,,,space,3.4205,0,32,32,39,1,プミ　ルピン　シド,,,CartoonStims/burglar_punch_artist_r.jpg,audio/pumilupinsido.mp3,,,,,,,,,,,,,,,,,,,,,,,,,,,,,,,,,,,,,,,,,,,,,,,,,,,,,,,,,,,,,,,,,,,,,,,,,,
,,,,,,,,,R_29pVfRS7pL1qY1P,2022-09-03_09h10.24.631,jpn_C03,2022.1.2,Win32,60.26637739,,,space,4.537,0,33,33,31,1,パツ　ムク　ルピン,,,CartoonStims/cowboy_shoot_burglar_r.jpg,audio/patsumukulupin.mp3,,,,,,,,,,,,,,,,,,,,,,,,,,,,,,,,,,,,,,,,,,,,,,,,,,,,,,,,,,,,,,,,,,,,,,,,,,
,,,,,,,,,R_29pVfRS7pL1qY1P,2022-09-03_09h10.24.631,jpn_C03,2022.1.2,Win32,60.26637739,,,space,4.1613,0,34,34,34,1,パツ　ドキ　ホレト,,,CartoonStims/boxer_shoot_chef_r.jpg,audio/patsudokihoreto.mp3,,,,,,,,,,,,,,,,,,,,,,,,,,,,,,,,,,,,,,,,,,,,,,,,,,,,,,,,,,,,,,,,,,,,,,,,,,
,,,,,,,,,R_29pVfRS7pL1qY1P,2022-09-03_09h10.24.631,jpn_C03,2022.1.2,Win32,60.26637739,,,space,8.6465,0,35,35,10,1,セル　ドキ　シド,,,CartoonStims/boxer_kick_artist_r.jpg,audio/serudokisido.mp3,,,,,,,,,,,,,,,,,,,,,,,,,,,,,,,,,,,,,,,,,,,,,,,,,,,,,,,,,,,,,,,,,,,,,,,,,,
,,,,,,,,,R_29pVfRS7pL1qY1P,2022-09-03_09h10.24.631,jpn_C03,2022.1.2,Win32,60.26637739,,,space,3.4906,0,36,36,43,1,プミ　ムク　ホレト,,,CartoonStims/cowboy_punch_chef_r.jpg,audio/pumimukuhoreto.mp3,,,,,,,,,,,,,,,,,,,,,,,,,,,,,,,,,,,,,,,,,,,,,,,,,,,,,,,,,,,,,,,,,,,,,,,,,,
,,,,,,,,,R_29pVfRS7pL1qY1P,2022-09-03_09h10.24.631,jpn_C03,2022.1.2,Win32,60.26637739,,,space,3.0083,0,37,37,5,1,セル　ホレト　ピポ,,,CartoonStims/chef_kick_doctor_r.jpg,audio/seruhoretopipo.mp3,,,,,,,,,,,,,,,,,,,,,,,,,,,,,,,,,,,,,,,,,,,,,,,,,,,,,,,,,,,,,,,,,,,,,,,,,,
,,,,,,,,,R_29pVfRS7pL1qY1P,2022-09-03_09h10.24.631,jpn_C03,2022.1.2,Win32,60.26637739,,,space,3.4,0,38,38,19,1,トマ　ムク　シド,,,CartoonStims/cowboy_point_artist_r.jpg,audio/tomamukusido.mp3,,,,,,,,,,,,,,,,,,,,,,,,,,,,,,,,,,,,,,,,,,,,,,,,,,,,,,,,,,,,,,,,,,,,,,,,,,
,,,,,,,,,R_29pVfRS7pL1qY1P,2022-09-03_09h10.24.631,jpn_C03,2022.1.2,Win32,60.26637739,,,space,3.1936,0,39,39,3,1,セル　ルピン　ムク,,,CartoonStims/burglar_kick_cowboy_r.jpg,audio/serulupinmuku.mp3,,,,,,,,,,,,,,,,,,,,,,,,,,,,,,,,,,,,,,,,,,,,,,,,,,,,,,,,,,,,,,,,,,,,,,,,,,
,,,,,,,,,R_29pVfRS7pL1qY1P,2022-09-03_09h10.24.631,jpn_C03,2022.1.2,Win32,60.26637739,,,space,3.3722,0,40,40,41,1,プミ　ホレト　ルピン,,,CartoonStims/chef_punch_burglar_r.jpg,audio/pumihoretolupin.mp3,,,,,,,,,,,,,,,,,,,,,,,,,,,,,,,,,,,,,,,,,,,,,,,,,,,,,,,,,,,,,,,,,,,,,,,,,,
,,,,,,,,,R_29pVfRS7pL1qY1P,2022-09-03_09h10.24.631,jpn_C03,2022.1.2,Win32,60.26637739,,,space,4.6844,0,41,41,8,1,セル　ピポ　ドキ,,,CartoonStims/doctor_kick_boxer_r.jpg,audio/serupipodoki.mp3,,,,,,,,,,,,,,,,,,,,,,,,,,,,,,,,,,,,,,,,,,,,,,,,,,,,,,,,,,,,,,,,,,,,,,,,,,
,,,,,,,,,R_29pVfRS7pL1qY1P,2022-09-03_09h10.24.631,jpn_C03,2022.1.2,Win32,60.26637739,,,space,2.0849,0,42,42,29,1,パツ　ホレト　シド,,,CartoonStims/chef_shoot_artist_r.jpg,audio/patsuhoretosido.mp3,,,,,,,,,,,,,,,,,,,,,,,,,,,,,,,,,,,,,,,,,,,,,,,,,,,,,,,,,,,,,,,,,,,,,,,,,,
,,,,,,,,,R_29pVfRS7pL1qY1P,2022-09-03_09h10.24.631,jpn_C03,2022.1.2,Win32,60.26637739,,,space,2.5478,0,43,43,33,1,パツ　ピポ　ホレト,,,CartoonStims/doctor_shoot_chef_r.jpg,audio/patsupipohoreto.mp3,,,,,,,,,,,,,,,,,,,,,,,,,,,,,,,,,,,,,,,,,,,,,,,,,,,,,,,,,,,,,,,,,,,,,,,,,,
,,,,,,,,,R_29pVfRS7pL1qY1P,2022-09-03_09h10.24.631,jpn_C03,2022.1.2,Win32,60.26637739,,,space,3.4243,0,44,44,42,1,プミ　ムク　ルピン,,,CartoonStims/cowboy_punch_burglar_r.jpg,audio/pumimukulupin.mp3,,,,,,,,,,,,,,,,,,,,,,,,,,,,,,,,,,,,,,,,,,,,,,,,,,,,,,,,,,,,,,,,,,,,,,,,,,
,,,,,,,,,R_29pVfRS7pL1qY1P,2022-09-03_09h10.24.631,jpn_C03,2022.1.2,Win32,60.26637739,,,space,2.7994,0,45,45,21,1,トマ　ピポ　ルピン,,,CartoonStims/doctor_point_burglar_r.jpg,audio/tomapipolupin.mp3,,,,,,,,,,,,,,,,,,,,,,,,,,,,,,,,,,,,,,,,,,,,,,,,,,,,,,,,,,,,,,,,,,,,,,,,,,
,,,,,,,,,R_29pVfRS7pL1qY1P,2022-09-03_09h10.24.631,jpn_C03,2022.1.2,Win32,60.26637739,,,space,2.9663,0,46,46,45,1,プミ　ピポ　ムク,,,CartoonStims/doctor_punch_cowboy_r.jpg,audio/pumipipomuku.mp3,,,,,,,,,,,,,,,,,,,,,,,,,,,,,,,,,,,,,,,,,,,,,,,,,,,,,,,,,,,,,,,,,,,,,,,,,,
,,,,,,,,,R_29pVfRS7pL1qY1P,2022-09-03_09h10.24.631,jpn_C03,2022.1.2,Win32,60.26637739,,,space,2.6892,0,47,47,40,1,プミ　ホレト　シド,,,CartoonStims/chef_punch_artist_r.jpg,audio/pumihoretosido.mp3,,,,,,,,,,,,,,,,,,,,,,,,,,,,,,,,,,,,,,,,,,,,,,,,,,,,,,,,,,,,,,,,,,,,,,,,,,
,,,,,,,,,R_29pVfRS7pL1qY1P,2022-09-03_09h10.24.631,jpn_C03,2022.1.2,Win32,60.26637739,,,,,,,,,,,,,,,space,2.5327,right,1,5.3243,,,,,,,,,,,,,,,,,,0,0,0,0,1,,,,,,,,,,,,,,,,,,,,,,,,,,,,,,,,,,,,,,,,,,,,,,,
,,,,,,,,,R_29pVfRS7pL1qY1P,2022-09-03_09h10.24.631,jpn_C03,2022.1.2,Win32,60.26637739,,,,,,,,,,,,,,,,,,,,,,,,,0,0,0,1,1,CartoonStims/chef_point_burglar_r.jpg,トマ　ホレト　シド,CartoonStims/chef_point_artist_r.jpg,right,CartoonStims/chef_point_artist_r.jpg,audio/tomahoretosido.mp3,残念！ こちらが正しい画像です。,,,,,,,,,,,,,,,,,,,,,,,,,,,,,,,,,,,,,,,,,,,,,,,,,,,,
,,,,,,,,,R_29pVfRS7pL1qY1P,2022-09-03_09h10.24.631,jpn_C03,2022.1.2,Win32,60.26637739,,,,,,,,,,,,,,,,,left,1,5.1759,0,0,0,0,1,,,,,,,,,,,,,,,,,,,,,,,,,,,,,,,,,,,,,,,,,,,,,,,,,,,,,,,,,,,,,,,,
,,,,,,,,,R_29pVfRS7pL1qY1P,2022-09-03_09h10.24.631,jpn_C03,2022.1.2,Win32,60.26637739,,,,,,,,,,,,,,,,,,,,,,,,,0,1,1,2,1,CartoonStims/boxer_shoot_doctor_r.jpg,パツ　ドキ　ピポ,CartoonStims/boxer_shoot_artist_r.jpg,left,CartoonStims/boxer_shoot_doctor_r.jpg,audio/patsudokipipo.mp3,残念！ こちらが正しい画像です。,,,,,,,,,,,,,,,,,,,,,,,,,,,,,,,,,,,,,,,,,,,,,,,,,,,,
,,,,,,,,,R_29pVfRS7pL1qY1P,2022-09-03_09h10.24.631,jpn_C03,2022.1.2,Win32,60.26637739,,,,,,,,,,,,,,,,,right,1,5.5355,,,,,,,,,,,,,,,,,,0,0,0,0,1,,,,,,,,,,,,,,,,,,,,,,,,,,,,,,,,,,,,,,,,,,,,,,,
,,,,,,,,,R_29pVfRS7pL1qY1P,2022-09-03_09h10.24.631,jpn_C03,2022.1.2,Win32,60.26637739,,,,,,,,,,,,,,,,,,,,,,,,,0,2,2,9,1,CartoonStims/chef_kick_artist_r.jpg,セル　ムク　シド,CartoonStims/cowboy_kick_artist_r.jpg,right,CartoonStims/cowboy_kick_artist_r.jpg,audio/serumukusido.mp3,残念！ こちらが正しい画像です。,,,,,,,,,,,,,,,,,,,,,,,,,,,,,,,,,,,,,,,,,,,,,,,,,,,,
,,,,,,,,,R_29pVfRS7pL1qY1P,2022-09-03_09h10.24.631,jpn_C03,2022.1.2,Win32,60.26637739,,,,,,,,,,,,,,,,,right,1,5.7536,,,,,,,,,,,,,,,,,,0,0,0,0,1,,,,,,,,,,,,,,,,,,,,,,,,,,,,,,,,,,,,,,,,,,,,,,,
,,,,,,,,,R_29pVfRS7pL1qY1P,2022-09-03_09h10.24.631,jpn_C03,2022.1.2,Win32,60.26637739,,,,,,,,,,,,,,,,,,,,,,,,,0,3,3,11,1,CartoonStims/burglar_punch_cowboy_r.jpg,プミ　ホレト　ムク,CartoonStims/chef_punch_cowboy_r.jpg,right,CartoonStims/chef_punch_cowboy_r.jpg,audio/pumihoretomuku.mp3,残念！ こちらが正しい画像です。,,,,,,,,,,,,,,,,,,,,,,,,,,,,,,,,,,,,,,,,,,,,,,,,,,,,
,,,,,,,,,R_29pVfRS7pL1qY1P,2022-09-03_09h10.24.631,jpn_C03,2022.1.2,Win32,60.26637739,,,,,,,,,,,,,,,,,left,1,5.1819,0,0,0,0,1,,,,,,,,,,,,,,,,,,,,,,,,,,,,,,,,,,,,,,,,,,,,,,,,,,,,,,,,,,,,,,,,
,,,,,,,,,R_29pVfRS7pL1qY1P,2022-09-03_09h10.24.631,jpn_C03,2022.1.2,Win32,60.26637739,,,,,,,,,,,,,,,,,,,,,,,,,0,4,4,0,1,CartoonStims/doctor_kick_burglar_r.jpg,セル　ピポ　ルピン,CartoonStims/doctor_kick_chef_r.jpg,left,CartoonStims/doctor_kick_burglar_r.jpg,audio/serupipolupin.mp3,残念！ こちらが正しい画像です。,,,,,,,,,,,,,,,,,,,,,,,,,,,,,,,,,,,,,,,,,,,,,,,,,,,,
,,,,,,,,,R_29pVfRS7pL1qY1P,2022-09-03_09h10.24.631,jpn_C03,2022.1.2,Win32,60.26637739,,,,,,,,,,,,,,,,,left,0,6.2716,,,,,,,,,,,,,,,,,,,,,,,,,,,,,,,,,,,,,,,,,,,,,,,,,,,,,,,,,0,0,0,0,1,,,,,,,,
,,,,,,,,,R_29pVfRS7pL1qY1P,2022-09-03_09h10.24.631,jpn_C03,2022.1.2,Win32,60.26637739,,,,,,,,,,,,,,,,,,,,,,,,,0,5,5,7,1,CartoonStims/artist_punch_cowboy_r.jpg,セル　シド　ムク,CartoonStims/artist_kick_cowboy_r.jpg,right,CartoonStims/artist_kick_cowboy_r.jpg,audio/serusidomuku.mp3,残念！ こちらが正しい画像です。,,,,,,,,,,,,,,,,,,,,,,,,,,,,,,,,,,,,,,,,,,,,,,,,,,,,
,,,,,,,,,R_29pVfRS7pL1qY1P,2022-09-03_09h10.24.631,jpn_C03,2022.1.2,Win32,60.26637739,,,,,,,,,,,,,,,,,left,1,4.005,0,0,0,0,1,,,,,,,,,,,,,,,,,,,,,,,,,,,,,,,,,,,,,,,,,,,,,,,,,,,,,,,,,,,,,,,,
,,,,,,,,,R_29pVfRS7pL1qY1P,2022-09-03_09h10.24.631,jpn_C03,2022.1.2,Win32,60.26637739,,,,,,,,,,,,,,,,,,,,,,,,,0,6,6,8,1,CartoonStims/doctor_point_cowboy_r.jpg,トマ　ピポ　ムク,CartoonStims/boxer_point_cowboy_r.jpg,left,CartoonStims/doctor_point_cowboy_r.jpg,audio/tomapipomuku.mp3,残念！ こちらが正しい画像です。,,,,,,,,,,,,,,,,,,,,,,,,,,,,,,,,,,,,,,,,,,,,,,,,,,,,
,,,,,,,,,R_29pVfRS7pL1qY1P,2022-09-03_09h10.24.631,jpn_C03,2022.1.2,Win32,60.26637739,,,,,,,,,,,,,,,,,left,1,2.4506,0,0,0,0,1,,,,,,,,,,,,,,,,,,,,,,,,,,,,,,,,,,,,,,,,,,,,,,,,,,,,,,,,,,,,,,,,
,,,,,,,,,R_29pVfRS7pL1qY1P,2022-09-03_09h10.24.631,jpn_C03,2022.1.2,Win32,60.26637739,,,,,,,,,,,,,,,,,,,,,,,,,0,7,7,4,1,CartoonStims/burglar_point_boxer_r.jpg,トマ　ルピン　ドキ,CartoonStims/burglar_kick_boxer_r.jpg,left,CartoonStims/burglar_point_boxer_r.jpg,audio/tomalupindoki.mp3,残念！ こちらが正しい画像です。,,,,,,,,,,,,,,,,,,,,,,,,,,,,,,,,,,,,,,,,,,,,,,,,,,,,
,,,,,,,,,R_29pVfRS7pL1qY1P,2022-09-03_09h10.24.631,jpn_C03,2022.1.2,Win32,60.26637739,,,,,,,,,,,,,,,,,left,1,3.2338,0,0,0,0,1,,,,,,,,,,,,,,,,,,,,,,,,,,,,,,,,,,,,,,,,,,,,,,,,,,,,,,,,,,,,,,,,
,,,,,,,,,R_29pVfRS7pL1qY1P,2022-09-03_09h10.24.631,jpn_C03,2022.1.2,Win32,60.26637739,,,,,,,,,,,,,,,,,,,,,,,,,0,8,8,10,1,CartoonStims/artist_shoot_burglar_r.jpg,パツ　シド　ルピン,CartoonStims/chef_shoot_burglar_r.jpg,left,CartoonStims/artist_shoot_burglar_r.jpg,audio/patsusidolupin.mp3,残念！ こちらが正しい画像です。,,,,,,,,,,,,,,,,,,,,,,,,,,,,,,,,,,,,,,,,,,,,,,,,,,,,
,,,,,,,,,R_29pVfRS7pL1qY1P,2022-09-03_09h10.24.631,jpn_C03,2022.1.2,Win32,60.26637739,,,,,,,,,,,,,,,,,left,1,5.2866,0,0,0,0,1,,,,,,,,,,,,,,,,,,,,,,,,,,,,,,,,,,,,,,,,,,,,,,,,,,,,,,,,,,,,,,,,
,,,,,,,,,R_29pVfRS7pL1qY1P,2022-09-03_09h10.24.631,jpn_C03,2022.1.2,Win32,60.26637739,,,,,,,,,,,,,,,,,,,,,,,,,0,9,9,6,1,CartoonStims/doctor_punch_boxer_r.jpg,プミ　ピポ　ドキ,CartoonStims/doctor_shoot_boxer_r.jpg,left,CartoonStims/doctor_punch_boxer_r.jpg,audio/pumipipodoki.mp3,残念！ こちらが正しい画像です。,,,,,,,,,,,,,,,,,,,,,,,,,,,,,,,,,,,,,,,,,,,,,,,,,,,,
,,,,,,,,,R_29pVfRS7pL1qY1P,2022-09-03_09h10.24.631,jpn_C03,2022.1.2,Win32,60.26637739,,,,,,,,,,,,,,,,,right,1,6.8314,,,,,,,,,,,,,,,,,,0,0,0,0,1,,,,,,,,,,,,,,,,,,,,,,,,,,,,,,,,,,,,,,,,,,,,,,,
,,,,,,,,,R_29pVfRS7pL1qY1P,2022-09-03_09h10.24.631,jpn_C03,2022.1.2,Win32,60.26637739,,,,,,,,,,,,,,,,,,,,,,,,,0,10,10,3,1,CartoonStims/cowboy_punch_doctor_r.jpg,プミ　ムク　ドキ,CartoonStims/cowboy_punch_boxer_r.jpg,right,CartoonStims/cowboy_punch_boxer_r.jpg,audio/pumimukudoki.mp3,残念！ こちらが正しい画像です。,,,,,,,,,,,,,,,,,,,,,,,,,,,,,,,,,,,,,,,,,,,,,,,,,,,,
,,,,,,,,,R_29pVfRS7pL1qY1P,2022-09-03_09h10.24.631,jpn_C03,2022.1.2,Win32,60.26637739,,,,,,,,,,,,,,,,,right,1,7.0367,,,,,,,,,,,,,,,,,,0,0,0,0,1,,,,,,,,,,,,,,,,,,,,,,,,,,,,,,,,,,,,,,,,,,,,,,,
,,,,,,,,,R_29pVfRS7pL1qY1P,2022-09-03_09h10.24.631,jpn_C03,2022.1.2,Win32,60.26637739,,,,,,,,,,,,,,,,,,,,,,,,,0,11,11,5,1,CartoonStims/cowboy_point_chef_r.jpg,パツ　ムク　ホレト,CartoonStims/cowboy_shoot_chef_r.jpg,right,CartoonStims/cowboy_shoot_chef_r.jpg,audio/patsumukuhoreto.mp3,残念！ こちらが正しい画像です。,,,,,,,,,,,,,,,,,,,,,,,,,,,,,,,,,,,,,,,,,,,,,,,,,,,,
,,,,,,,,,R_29pVfRS7pL1qY1P,2022-09-03_09h10.24.631,jpn_C03,2022.1.2,Win32,60.26637739,,,,,,,,,,,,,,,,,,,,,,,,,,,,,,,,,,,,,,,,,,space,6.8679,シド　ルピン,right,30.4065,0,0,0,0,1,,,,,,,,,,,,,,,,,,,,,,,,,,,,,,,,,,,,,
,,,,,,,,,R_29pVfRS7pL1qY1P,2022-09-03_09h10.24.631,jpn_C03,2022.1.2,Win32,60.26637739,,,,,,,,,,,,,CartoonStims/artist_punch_burglar_r.jpg,audio/pumisidolupin.mp3,,,,,,,,,,,,,,,,,,,,,,,,,,,,,,,,,,,,,,0,0,0,9,1,プミ　シド　ルピン,,,,,,,,,,,,,,,,,,,,,,,,,,,,,,,
,,,,,,,,,R_29pVfRS7pL1qY1P,2022-09-03_09h10.24.631,jpn_C03,2022.1.2,Win32,60.26637739,,,,,,,,,,,,,,,,,,,,,,,,,,,,,,,,,,,,,,,,,,,,セル　ムク　ルピン,right,9.6548,0,0,0,0,1,,,,,,,,,,,,,,,,,,,,,,,,,,,,,,,,,,,,,
,,,,,,,,,R_29pVfRS7pL1qY1P,2022-09-03_09h10.24.631,jpn_C03,2022.1.2,Win32,60.26637739,,,,,,,,,,,,,CartoonStims/cowboy_kick_burglar_r.jpg,audio/serumukulupin.mp3,,,,,,,,,,,,,,,,,,,,,,,,,,,,,,,,,,,,,,0,1,1,0,1,セル　ムク　ルピン,,,,,,,,,,,,,,,,,,,,,,,,,,,,,,,
,,,,,,,,,R_29pVfRS7pL1qY1P,2022-09-03_09h10.24.631,jpn_C03,2022.1.2,Win32,60.26637739,,,,,,,,,,,,,,,,,,,,,,,,,,,,,,,,,,,,,,,,,,,,ト　ホレト　ルピン,right,23.598,0,0,0,0,1,,,,,,,,,,,,,,,,,,,,,,,,,,,,,,,,,,,,,
,,,,,,,,,R_29pVfRS7pL1qY1P,2022-09-03_09h10.24.631,jpn_C03,2022.1.2,Win32,60.26637739,,,,,,,,,,,,,CartoonStims/chef_point_burglar_r.jpg,audio/tomahoretolupin.mp3,,,,,,,,,,,,,,,,,,,,,,,,,,,,,,,,,,,,,,0,2,2,5,1,トマ　ホレト　ルピン,,,,,,,,,,,,,,,,,,,,,,,,,,,,,,,
,,,,,,,,,R_29pVfRS7pL1qY1P,2022-09-03_09h10.24.631,jpn_C03,2022.1.2,Win32,60.26637739,,,,,,,,,,,,,,,,,,,,,,,,,,,,,,,,,,,,,,,,,,,,パツ　ムク,right,14.8191,0,0,0,0,1,,,,,,,,,,,,,,,,,,,,,,,,,,,,,,,,,,,,,
,,,,,,,,,R_29pVfRS7pL1qY1P,2022-09-03_09h10.24.631,jpn_C03,2022.1.2,Win32,60.26637739,,,,,,,,,,,,,CartoonStims/chef_shoot_cowboy_r.jpg,audio/patsuhoretomuku.mp3,,,,,,,,,,,,,,,,,,,,,,,,,,,,,,,,,,,,,,0,3,3,7,1,パツ　ホレト　ムク,,,,,,,,,,,,,,,,,,,,,,,,,,,,,,,
,,,,,,,,,R_29pVfRS7pL1qY1P,2022-09-03_09h10.24.631,jpn_C03,2022.1.2,Win32,60.26637739,,,,,,,,,,,,,,,,,,,,,,,,,,,,,,,,,,,,,,,,,,,,プピ　ドキ,right,10.915,0,0,0,0,1,,,,,,,,,,,,,,,,,,,,,,,,,,,,,,,,,,,,,
,,,,,,,,,R_29pVfRS7pL1qY1P,2022-09-03_09h10.24.631,jpn_C03,2022.1.2,Win32,60.26637739,,,,,,,,,,,,,CartoonStims/doctor_punch_boxer_r.jpg,audio/pumipipodoki.mp3,,,,,,,,,,,,,,,,,,,,,,,,,,,,,,,,,,,,,,0,4,4,10,1,プミ　ピポ　ドキ,,,,,,,,,,,,,,,,,,,,,,,,,,,,,,,
,,,,,,,,,R_29pVfRS7pL1qY1P,2022-09-03_09h10.24.631,jpn_C03,2022.1.2,Win32,60.26637739,,,,,,,,,,,,,,,,,,,,,,,,,,,,,,,,,,,,,,,,,,,,トマ　ルピン　シド,right,13.087,0,0,0,0,1,,,,,,,,,,,,,,,,,,,,,,,,,,,,,,,,,,,,,
,,,,,,,,,R_29pVfRS7pL1qY1P,2022-09-03_09h10.24.631,jpn_C03,2022.1.2,Win32,60.26637739,,,,,,,,,,,,,CartoonStims/burglar_point_artist_r.jpg,audio/tomalupinsido.mp3,,,,,,,,,,,,,,,,,,,,,,,,,,,,,,,,,,,,,,0,5,5,4,1,トマ　ルピン　シド,,,,,,,,,,,,,,,,,,,,,,,,,,,,,,,
,,,,,,,,,R_29pVfRS7pL1qY1P,2022-09-03_09h10.24.631,jpn_C03,2022.1.2,Win32,60.26637739,,,,,,,,,,,,,,,,,,,,,,,,,,,,,,,,,,,,,,,,,,,,セル　プピ　ホレト,right,9.7804,0,0,0,0,1,,,,,,,,,,,,,,,,,,,,,,,,,,,,,,,,,,,,,
,,,,,,,,,R_29pVfRS7pL1qY1P,2022-09-03_09h10.24.631,jpn_C03,2022.1.2,Win32,60.26637739,,,,,,,,,,,,,CartoonStims/doctor_kick_chef_r.jpg,audio/serupipohoreto.mp3,,,,,,,,,,,,,,,,,,,,,,,,,,,,,,,,,,,,,,0,6,6,1,1,セル　ピポ　ホレト,,,,,,,,,,,,,,,,,,,,,,,,,,,,,,,
,,,,,,,,,R_29pVfRS7pL1qY1P,2022-09-03_09h10.24.631,jpn_C03,2022.1.2,Win32,60.26637739,,,,,,,,,,,,,,,,,,,,,,,,,,,,,,,,,,,,,,,,,,,,トマ　シド　ドキ,right,16.1576,0,0,0,0,1,,,,,,,,,,,,,,,,,,,,,,,,,,,,,,,,,,,,,
,,,,,,,,,R_29pVfRS7pL1qY1P,2022-09-03_09h10.24.631,jpn_C03,2022.1.2,Win32,60.26637739,,,,,,,,,,,,,CartoonStims/artist_point_boxer_r.jpg,audio/tomasidodoki.mp3,,,,,,,,,,,,,,,,,,,,,,,,,,,,,,,,,,,,,,0,7,7,3,1,トマ　シド　ドキ,,,,,,,,,,,,,,,,,,,,,,,,,,,,,,,
,,,,,,,,,R_29pVfRS7pL1qY1P,2022-09-03_09h10.24.631,jpn_C03,2022.1.2,Win32,60.26637739,,,,,,,,,,,,,,,,,,,,,,,,,,,,,,,,,,,,,,,,,,,,セル　ドキ　ムク,right,8.6396,0,0,0,0,1,,,,,,,,,,,,,,,,,,,,,,,,,,,,,,,,,,,,,
,,,,,,,,,R_29pVfRS7pL1qY1P,2022-09-03_09h10.24.631,jpn_C03,2022.1.2,Win32,60.26637739,,,,,,,,,,,,,CartoonStims/boxer_kick_cowboy_r.jpg,audio/serudokimuku.mp3,,,,,,,,,,,,,,,,,,,,,,,,,,,,,,,,,,,,,,0,8,8,2,1,セル　ドキ　ムク,,,,,,,,,,,,,,,,,,,,,,,,,,,,,,,
,,,,,,,,,R_29pVfRS7pL1qY1P,2022-09-03_09h10.24.631,jpn_C03,2022.1.2,Win32,60.26637739,,,,,,,,,,,,,,,,,,,,,,,,,,,,,,,,,,,,,,,,,,,,ホホホ,right,6.1752,0,0,0,0,1,,,,,,,,,,,,,,,,,,,,,,,,,,,,,,,,,,,,,
,,,,,,,,,R_29pVfRS7pL1qY1P,2022-09-03_09h10.24.631,jpn_C03,2022.1.2,Win32,60.26637739,,,,,,,,,,,,,CartoonStims/boxer_punch_artist_r.jpg,audio/pumidokisido.mp3,,,,,,,,,,,,,,,,,,,,,,,,,,,,,,,,,,,,,,0,9,9,11,1,プミ　ドキ　シド,,,,,,,,,,,,,,,,,,,,,,,,,,,,,,,
,,,,,,,,,R_29pVfRS7pL1qY1P,2022-09-03_09h10.24.631,jpn_C03,2022.1.2,Win32,60.26637739,,,,,,,,,,,,,,,,,,,,,,,,,,,,,,,,,,,,,,,,,,,,パツ　ムク　ピポ,right,12.1376,0,0,0,0,1,,,,,,,,,,,,,,,,,,,,,,,,,,,,,,,,,,,,,
,,,,,,,,,R_29pVfRS7pL1qY1P,2022-09-03_09h10.24.631,jpn_C03,2022.1.2,Win32,60.26637739,,,,,,,,,,,,,CartoonStims/cowboy_shoot_doctor_r.jpg,audio/patsumukupipo.mp3,,,,,,,,,,,,,,,,,,,,,,,,,,,,,,,,,,,,,,0,10,10,8,1,パツ　ムク　ピポ,,,,,,,,,,,,,,,,,,,,,,,,,,,,,,,
,,,,,,,,,R_29pVfRS7pL1qY1P,2022-09-03_09h10.24.631,jpn_C03,2022.1.2,Win32,60.26637739,,,,,,,,,,,,,,,,,,,,,,,,,,,,,,,,,,,,,,,,,,,,パツ　ルピン　ホレト,right,10.5878,0,0,0,0,1,,,,,,,,,,,,,,,,,,,,,,,,,,,,,,,,,,,,,
,,,,,,,,,R_29pVfRS7pL1qY1P,2022-09-03_09h10.24.631,jpn_C03,2022.1.2,Win32,60.26637739,,,,,,,,,,,,,CartoonStims/burglar_shoot_chef_r.jpg,audio/patsulupinhoreto.mp3,,,,,,,,,,,,,,,,,,,,,,,,,,,,,,,,,,,,,,0,11,11,6,1,パツ　ルピン　ホレト,,,,,,,,,,,,,,,,,,,,,,,,,,,,,,,
,,,,,,,,,R_29pVfRS7pL1qY1P,2022-09-03_09h10.24.631,jpn_C03,2022.1.2,Win32,60.26637739,,,,,,,,,,,,,,,,,,,,,,,,,,,,,,,,,,,,,,,,,,,,,,,,,,,,,,,,,,,space,14.5864,0,1,1,1,1,AffExposure.xlsx,"第二のトライアルの学習では、この言語で書かれた文を見ていただきます。引き続き注意して、 聞こえた音を復唱してください。


スペースキーを押してください。",1,AffFCT.xlsx,ここからクイズが始まります。 スクリーンに表示されるテキストに合う画像を選んでください。,AffTest.xlsx,1,次にここまで学んだことをアウトプットしていただきます。 表示される画像を描写していると思う単語を、テキストボックスにタイプしてください。 答えを提出したあとに正しい正解が少しの間画面に写ります。,1,"これで第二のトライアルが終了しました。 ここで休憩をとっていただいても構いません。

休憩が終わりましたら、 スペースキーを押して続きの学習を行いましょう。",,,,,,,,,,,,,
,,,,,,,,,R_29pVfRS7pL1qY1P,2022-09-03_09h10.24.631,jpn_C03,2022.1.2,Win32,60.26637739,space,5.1505,space,10.1996,0,0,0,9,1,セル　ピク　ピポ　シド,,,CartoonStims/doctor_kick_artist_r_no.jpg,audio/serupikupiposido.mp3,,,,,,,,,,,,,,,,,,,,,,,,,,,,,,,,,,,,,,,,,,,,,,,,,,,,,,,,,,,,,,,,,,,,,,,,,,
,,,,,,,,,R_29pVfRS7pL1qY1P,2022-09-03_09h10.24.631,jpn_C03,2022.1.2,Win32,60.26637739,,,space,13.4554,0,1,1,45,1,プミ　ピク　ピポ　ムク,,,CartoonStims/doctor_punch_cowboy_r_no.jpg,audio/pumipikupipomuku.mp3,,,,,,,,,,,,,,,,,,,,,,,,,,,,,,,,,,,,,,,,,,,,,,,,,,,,,,,,,,,,,,,,,,,,,,,,,,
,,,,,,,,,R_29pVfRS7pL1qY1P,2022-09-03_09h10.24.631,jpn_C03,2022.1.2,Win32,60.26637739,,,space,6.6182,0,2,2,24,1,パツ　ピク　シド　ムク,,,CartoonStims/artist_shoot_cowboy_r_no.jpg,audio/patsupikusidomuku.mp3,,,,,,,,,,,,,,,,,,,,,,,,,,,,,,,,,,,,,,,,,,,,,,,,,,,,,,,,,,,,,,,,,,,,,,,,,,
,,,,,,,,,R_29pVfRS7pL1qY1P,2022-09-03_09h10.24.631,jpn_C03,2022.1.2,Win32,60.26637739,,,space,9.5036,0,3,3,15,1,ピク　トマ　ルピン　ピポ,,,CartoonStims/burglar_point_doctor_r_no.jpg,audio/pikutomalupinpipo.mp3,,,,,,,,,,,,,,,,,,,,,,,,,,,,,,,,,,,,,,,,,,,,,,,,,,,,,,,,,,,,,,,,,,,,,,,,,,
,,,,,,,,,R_29pVfRS7pL1qY1P,2022-09-03_09h10.24.631,jpn_C03,2022.1.2,Win32,60.26637739,,,space,6.475,0,4,4,47,1,プミ　ピク　ドキ　ピポ,,,CartoonStims/boxer_punch_doctor_r_no.jpg,audio/pumipikudokipipo.mp3,,,,,,,,,,,,,,,,,,,,,,,,,,,,,,,,,,,,,,,,,,,,,,,,,,,,,,,,,,,,,,,,,,,,,,,,,,
,,,,,,,,,R_29pVfRS7pL1qY1P,2022-09-03_09h10.24.631,jpn_C03,2022.1.2,Win32,60.26637739,,,space,4.6916,0,5,5,8,1,ピク　セル　ピポ　ドキ,,,CartoonStims/doctor_kick_boxer_r_no.jpg,audio/pikuserupipodoki.mp3,,,,,,,,,,,,,,,,,,,,,,,,,,,,,,,,,,,,,,,,,,,,,,,,,,,,,,,,,,,,,,,,,,,,,,,,,,
,,,,,,,,,R_29pVfRS7pL1qY1P,2022-09-03_09h10.24.631,jpn_C03,2022.1.2,Win32,60.26637739,,,space,5.3252,0,6,6,14,1,トマ　ピク　ルピン　ムク,,,CartoonStims/burglar_point_cowboy_r_no.jpg,audio/tomapikulupinmuku.mp3,,,,,,,,,,,,,,,,,,,,,,,,,,,,,,,,,,,,,,,,,,,,,,,,,,,,,,,,,,,,,,,,,,,,,,,,,,
,,,,,,,,,R_29pVfRS7pL1qY1P,2022-09-03_09h10.24.631,jpn_C03,2022.1.2,Win32,60.26637739,,,space,6.2053,0,7,7,32,1,パツ　ピク　ピポ　ルピン,,,CartoonStims/doctor_shoot_burglar_r_no.jpg,audio/patsupikupipolupin.mp3,,,,,,,,,,,,,,,,,,,,,,,,,,,,,,,,,,,,,,,,,,,,,,,,,,,,,,,,,,,,,,,,,,,,,,,,,,
,,,,,,,,,R_29pVfRS7pL1qY1P,2022-09-03_09h10.24.631,jpn_C03,2022.1.2,Win32,60.26637739,,,space,8.6196,0,8,8,41,1,プミ　ピク　ホレト　ルピン,,,CartoonStims/chef_punch_burglar_r_no.jpg,audio/pumipikuhoretolupin.mp3,,,,,,,,,,,,,,,,,,,,,,,,,,,,,,,,,,,,,,,,,,,,,,,,,,,,,,,,,,,,,,,,,,,,,,,,,,
,,,,,,,,,R_29pVfRS7pL1qY1P,2022-09-03_09h10.24.631,jpn_C03,2022.1.2,Win32,60.26637739,,,space,7.9972,0,9,9,46,1,ピク　プミ　ドキ　ムク,,,CartoonStims/boxer_punch_cowboy_r_no.jpg,audio/pikupumidokimuku.mp3,,,,,,,,,,,,,,,,,,,,,,,,,,,,,,,,,,,,,,,,,,,,,,,,,,,,,,,,,,,,,,,,,,,,,,,,,,
,,,,,,,,,R_29pVfRS7pL1qY1P,2022-09-03_09h10.24.631,jpn_C03,2022.1.2,Win32,60.26637739,,,space,7.8031,0,10,10,18,1,トマ　ピク　ムク　ドキ,,,CartoonStims/cowboy_point_boxer_r_no.jpg,audio/tomapikumukudoki.mp3,,,,,,,,,,,,,,,,,,,,,,,,,,,,,,,,,,,,,,,,,,,,,,,,,,,,,,,,,,,,,,,,,,,,,,,,,,
,,,,,,,,,R_29pVfRS7pL1qY1P,2022-09-03_09h10.24.631,jpn_C03,2022.1.2,Win32,60.26637739,,,space,9.2658,0,11,11,40,1,プミ　ピク　ホレト　シド,,,CartoonStims/chef_punch_artist_r_no.jpg,audio/pumipikuhoretosido.mp3,,,,,,,,,,,,,,,,,,,,,,,,,,,,,,,,,,,,,,,,,,,,,,,,,,,,,,,,,,,,,,,,,,,,,,,,,,
,,,,,,,,,R_29pVfRS7pL1qY1P,2022-09-03_09h10.24.631,jpn_C03,2022.1.2,Win32,60.26637739,,,space,10.3186,0,12,12,44,1,ピク　プミ　ピポ　ホレト,,,CartoonStims/doctor_punch_chef_r_no.jpg,audio/pikupumipipohoreto.mp3,,,,,,,,,,,,,,,,,,,,,,,,,,,,,,,,,,,,,,,,,,,,,,,,,,,,,,,,,,,,,,,,,,,,,,,,,,
,,,,,,,,,R_29pVfRS7pL1qY1P,2022-09-03_09h10.24.631,jpn_C03,2022.1.2,Win32,60.26637739,,,space,6.9468,0,13,13,36,1,プミ　ピク　シド　ピポ,,,CartoonStims/artist_punch_doctor_r_no.jpg,audio/pumipikusidopipo.mp3,,,,,,,,,,,,,,,,,,,,,,,,,,,,,,,,,,,,,,,,,,,,,,,,,,,,,,,,,,,,,,,,,,,,,,,,,,
,,,,,,,,,R_29pVfRS7pL1qY1P,2022-09-03_09h10.24.631,jpn_C03,2022.1.2,Win32,60.26637739,,,space,4.8666,0,14,14,4,1,ピク　セル　ホレト　ムク,,,CartoonStims/chef_kick_cowboy_r_no.jpg,audio/pikuseruhoretomuku.mp3,,,,,,,,,,,,,,,,,,,,,,,,,,,,,,,,,,,,,,,,,,,,,,,,,,,,,,,,,,,,,,,,,,,,,,,,,,
,,,,,,,,,R_29pVfRS7pL1qY1P,2022-09-03_09h10.24.631,jpn_C03,2022.1.2,Win32,60.26637739,,,space,4.5535,0,15,15,21,1,トマ　ピク　ピポ　ルピン,,,CartoonStims/doctor_point_burglar_r_no.jpg,audio/tomapikupipolupin.mp3,,,,,,,,,,,,,,,,,,,,,,,,,,,,,,,,,,,,,,,,,,,,,,,,,,,,,,,,,,,,,,,,,,,,,,,,,,
,,,,,,,,,R_29pVfRS7pL1qY1P,2022-09-03_09h10.24.631,jpn_C03,2022.1.2,Win32,60.26637739,,,space,6.2746,0,16,16,25,1,ピク　パツ　シド　ピポ,,,CartoonStims/artist_shoot_doctor_r_no.jpg,audio/pikupatsusidopipo.mp3,,,,,,,,,,,,,,,,,,,,,,,,,,,,,,,,,,,,,,,,,,,,,,,,,,,,,,,,,,,,,,,,,,,,,,,,,,
,,,,,,,,,R_29pVfRS7pL1qY1P,2022-09-03_09h10.24.631,jpn_C03,2022.1.2,Win32,60.26637739,,,space,5.3862,0,17,17,10,1,セル　ピク　ドキ　シド,,,CartoonStims/boxer_kick_artist_r_no.jpg,audio/serupikudokisido.mp3,,,,,,,,,,,,,,,,,,,,,,,,,,,,,,,,,,,,,,,,,,,,,,,,,,,,,,,,,,,,,,,,,,,,,,,,,,
,,,,,,,,,R_29pVfRS7pL1qY1P,2022-09-03_09h10.24.631,jpn_C03,2022.1.2,Win32,60.26637739,,,space,5.0697,0,18,18,33,1,パツ　ピク　ピポ　ホレト,,,CartoonStims/doctor_shoot_chef_r_no.jpg,audio/patsupikupipohoreto.mp3,,,,,,,,,,,,,,,,,,,,,,,,,,,,,,,,,,,,,,,,,,,,,,,,,,,,,,,,,,,,,,,,,,,,,,,,,,
,,,,,,,,,R_29pVfRS7pL1qY1P,2022-09-03_09h10.24.631,jpn_C03,2022.1.2,Win32,60.26637739,,,space,7.6479,0,19,19,12,1,トマ　ピク　シド　ホレト,,,CartoonStims/artist_point_chef_r_no.jpg,audio/tomapikusidohoreto.mp3,,,,,,,,,,,,,,,,,,,,,,,,,,,,,,,,,,,,,,,,,,,,,,,,,,,,,,,,,,,,,,,,,,,,,,,,,,
,,,,,,,,,R_29pVfRS7pL1qY1P,2022-09-03_09h10.24.631,jpn_C03,2022.1.2,Win32,60.26637739,,,space,4.4818,0,20,20,20,1,トマ　ピク　ピポ　シド,,,CartoonStims/doctor_point_artist_r_no.jpg,audio/tomapikupiposido.mp3,,,,,,,,,,,,,,,,,,,,,,,,,,,,,,,,,,,,,,,,,,,,,,,,,,,,,,,,,,,,,,,,,,,,,,,,,,
,,,,,,,,,R_29pVfRS7pL1qY1P,2022-09-03_09h10.24.631,jpn_C03,2022.1.2,Win32,60.26637739,,,space,5.6539,0,21,21,38,1,プミ　ピク　ルピン　ドキ,,,CartoonStims/burglar_punch_boxer_r_no.jpg,audio/pumipikulupindoki.mp3,,,,,,,,,,,,,,,,,,,,,,,,,,,,,,,,,,,,,,,,,,,,,,,,,,,,,,,,,,,,,,,,,,,,,,,,,,
,,,,,,,,,R_29pVfRS7pL1qY1P,2022-09-03_09h10.24.631,jpn_C03,2022.1.2,Win32,60.26637739,,,space,5.1164,0,22,22,22,1,トマ　ピク　ドキ　ルピン,,,CartoonStims/boxer_point_burglar_r_no.jpg,audio/tomapikudokilupin.mp3,,,,,,,,,,,,,,,,,,,,,,,,,,,,,,,,,,,,,,,,,,,,,,,,,,,,,,,,,,,,,,,,,,,,,,,,,,
,,,,,,,,,R_29pVfRS7pL1qY1P,2022-09-03_09h10.24.631,jpn_C03,2022.1.2,Win32,60.26637739,,,space,4.35,0,23,23,30,1,パツ　ピク　ムク　シド,,,CartoonStims/cowboy_shoot_artist_r_no.jpg,audio/patsupikumukusido.mp3,,,,,,,,,,,,,,,,,,,,,,,,,,,,,,,,,,,,,,,,,,,,,,,,,,,,,,,,,,,,,,,,,,,,,,,,,,
,,,,,,,,,R_29pVfRS7pL1qY1P,2022-09-03_09h10.24.631,jpn_C03,2022.1.2,Win32,60.26637739,,,space,8.7523,0,24,24,5,1,セル　ピク　ホレト　ピポ,,,CartoonStims/chef_kick_doctor_r_no.jpg,audio/serupikuhoretopipo.mp3,,,,,,,,,,,,,,,,,,,,,,,,,,,,,,,,,,,,,,,,,,,,,,,,,,,,,,,,,,,,,,,,,,,,,,,,,,
,,,,,,,,,R_29pVfRS7pL1qY1P,2022-09-03_09h10.24.631,jpn_C03,2022.1.2,Win32,60.26637739,,,space,3.7822,0,25,25,19,1,ピク　トマ　ムク　シド,,,CartoonStims/cowboy_point_artist_r_no.jpg,audio/pikutomamukusido.mp3,,,,,,,,,,,,,,,,,,,,,,,,,,,,,,,,,,,,,,,,,,,,,,,,,,,,,,,,,,,,,,,,,,,,,,,,,,
,,,,,,,,,R_29pVfRS7pL1qY1P,2022-09-03_09h10.24.631,jpn_C03,2022.1.2,Win32,60.26637739,,,space,7.3151,0,26,26,7,1,セル　ピク　ムク　ドキ,,,CartoonStims/cowboy_kick_boxer_r_no.jpg,audio/serupikumukudoki.mp3,,,,,,,,,,,,,,,,,,,,,,,,,,,,,,,,,,,,,,,,,,,,,,,,,,,,,,,,,,,,,,,,,,,,,,,,,,
,,,,,,,,,R_29pVfRS7pL1qY1P,2022-09-03_09h10.24.631,jpn_C03,2022.1.2,Win32,60.26637739,,,space,6.1828,0,27,27,28,1,パツ　ピク　ホレト　ドキ,,,CartoonStims/chef_shoot_boxer_r_no.jpg,audio/patsupikuhoretodoki.mp3,,,,,,,,,,,,,,,,,,,,,,,,,,,,,,,,,,,,,,,,,,,,,,,,,,,,,,,,,,,,,,,,,,,,,,,,,,
,,,,,,,,,R_29pVfRS7pL1qY1P,2022-09-03_09h10.24.631,jpn_C03,2022.1.2,Win32,60.26637739,,,space,4.5827,0,28,28,17,1,トマ　ピク　ホレト　ドキ,,,CartoonStims/chef_point_boxer_r_no.jpg,audio/tomapikuhoretodoki.mp3,,,,,,,,,,,,,,,,,,,,,,,,,,,,,,,,,,,,,,,,,,,,,,,,,,,,,,,,,,,,,,,,,,,,,,,,,,
,,,,,,,,,R_29pVfRS7pL1qY1P,2022-09-03_09h10.24.631,jpn_C03,2022.1.2,Win32,60.26637739,,,space,3.9836,0,29,29,26,1,パツ　ピク　ルピン　ピポ,,,CartoonStims/burglar_shoot_doctor_r_no.jpg,audio/patsupikulupinpipo.mp3,,,,,,,,,,,,,,,,,,,,,,,,,,,,,,,,,,,,,,,,,,,,,,,,,,,,,,,,,,,,,,,,,,,,,,,,,,
,,,,,,,,,R_29pVfRS7pL1qY1P,2022-09-03_09h10.24.631,jpn_C03,2022.1.2,Win32,60.26637739,,,space,3.6355,0,30,30,39,1,プミ　ピク　ルピン　シド,,,CartoonStims/burglar_punch_artist_r_no.jpg,audio/pumipikulupinsido.mp3,,,,,,,,,,,,,,,,,,,,,,,,,,,,,,,,,,,,,,,,,,,,,,,,,,,,,,,,,,,,,,,,,,,,,,,,,,
,,,,,,,,,R_29pVfRS7pL1qY1P,2022-09-03_09h10.24.631,jpn_C03,2022.1.2,Win32,60.26637739,,,space,4.2405,0,31,31,31,1,パツ　ピク　ムク　ルピン,,,CartoonStims/cowboy_shoot_burglar_r_no.jpg,audio/patsupikumukulupin.mp3,,,,,,,,,,,,,,,,,,,,,,,,,,,,,,,,,,,,,,,,,,,,,,,,,,,,,,,,,,,,,,,,,,,,,,,,,,
,,,,,,,,,R_29pVfRS7pL1qY1P,2022-09-03_09h10.24.631,jpn_C03,2022.1.2,Win32,60.26637739,,,space,5.8485,0,32,32,13,1,トマ　ピク　シド　ムク,,,CartoonStims/artist_point_cowboy_r_no.jpg,audio/tomapikusidomuku.mp3,,,,,,,,,,,,,,,,,,,,,,,,,,,,,,,,,,,,,,,,,,,,,,,,,,,,,,,,,,,,,,,,,,,,,,,,,,
,,,,,,,,,R_29pVfRS7pL1qY1P,2022-09-03_09h10.24.631,jpn_C03,2022.1.2,Win32,60.26637739,,,space,3.4024,0,33,33,29,1,ピク　パツ　ホレト　シド,,,CartoonStims/chef_shoot_artist_r_no.jpg,audio/pikupatsuhoretosido.mp3,,,,,,,,,,,,,,,,,,,,,,,,,,,,,,,,,,,,,,,,,,,,,,,,,,,,,,,,,,,,,,,,,,,,,,,,,,
,,,,,,,,,R_29pVfRS7pL1qY1P,2022-09-03_09h10.24.631,jpn_C03,2022.1.2,Win32,60.26637739,,,space,4.0056,0,34,34,1,1,セル　ピク　シド　ホレト,,,CartoonStims/artist_kick_chef_r_no.jpg,audio/serupikusidohoreto.mp3,,,,,,,,,,,,,,,,,,,,,,,,,,,,,,,,,,,,,,,,,,,,,,,,,,,,,,,,,,,,,,,,,,,,,,,,,,
,,,,,,,,,R_29pVfRS7pL1qY1P,2022-09-03_09h10.24.631,jpn_C03,2022.1.2,Win32,60.26637739,,,space,3.7346,0,35,35,34,1,パツ　ピク　ドキ　ホレト,,,CartoonStims/boxer_shoot_chef_r_no.jpg,audio/patsupikudokihoreto.mp3,,,,,,,,,,,,,,,,,,,,,,,,,,,,,,,,,,,,,,,,,,,,,,,,,,,,,,,,,,,,,,,,,,,,,,,,,,
,,,,,,,,,R_29pVfRS7pL1qY1P,2022-09-03_09h10.24.631,jpn_C03,2022.1.2,Win32,60.26637739,,,space,3.2095,0,36,36,35,1,パツ　ピク　ドキ　ムク,,,CartoonStims/boxer_shoot_cowboy_r_no.jpg,audio/patsupikudokimuku.mp3,,,,,,,,,,,,,,,,,,,,,,,,,,,,,,,,,,,,,,,,,,,,,,,,,,,,,,,,,,,,,,,,,,,,,,,,,,
,,,,,,,,,R_29pVfRS7pL1qY1P,2022-09-03_09h10.24.631,jpn_C03,2022.1.2,Win32,60.26637739,,,space,3.4095,0,37,37,37,1,プミ　ピク　シド　ドキ,,,CartoonStims/artist_punch_boxer_r_no.jpg,audio/pumipikusidodoki.mp3,,,,,,,,,,,,,,,,,,,,,,,,,,,,,,,,,,,,,,,,,,,,,,,,,,,,,,,,,,,,,,,,,,,,,,,,,,
,,,,,,,,,R_29pVfRS7pL1qY1P,2022-09-03_09h10.24.631,jpn_C03,2022.1.2,Win32,60.26637739,,,space,3.9817,0,38,38,2,1,セル　ピク　ルピン　ホレト,,,CartoonStims/burglar_kick_chef_r_no.jpg,audio/serupikulupinhoreto.mp3,,,,,,,,,,,,,,,,,,,,,,,,,,,,,,,,,,,,,,,,,,,,,,,,,,,,,,,,,,,,,,,,,,,,,,,,,,
,,,,,,,,,R_29pVfRS7pL1qY1P,2022-09-03_09h10.24.631,jpn_C03,2022.1.2,Win32,60.26637739,,,space,6.6094,0,39,39,42,1,ピク　プミ　ムク　ルピン,,,CartoonStims/cowboy_punch_burglar_r_no.jpg,audio/pikupumimukulupin.mp3,,,,,,,,,,,,,,,,,,,,,,,,,,,,,,,,,,,,,,,,,,,,,,,,,,,,,,,,,,,,,,,,,,,,,,,,,,
,,,,,,,,,R_29pVfRS7pL1qY1P,2022-09-03_09h10.24.631,jpn_C03,2022.1.2,Win32,60.26637739,,,space,3.4335,0,40,40,27,1,ピク　パツ　ルピン　ドキ,,,CartoonStims/burglar_shoot_boxer_r_no.jpg,audio/pikupatsulupindoki.mp3,,,,,,,,,,,,,,,,,,,,,,,,,,,,,,,,,,,,,,,,,,,,,,,,,,,,,,,,,,,,,,,,,,,,,,,,,,
,,,,,,,,,R_29pVfRS7pL1qY1P,2022-09-03_09h10.24.631,jpn_C03,2022.1.2,Win32,60.26637739,,,space,2.3049,0,41,41,43,1,プミ　ピク　ムク　ホレト,,,CartoonStims/cowboy_punch_chef_r_no.jpg,audio/pumipikumukuhoreto.mp3,,,,,,,,,,,,,,,,,,,,,,,,,,,,,,,,,,,,,,,,,,,,,,,,,,,,,,,,,,,,,,,,,,,,,,,,,,
,,,,,,,,,R_29pVfRS7pL1qY1P,2022-09-03_09h10.24.631,jpn_C03,2022.1.2,Win32,60.26637739,,,space,2.8491,0,42,42,6,1,セル　ピク　ムク　ピポ,,,CartoonStims/cowboy_kick_doctor_r_no.jpg,audio/serupikumukupipo.mp3,,,,,,,,,,,,,,,,,,,,,,,,,,,,,,,,,,,,,,,,,,,,,,,,,,,,,,,,,,,,,,,,,,,,,,,,,,
,,,,,,,,,R_29pVfRS7pL1qY1P,2022-09-03_09h10.24.631,jpn_C03,2022.1.2,Win32,60.26637739,,,space,2.6512,0,43,43,23,1,ピク　トマ　ドキ　ホレト,,,CartoonStims/boxer_point_chef_r_no.jpg,audio/pikutomadokihoreto.mp3,,,,,,,,,,,,,,,,,,,,,,,,,,,,,,,,,,,,,,,,,,,,,,,,,,,,,,,,,,,,,,,,,,,,,,,,,,
,,,,,,,,,R_29pVfRS7pL1qY1P,2022-09-03_09h10.24.631,jpn_C03,2022.1.2,Win32,60.26637739,,,space,4.0108,0,44,44,3,1,セル　ピク　ルピン　ムク,,,CartoonStims/burglar_kick_cowboy_r_no.jpg,audio/serupikulupinmuku.mp3,,,,,,,,,,,,,,,,,,,,,,,,,,,,,,,,,,,,,,,,,,,,,,,,,,,,,,,,,,,,,,,,,,,,,,,,,,
,,,,,,,,,R_29pVfRS7pL1qY1P,2022-09-03_09h10.24.631,jpn_C03,2022.1.2,Win32,60.26637739,,,space,1.9376,0,45,45,11,1,セル　ピク　ドキ　ルピン,,,CartoonStims/boxer_kick_burglar_r_no.jpg,audio/serupikudokilupin.mp3,,,,,,,,,,,,,,,,,,,,,,,,,,,,,,,,,,,,,,,,,,,,,,,,,,,,,,,,,,,,,,,,,,,,,,,,,,
,,,,,,,,,R_29pVfRS7pL1qY1P,2022-09-03_09h10.24.631,jpn_C03,2022.1.2,Win32,60.26637739,,,space,3.2335,0,46,46,0,1,ピク　セル　シド　ルピン,,,CartoonStims/artist_kick_burglar_r_no.jpg,audio/pikuserusidolupin.mp3,,,,,,,,,,,,,,,,,,,,,,,,,,,,,,,,,,,,,,,,,,,,,,,,,,,,,,,,,,,,,,,,,,,,,,,,,,
,,,,,,,,,R_29pVfRS7pL1qY1P,2022-09-03_09h10.24.631,jpn_C03,2022.1.2,Win32,60.26637739,,,space,6.6998,0,47,47,16,1,トマ　ピク　ホレト　ピポ,,,CartoonStims/chef_point_doctor_r_no.jpg,audio/tomapikuhoretopipo.mp3,,,,,,,,,,,,,,,,,,,,,,,,,,,,,,,,,,,,,,,,,,,,,,,,,,,,,,,,,,,,,,,,,,,,,,,,,,
,,,,,,,,,R_29pVfRS7pL1qY1P,2022-09-03_09h10.24.631,jpn_C03,2022.1.2,Win32,60.26637739,,,,,,,,,,,,,,,space,0.4768,right,0,8.6199,,,,,,,,,,,,,,,,,,,,,,,,,,,,,,,,,,,,,,,,,,,,,,,,,,,,,,,,,,,,,,0,0,0,0,1,,,
,,,,,,,,,R_29pVfRS7pL1qY1P,2022-09-03_09h10.24.631,jpn_C03,2022.1.2,Win32,60.26637739,,,,,,,,,,,,,,,,,,,,,,,,,0,0,0,8,1,CartoonStims/burglar_punch_artist_r.jpg,トマ　ピク　ルピン　シド,CartoonStims/burglar_point_artist_r.jpg,left,CartoonStims/burglar_punch_artist_r.jpg,audio/tomapikulupinsido.mp3,"残念！ こちらが正しい画像です。

否定文は起きていないことを示しているのを思い出してください。",,,,,,,,,,,,,,,,,,,,,,,,,,,,,,,,,,,,,,,,,,,,,,,,,,,,
,,,,,,,,,R_29pVfRS7pL1qY1P,2022-09-03_09h10.24.631,jpn_C03,2022.1.2,Win32,60.26637739,,,,,,,,,,,,,,,,,right,0,7.6692,,,,,,,,,,,,,,,,,,,,,,,,,,,,,,,,,,,,,,,,,,,,,,,,,,,,,,,,,,,,,,0,0,0,0,1,,,
,,,,,,,,,R_29pVfRS7pL1qY1P,2022-09-03_09h10.24.631,jpn_C03,2022.1.2,Win32,60.26637739,,,,,,,,,,,,,,,,,,,,,,,,,0,1,1,2,1,CartoonStims/doctor_point_boxer_r.jpg,プミ　ピク　ピポ　ドキ,CartoonStims/doctor_punch_boxer_r.jpg,left,CartoonStims/doctor_point_boxer_r.jpg,audio/pumipikupipodoki.mp3,"残念！ こちらが正しい画像です。

否定文は起きていないことを示しているのを思い出してください。",,,,,,,,,,,,,,,,,,,,,,,,,,,,,,,,,,,,,,,,,,,,,,,,,,,,
,,,,,,,,,R_29pVfRS7pL1qY1P,2022-09-03_09h10.24.631,jpn_C03,2022.1.2,Win32,60.26637739,,,,,,,,,,,,,,,,,left,1,12.9859,0,0,0,0,1,,,,,,,,,,,,,,,,,,,,,,,,,,,,,,,,,,,,,,,,,,,,,,,,,,,,,,,,,,,,,,,,
,,,,,,,,,R_29pVfRS7pL1qY1P,2022-09-03_09h10.24.631,jpn_C03,2022.1.2,Win32,60.26637739,,,,,,,,,,,,,,,,,,,,,,,,,0,2,2,0,1,CartoonStims/artist_shoot_burglar_r.jpg,ピク　プミ　シド　ルピン,CartoonStims/artist_punch_burglar_r.jpg,left,CartoonStims/artist_shoot_burglar_r.jpg,audio/pikupumisidolupin.mp3,"残念！ こちらが正しい画像です。

否定文は起きていないことを示しているのを思い出してください。",,,,,,,,,,,,,,,,,,,,,,,,,,,,,,,,,,,,,,,,,,,,,,,,,,,,
,,,,,,,,,R_29pVfRS7pL1qY1P,2022-09-03_09h10.24.631,jpn_C03,2022.1.2,Win32,60.26637739,,,,,,,,,,,,,,,,,right,1,4.4502,,,,,,,,,,,,,,,,,,0,0,0,0,1,,,,,,,,,,,,,,,,,,,,,,,,,,,,,,,,,,,,,,,,,,,,,,,
,,,,,,,,,R_29pVfRS7pL1qY1P,2022-09-03_09h10.24.631,jpn_C03,2022.1.2,Win32,60.26637739,,,,,,,,,,,,,,,,,,,,,,,,,0,3,3,7,1,CartoonStims/cowboy_point_chef_r.jpg,ピク　トマ　ムク　ホレト,CartoonStims/cowboy_kick_chef_r.jpg,right,CartoonStims/cowboy_kick_chef_r.jpg,audio/pikutomamukuhoreto.mp3,"残念！ こちらが正しい画像です。

否定文は起きていないことを示しているのを思い出してください。",,,,,,,,,,,,,,,,,,,,,,,,,,,,,,,,,,,,,,,,,,,,,,,,,,,,
,,,,,,,,,R_29pVfRS7pL1qY1P,2022-09-03_09h10.24.631,jpn_C03,2022.1.2,Win32,60.26637739,,,,,,,,,,,,,,,,,right,1,7.3138,,,,,,,,,,,,,,,,,,0,0,0,0,1,,,,,,,,,,,,,,,,,,,,,,,,,,,,,,,,,,,,,,,,,,,,,,,
,,,,,,,,,R_29pVfRS7pL1qY1P,2022-09-03_09h10.24.631,jpn_C03,2022.1.2,Win32,60.26637739,,,,,,,,,,,,,,,,,,,,,,,,,0,4,4,1,1,CartoonStims/chef_punch_cowboy_r.jpg,プミ　ピク　ホレト　ムク,CartoonStims/chef_kick_cowboy_r.jpg,right,CartoonStims/chef_kick_cowboy_r.jpg,audio/pumipikuhoretomuku.mp3,"残念！ こちらが正しい画像です。

否定文は起きていないことを示しているのを思い出してください。",,,,,,,,,,,,,,,,,,,,,,,,,,,,,,,,,,,,,,,,,,,,,,,,,,,,
,,,,,,,,,R_29pVfRS7pL1qY1P,2022-09-03_09h10.24.631,jpn_C03,2022.1.2,Win32,60.26637739,,,,,,,,,,,,,,,,,right,1,2.8222,,,,,,,,,,,,,,,,,,0,0,0,0,1,,,,,,,,,,,,,,,,,,,,,,,,,,,,,,,,,,,,,,,,,,,,,,,
,,,,,,,,,R_29pVfRS7pL1qY1P,2022-09-03_09h10.24.631,jpn_C03,2022.1.2,Win32,60.26637739,,,,,,,,,,,,,,,,,,,,,,,,,0,5,5,11,1,CartoonStims/chef_shoot_burglar_r.jpg,パツ　ピク　ホレト　ルピン,CartoonStims/chef_kick_burglar_r.jpg,right,CartoonStims/chef_kick_burglar_r.jpg,audio/patsupikuhoretolupin.mp3,"残念！ こちらが正しい画像です。

否定文は起きていないことを示しているのを思い出してください。",,,,,,,,,,,,,,,,,,,,,,,,,,,,,,,,,,,,,,,,,,,,,,,,,,,,
,,,,,,,,,R_29pVfRS7pL1qY1P,2022-09-03_09h10.24.631,jpn_C03,2022.1.2,Win32,60.26637739,,,,,,,,,,,,,,,,,left,1,2.4518,0,0,0,0,1,,,,,,,,,,,,,,,,,,,,,,,,,,,,,,,,,,,,,,,,,,,,,,,,,,,,,,,,,,,,,,,,
,,,,,,,,,R_29pVfRS7pL1qY1P,2022-09-03_09h10.24.631,jpn_C03,2022.1.2,Win32,60.26637739,,,,,,,,,,,,,,,,,,,,,,,,,0,6,6,6,1,CartoonStims/artist_shoot_boxer_r.jpg,トマ　ピク　シド　ドキ,CartoonStims/artist_point_boxer_r.jpg,left,CartoonStims/artist_shoot_boxer_r.jpg,audio/tomapikusidodoki.mp3,"残念！ こちらが正しい画像です。

否定文は起きていないことを示しているのを思い出してください。",,,,,,,,,,,,,,,,,,,,,,,,,,,,,,,,,,,,,,,,,,,,,,,,,,,,
,,,,,,,,,R_29pVfRS7pL1qY1P,2022-09-03_09h10.24.631,jpn_C03,2022.1.2,Win32,60.26637739,,,,,,,,,,,,,,,,,right,1,6.4702,,,,,,,,,,,,,,,,,,0,0,0,0,1,,,,,,,,,,,,,,,,,,,,,,,,,,,,,,,,,,,,,,,,,,,,,,,
,,,,,,,,,R_29pVfRS7pL1qY1P,2022-09-03_09h10.24.631,jpn_C03,2022.1.2,Win32,60.26637739,,,,,,,,,,,,,,,,,,,,,,,,,0,7,7,3,1,CartoonStims/chef_kick_artist_r.jpg,ピク　セル　ホレト　シド,CartoonStims/chef_point_artist_r.jpg,right,CartoonStims/chef_point_artist_r.jpg,audio/pikuseruhoretosido.mp3,"残念！ こちらが正しい画像です。

否定文は起きていないことを示しているのを思い出してください。",,,,,,,,,,,,,,,,,,,,,,,,,,,,,,,,,,,,,,,,,,,,,,,,,,,,
,,,,,,,,,R_29pVfRS7pL1qY1P,2022-09-03_09h10.24.631,jpn_C03,2022.1.2,Win32,60.26637739,,,,,,,,,,,,,,,,,right,1,3.1226,,,,,,,,,,,,,,,,,,0,0,0,0,1,,,,,,,,,,,,,,,,,,,,,,,,,,,,,,,,,,,,,,,,,,,,,,,
,,,,,,,,,R_29pVfRS7pL1qY1P,2022-09-03_09h10.24.631,jpn_C03,2022.1.2,Win32,60.26637739,,,,,,,,,,,,,,,,,,,,,,,,,0,8,8,9,1,CartoonStims/boxer_shoot_doctor_r.jpg,パツ　ピク　ドキ　ピポ,CartoonStims/boxer_point_doctor_r.jpg,right,CartoonStims/boxer_point_doctor_r.jpg,audio/patsupikudokipipo.mp3,"残念！ こちらが正しい画像です。

否定文は起きていないことを示しているのを思い出してください。",,,,,,,,,,,,,,,,,,,,,,,,,,,,,,,,,,,,,,,,,,,,,,,,,,,,
,,,,,,,,,R_29pVfRS7pL1qY1P,2022-09-03_09h10.24.631,jpn_C03,2022.1.2,Win32,60.26637739,,,,,,,,,,,,,,,,,right,1,2.8162,,,,,,,,,,,,,,,,,,0,0,0,0,1,,,,,,,,,,,,,,,,,,,,,,,,,,,,,,,,,,,,,,,,,,,,,,,
,,,,,,,,,R_29pVfRS7pL1qY1P,2022-09-03_09h10.24.631,jpn_C03,2022.1.2,Win32,60.26637739,,,,,,,,,,,,,,,,,,,,,,,,,0,9,9,5,1,CartoonStims/boxer_kick_cowboy_r.jpg,セル　ピク　ドキ　ムク,CartoonStims/boxer_punch_cowboy_r.jpg,right,CartoonStims/boxer_punch_cowboy_r.jpg,audio/serupikudokimuku.mp3,"残念！ こちらが正しい画像です。

否定文は起きていないことを示しているのを思い出してください。",,,,,,,,,,,,,,,,,,,,,,,,,,,,,,,,,,,,,,,,,,,,,,,,,,,,
,,,,,,,,,R_29pVfRS7pL1qY1P,2022-09-03_09h10.24.631,jpn_C03,2022.1.2,Win32,60.26637739,,,,,,,,,,,,,,,,,left,1,3.0428,0,0,0,0,1,,,,,,,,,,,,,,,,,,,,,,,,,,,,,,,,,,,,,,,,,,,,,,,,,,,,,,,,,,,,,,,,
,,,,,,,,,R_29pVfRS7pL1qY1P,2022-09-03_09h10.24.631,jpn_C03,2022.1.2,Win32,60.26637739,,,,,,,,,,,,,,,,,,,,,,,,,0,10,10,10,1,CartoonStims/doctor_punch_cowboy_r.jpg,ピク　パツ　ピポ　ムク,CartoonStims/doctor_shoot_cowboy_r.jpg,left,CartoonStims/doctor_punch_cowboy_r.jpg,audio/pikupatsupipomuku.mp3,"残念！ こちらが正しい画像です。

否定文は起きていないことを示しているのを思い出してください。",,,,,,,,,,,,,,,,,,,,,,,,,,,,,,,,,,,,,,,,,,,,,,,,,,,,
,,,,,,,,,R_29pVfRS7pL1qY1P,2022-09-03_09h10.24.631,jpn_C03,2022.1.2,Win32,60.26637739,,,,,,,,,,,,,,,,,left,1,4.8316,0,0,0,0,1,,,,,,,,,,,,,,,,,,,,,,,,,,,,,,,,,,,,,,,,,,,,,,,,,,,,,,,,,,,,,,,,
,,,,,,,,,R_29pVfRS7pL1qY1P,2022-09-03_09h10.24.631,jpn_C03,2022.1.2,Win32,60.26637739,,,,,,,,,,,,,,,,,,,,,,,,,0,11,11,4,1,CartoonStims/burglar_shoot_doctor_r.jpg,セル　ピク　ルピン　ピポ,CartoonStims/burglar_kick_doctor_r.jpg,left,CartoonStims/burglar_shoot_doctor_r.jpg,audio/serupikulupinpipo.mp3,"残念！ こちらが正しい画像です。

否定文は起きていないことを示しているのを思い出してください。",,,,,,,,,,,,,,,,,,,,,,,,,,,,,,,,,,,,,,,,,,,,,,,,,,,,
,,,,,,,,,R_29pVfRS7pL1qY1P,2022-09-03_09h10.24.631,jpn_C03,2022.1.2,Win32,60.26637739,,,,,,,,,,,,,CartoonStims/cowboy_kick_burglar_r.jpg,,,,,,,,,,,,,,,,,,,,,,,,,,,,,space,4.3581,セル　ムク　ルピン,right,16.0728,,,,,,0,0,0,24,1,,,,,,,,,,,,,,,,,,,,,,,,,,,,,,セル　ムク　ルピン,セル　ムク　ルピン,0
,,,,,,,,,R_29pVfRS7pL1qY1P,2022-09-03_09h10.24.631,jpn_C03,2022.1.2,Win32,60.26637739,,,,,,,,,,,,,CartoonStims/burglar_point_artist_r.jpg,,,,,,,,,,,,,,,,,,,,,,,,,,,,,,,トマ　ルピン　シド,right,10.2209,,,,,,0,1,1,28,1,,,,,,,,,,,,,,,,,,,,,,,,,,,,,,トマ　ルピン　シド,トマ　ルピン　シド,0
,,,,,,,,,R_29pVfRS7pL1qY1P,2022-09-03_09h10.24.631,jpn_C03,2022.1.2,Win32,60.26637739,,,,,,,,,,,,,CartoonStims/boxer_punch_chef_r_no.jpg,,,,,,,,,,,,,,,,,,,,,,,,,,,,,,,ピク　プミ　ドキ　ホレト,right,24.7703,,,,,,0,2,2,23,1,,,,,,,,,,,,,,,,,,,,,,,,,,,,,,ピク　プミ　ドキ　ホレト,プミ　ピク　ドキ　ホレト,1
,,,,,,,,,R_29pVfRS7pL1qY1P,2022-09-03_09h10.24.631,jpn_C03,2022.1.2,Win32,60.26637739,,,,,,,,,,,,,CartoonStims/cowboy_punch_artist_r_no.jpg,,,,,,,,,,,,,,,,,,,,,,,,,,,,,,,ピク　プミ　ムク　シド,right,19.9426,,,,,,0,3,3,21,1,,,,,,,,,,,,,,,,,,,,,,,,,,,,,,ピク　プミ　ムク　シド,プミ　ピク　ムク　シド,1
,,,,,,,,,R_29pVfRS7pL1qY1P,2022-09-03_09h10.24.631,jpn_C03,2022.1.2,Win32,60.26637739,,,,,,,,,,,,,CartoonStims/boxer_kick_cowboy_r.jpg,,,,,,,,,,,,,,,,,,,,,,,,,,,,,,,セル　ドキ　ムク,right,13.9788,,,,,,0,4,4,26,1,,,,,,,,,,,,,,,,,,,,,,,,,,,,,,セル　ドキ　ムク,セル　ドキ　ムク,0
,,,,,,,,,R_29pVfRS7pL1qY1P,2022-09-03_09h10.24.631,jpn_C03,2022.1.2,Win32,60.26637739,,,,,,,,,,,,,CartoonStims/doctor_kick_chef_r.jpg,,,,,,,,,,,,,,,,,,,,,,,,,,,,,,,セル　ピポ　ホレト,right,11.0692,,,,,,0,5,5,25,1,,,,,,,,,,,,,,,,,,,,,,,,,,,,,,セル　ピポ　ホレト,セル　ピポ　ホレト,0
,,,,,,,,,R_29pVfRS7pL1qY1P,2022-09-03_09h10.24.631,jpn_C03,2022.1.2,Win32,60.26637739,,,,,,,,,,,,,CartoonStims/doctor_punch_burglar_r_no.jpg,,,,,,,,,,,,,,,,,,,,,,,,,,,,,,,ピク　プミ　ピポ　ルピン,right,19.1999,,,,,,0,6,6,22,1,,,,,,,,,,,,,,,,,,,,,,,,,,,,,,ピク　プミ　ピポ　ルピン,プミ　ピク　ピポ　ルピン,1
,,,,,,,,,R_29pVfRS7pL1qY1P,2022-09-03_09h10.24.631,jpn_C03,2022.1.2,Win32,60.26637739,,,,,,,,,,,,,CartoonStims/chef_shoot_cowboy_r.jpg,,,,,,,,,,,,,,,,,,,,,,,,,,,,,,,パツ　ホレト　ムク,right,17.4572,,,,,,0,7,7,31,1,,,,,,,,,,,,,,,,,,,,,,,,,,,,,,パツ　ホレト　ムク,パツ　ホレト　ムク,0
,,,,,,,,,R_29pVfRS7pL1qY1P,2022-09-03_09h10.24.631,jpn_C03,2022.1.2,Win32,60.26637739,,,,,,,,,,,,,CartoonStims/cowboy_point_doctor_r_no.jpg,,,,,,,,,,,,,,,,,,,,,,,,,,,,,,,ピク　トマ　ムク　ピポ,right,22.1891,,,,,,0,8,8,9,1,,,,,,,,,,,,,,,,,,,,,,,,,,,,,,ピク　トマ　ムク　ピポ,トマ　ピク　ムク　ピポ,1
,,,,,,,,,R_29pVfRS7pL1qY1P,2022-09-03_09h10.24.631,jpn_C03,2022.1.2,Win32,60.26637739,,,,,,,,,,,,,CartoonStims/doctor_shoot_artist_r_no.jpg,,,,,,,,,,,,,,,,,,,,,,,,,,,,,,,ピク　パツ　プピ　シド,right,16.2063,,,,,,0,9,9,16,1,,,,,,,,,,,,,,,,,,,,,,,,,,,,,,ピク　パツ　ピポ　シド,パツ　ピク　ピポ　シド,1
,,,,,,,,,R_29pVfRS7pL1qY1P,2022-09-03_09h10.24.631,jpn_C03,2022.1.2,Win32,60.26637739,,,,,,,,,,,,,CartoonStims/chef_point_burglar_r.jpg,,,,,,,,,,,,,,,,,,,,,,,,,,,,,,,トマ　ホレト　ルピン,right,10.9768,,,,,,0,10,10,29,1,,,,,,,,,,,,,,,,,,,,,,,,,,,,,,トマ　ホレト　ルピン,トマ　ホレト　ルピン,0
,,,,,,,,,R_29pVfRS7pL1qY1P,2022-09-03_09h10.24.631,jpn_C03,2022.1.2,Win32,60.26637739,,,,,,,,,,,,,CartoonStims/burglar_shoot_chef_r.jpg,,,,,,,,,,,,,,,,,,,,,,,,,,,,,,,パツ　ルピン　ホレト,right,7.6127,,,,,,0,11,11,30,1,,,,,,,,,,,,,,,,,,,,,,,,,,,,,,パツ　ルピン　ホレト,パツ　ルピン　ホレト,0
,,,,,,,,,R_29pVfRS7pL1qY1P,2022-09-03_09h10.24.631,jpn_C03,2022.1.2,Win32,60.26637739,,,,,,,,,,,,,CartoonStims/artist_point_boxer_r.jpg,,,,,,,,,,,,,,,,,,,,,,,,,,,,,,,トマ　シド　ドキ,right,13.7687,,,,,,0,12,12,27,1,,,,,,,,,,,,,,,,,,,,,,,,,,,,,,トマ　シド　ドキ,トマ　シド　ドキ,0
,,,,,,,,,R_29pVfRS7pL1qY1P,2022-09-03_09h10.24.631,jpn_C03,2022.1.2,Win32,60.26637739,,,,,,,,,,,,,CartoonStims/burglar_point_chef_r_no.jpg,,,,,,,,,,,,,,,,,,,,,,,,,,,,,,,ピク　ルピン　ホレト,right,9.5371,,,,,,0,13,13,7,1,,,,,,,,,,,,,,,,,,,,,,,,,,,,,,ピク　トマ　ルピン　ホレト,トマ　ピク　ルピン　ホレト,1
,,,,,,,,,R_29pVfRS7pL1qY1P,2022-09-03_09h10.24.631,jpn_C03,2022.1.2,Win32,60.26637739,,,,,,,,,,,,,CartoonStims/chef_point_cowboy_r_no.jpg,,,,,,,,,,,,,,,,,,,,,,,,,,,,,,,ピク　ホレト　ムク,right,13.3852,,,,,,0,14,14,8,1,,,,,,,,,,,,,,,,,,,,,,,,,,,,,,ピク　トマ　ホレト　ムク,トマ　ピク　ホレト　ムク,1
,,,,,,,,,R_29pVfRS7pL1qY1P,2022-09-03_09h10.24.631,jpn_C03,2022.1.2,Win32,60.26637739,,,,,,,,,,,,,CartoonStims/doctor_point_boxer_r_no.jpg,,,,,,,,,,,,,,,,,,,,,,,,,,,,,,,ピク　トマ　ピポ　ドキ,right,12.4346,,,,,,0,15,15,10,1,,,,,,,,,,,,,,,,,,,,,,,,,,,,,,ピク　トマ　ピポ　ドキ,トマ　ピク　ピポ　ドキ,1
,,,,,,,,,R_29pVfRS7pL1qY1P,2022-09-03_09h10.24.631,jpn_C03,2022.1.2,Win32,60.26637739,,,,,,,,,,,,,CartoonStims/cowboy_kick_chef_r_no.jpg,,,,,,,,,,,,,,,,,,,,,,,,,,,,,,,ピク　セル　ムク　ホレト,right,11.8423,,,,,,0,16,16,3,1,,,,,,,,,,,,,,,,,,,,,,,,,,,,,,ピク　セル　ムク　ホレト,セル　ピク　ムク　ホレト,1
,,,,,,,,,R_29pVfRS7pL1qY1P,2022-09-03_09h10.24.631,jpn_C03,2022.1.2,Win32,60.26637739,,,,,,,,,,,,,CartoonStims/doctor_kick_cowboy_r_no.jpg,,,,,,,,,,,,,,,,,,,,,,,,,,,,,,,セル　ピク　ピポ　ムク,right,27.0438,,,,,,0,17,17,4,1,,,,,,,,,,,,,,,,,,,,,,,,,,,,,,ピク　セル　ピポ　ムク,セル　ピク　ピポ　ムク,1
,,,,,,,,,R_29pVfRS7pL1qY1P,2022-09-03_09h10.24.631,jpn_C03,2022.1.2,Win32,60.26637739,,,,,,,,,,,,,CartoonStims/artist_point_burglar_r_no.jpg,,,,,,,,,,,,,,,,,,,,,,,,,,,,,,,トマ　ピク　シド　ルピン,right,12.567,,,,,,0,18,18,6,1,,,,,,,,,,,,,,,,,,,,,,,,,,,,,,ピク　トマ　シド　ルピン,トマ　ピク　シド　ルピン,1
,,,,,,,,,R_29pVfRS7pL1qY1P,2022-09-03_09h10.24.631,jpn_C03,2022.1.2,Win32,60.26637739,,,,,,,,,,,,,CartoonStims/boxer_punch_artist_r.jpg,,,,,,,,,,,,,,,,,,,,,,,,,,,,,,,プミ　ドキ　シド,right,14.1975,,,,,,0,19,19,35,1,,,,,,,,,,,,,,,,,,,,,,,,,,,,,,プミ　ドキ　シド,プミ　ドキ　シド,0
,,,,,,,,,R_29pVfRS7pL1qY1P,2022-09-03_09h10.24.631,jpn_C03,2022.1.2,Win32,60.26637739,,,,,,,,,,,,,CartoonStims/cowboy_shoot_boxer_r_no.jpg,,,,,,,,,,,,,,,,,,,,,,,,,,,,,,,パツ　ピク　ムク　ドキ,right,21.0048,,,,,,0,20,20,15,1,,,,,,,,,,,,,,,,,,,,,,,,,,,,,,ピク　パツ　ムク　ドキ,パツ　ピク　ムク　ドキ,1
,,,,,,,,,R_29pVfRS7pL1qY1P,2022-09-03_09h10.24.631,jpn_C03,2022.1.2,Win32,60.26637739,,,,,,,,,,,,,CartoonStims/chef_kick_burglar_r_no.jpg,,,,,,,,,,,,,,,,,,,,,,,,,,,,,,,ピク　セル　ホレト　ルピン,right,15.2115,,,,,,0,21,21,2,1,,,,,,,,,,,,,,,,,,,,,,,,,,,,,,ピク　セル　ホレト　ルピン,セル　ピク　ホレト　ルピン,1
,,,,,,,,,R_29pVfRS7pL1qY1P,2022-09-03_09h10.24.631,jpn_C03,2022.1.2,Win32,60.26637739,,,,,,,,,,,,,CartoonStims/boxer_kick_doctor_r_no.jpg,,,,,,,,,,,,,,,,,,,,,,,,,,,,,,,セル　ピク　ドキ　ピポ,right,23.1299,,,,,,0,22,22,5,1,,,,,,,,,,,,,,,,,,,,,,,,,,,,,,ピク　セル　ドキ　ピポ,セル　ピク　ドキ　ピポ,1
,,,,,,,,,R_29pVfRS7pL1qY1P,2022-09-03_09h10.24.631,jpn_C03,2022.1.2,Win32,60.26637739,,,,,,,,,,,,,CartoonStims/doctor_punch_boxer_r.jpg,,,,,,,,,,,,,,,,,,,,,,,,,,,,,,,プミ　ピポ　ドキ,right,16.3621,,,,,,0,23,23,34,1,,,,,,,,,,,,,,,,,,,,,,,,,,,,,,プミ　ピポ　ドキ,プミ　ピポ　ドキ,0
,,,,,,,,,R_29pVfRS7pL1qY1P,2022-09-03_09h10.24.631,jpn_C03,2022.1.2,Win32,60.26637739,,,,,,,,,,,,,CartoonStims/boxer_point_artist_r_no.jpg,,,,,,,,,,,,,,,,,,,,,,,,,,,,,,,ピク　トマ　ドキ　シド,right,14.7433,,,,,,0,24,24,11,1,,,,,,,,,,,,,,,,,,,,,,,,,,,,,,ピク　トマ　ドキ　シド,トマ　ピク　ドキ　シド,1
,,,,,,,,,R_29pVfRS7pL1qY1P,2022-09-03_09h10.24.631,jpn_C03,2022.1.2,Win32,60.26637739,,,,,,,,,,,,,CartoonStims/chef_punch_boxer_r_no.jpg,,,,,,,,,,,,,,,,,,,,,,,,,,,,,,,プミ　ピク　ホレト　ドキ,right,18.6313,,,,,,0,25,25,20,1,,,,,,,,,,,,,,,,,,,,,,,,,,,,,,ピク　プミ　ホレト　ドキ,プミ　ピク　ホレト　ドキ,1
,,,,,,,,,R_29pVfRS7pL1qY1P,2022-09-03_09h10.24.631,jpn_C03,2022.1.2,Win32,60.26637739,,,,,,,,,,,,,CartoonStims/burglar_kick_artist_r_no.jpg,,,,,,,,,,,,,,,,,,,,,,,,,,,,,,,ピク　セル　ルピン　シド,right,19.7425,,,,,,0,26,26,1,1,,,,,,,,,,,,,,,,,,,,,,,,,,,,,,ピク　セル　ルピン　シド,セル　ピク　ルピン　シド,1
,,,,,,,,,R_29pVfRS7pL1qY1P,2022-09-03_09h10.24.631,jpn_C03,2022.1.2,Win32,60.26637739,,,,,,,,,,,,,CartoonStims/cowboy_shoot_doctor_r.jpg,,,,,,,,,,,,,,,,,,,,,,,,,,,,,,,パツ　ピク　ムク　ピポ,right,16.3844,,,,,,0,27,27,32,1,,,,,,,,,,,,,,,,,,,,,,,,,,,,,,パツ　ムク　ピポ,パツ　ムク　ピポ,0
,,,,,,,,,R_29pVfRS7pL1qY1P,2022-09-03_09h10.24.631,jpn_C03,2022.1.2,Win32,60.26637739,,,,,,,,,,,,,CartoonStims/boxer_shoot_burglar_r_no.jpg,,,,,,,,,,,,,,,,,,,,,,,,,,,,,,,パツ　ピク　ドキ　ルピン,right,20.173,,,,,,0,28,28,17,1,,,,,,,,,,,,,,,,,,,,,,,,,,,,,,ピク　パツ　ドキ　ルピン,パツ　ピク　ドキ　ルピン,1
,,,,,,,,,R_29pVfRS7pL1qY1P,2022-09-03_09h10.24.631,jpn_C03,2022.1.2,Win32,60.26637739,,,,,,,,,,,,,CartoonStims/artist_punch_cowboy_r_no.jpg,,,,,,,,,,,,,,,,,,,,,,,,,,,,,,,パツ　プミ　シド　ムク,right,18.699,,,,,,0,29,29,18,1,,,,,,,,,,,,,,,,,,,,,,,,,,,,,,ピク　プミ　シド　ムク,プミ　ピク　シド　ムク,1
,,,,,,,,,R_29pVfRS7pL1qY1P,2022-09-03_09h10.24.631,jpn_C03,2022.1.2,Win32,60.26637739,,,,,,,,,,,,,CartoonStims/artist_kick_boxer_r_no.jpg,,,,,,,,,,,,,,,,,,,,,,,,,,,,,,,ピク　セル　シド　ムク,right,25.146,,,,,,0,30,30,0,1,,,,,,,,,,,,,,,,,,,,,,,,,,,,,,ピク　セル　シド　ドキ,セル　ピク　シド　ドキ,1
,,,,,,,,,R_29pVfRS7pL1qY1P,2022-09-03_09h10.24.631,jpn_C03,2022.1.2,Win32,60.26637739,,,,,,,,,,,,,CartoonStims/burglar_punch_doctor_r_no.jpg,,,,,,,,,,,,,,,,,,,,,,,,,,,,,,,ピク　プミ　ルピン　ピポ,right,26.8945,,,,,,0,31,31,19,1,,,,,,,,,,,,,,,,,,,,,,,,,,,,,,ピク　プミ　ルピン　ピポ,プミ　ピク　ルピン　ピポ,1
,,,,,,,,,R_29pVfRS7pL1qY1P,2022-09-03_09h10.24.631,jpn_C03,2022.1.2,Win32,60.26637739,,,,,,,,,,,,,CartoonStims/burglar_shoot_cowboy_r_no.jpg,,,,,,,,,,,,,,,,,,,,,,,,,,,,,,,パツ　ピク　ルピン　シド,right,12.2564,,,,,,0,32,32,13,1,,,,,,,,,,,,,,,,,,,,,,,,,,,,,,ピク　パツ　ルピン　ムク,パツ　ピク　ルピン　ムク,1
,,,,,,,,,R_29pVfRS7pL1qY1P,2022-09-03_09h10.24.631,jpn_C03,2022.1.2,Win32,60.26637739,,,,,,,,,,,,,CartoonStims/artist_shoot_chef_r_no.jpg,,,,,,,,,,,,,,,,,,,,,,,,,,,,,,,ピク　パツ　シド　ホレト,right,27.221,,,,,,0,33,33,12,1,,,,,,,,,,,,,,,,,,,,,,,,,,,,,,ピク　パツ　シド　ホレト,パツ　ピク　シド　ホレト,1
,,,,,,,,,R_29pVfRS7pL1qY1P,2022-09-03_09h10.24.631,jpn_C03,2022.1.2,Win32,60.26637739,,,,,,,,,,,,,CartoonStims/chef_shoot_doctor_r_no.jpg,,,,,,,,,,,,,,,,,,,,,,,,,,,,,,,ピク　パツ　ホレト　ピポ,right,23.7042,,,,,,0,34,34,14,1,,,,,,,,,,,,,,,,,,,,,,,,,,,,,,ピク　パツ　ホレト　ピポ,パツ　ピク　ホレト　ピポ,1
,,,,,,,,,R_29pVfRS7pL1qY1P,2022-09-03_09h10.24.631,jpn_C03,2022.1.2,Win32,60.26637739,,,,,,,,,,,,,CartoonStims/artist_punch_burglar_r.jpg,,,,,,,,,,,,,,,,,,,,,,,,,,,,,,,プミ　シド　ルピン,right,14.6652,,,,,,0,35,35,33,1,,,,,,,,,,,,,,,,,,,,,,,,,,,,,,プミ　シド　ルピン,プミ　シド　ルピン,0
,,,,,,,,,R_29pVfRS7pL1qY1P,2022-09-03_09h10.24.631,jpn_C03,2022.1.2,Win32,60.26637739,,,,,,,,,,,,,,,,,,,,,,,,,,,,,,,,,,,,,,,,,,,,,,,,,,,,,,,,,,,space,2.5434,0,2,2,2,1,VNegCondition.xlsx,"ここではこの言語における否定の文を学習していただきます。引き続き注意して、 聞こえた音を復唱してください。

スペースキーを押してください。",1,VNegFCT.xlsx,ここからクイズが始まります。 スクリーンに表示されるテキストに合うイメージを選んでください。,NegTest.xlsx,1,最後にここまで学んだことをアウトプットしていただきます。 テキストボックスにあるイメージを描写するテキストを入力してください。 このタスクでは、 答え合わせは行いません。,0,これですべての実験が終わりました。 お疲れさまです。 この後はアンケートに答えていただきます。,,,,,,,,,,,,,