key_resp_instr_a.keys,key_resp_instr_a.rt,key_resp_instr_b.keys,key_resp_instr_b.rt,dummy.thisRepN,dummy.thisTrialN,dummy.thisN,dummy.thisIndex,dummy.ran,participant,date,expName,psychopyVersion,OS,frameRate,key_resp_instr1.keys,key_resp_instr1.rt,key_resp.keys,key_resp.rt,exp_loop.thisRepN,exp_loop.thisTrialN,exp_loop.thisN,exp_loop.thisIndex,exp_loop.ran,Word,English,Flip,Path,Audio,key_resp_instr2.keys,key_resp_instr2.rt,key_resp_fct.keys,key_resp_fct.corr,key_resp_fct.rt,trials_2.thisRepN,trials_2.thisTrialN,trials_2.thisN,trials_2.thisIndex,trials_2.ran,fct_loop.thisRepN,fct_loop.thisTrialN,fct_loop.thisN,fct_loop.thisIndex,fct_loop.ran,left_img,word,right_img,correctans,correct_img,audio,incorrect_feedback,trials.thisRepN,trials.thisTrialN,trials.thisN,trials.thisIndex,trials.ran,key_resp_instr3.keys,key_resp_instr3.rt,textbox.text,key_resp_2.keys,key_resp_2.rt,fb_yn.thisRepN,fb_yn.thisTrialN,fb_yn.thisN,fb_yn.thisIndex,fb_yn.ran,gather_loop.thisRepN,gather_loop.thisTrialN,gather_loop.thisN,gather_loop.thisIndex,gather_loop.ran,Text,Wordbank,key_resp_instr4.keys,key_resp_instr4.rt,master_loop.thisRepN,master_loop.thisTrialN,master_loop.thisN,master_loop.thisIndex,master_loop.ran,exposure_file,instr_1,exp_reps,fct_file,instr_2,gather_file,gather_reps,instr_3,fReps,instr_4,trials_3.thisRepN,trials_3.thisTrialN,trials_3.thisN,trials_3.thisIndex,trials_3.ran,NegVSentence,VNegSentence,NegTF
space,3.9709,space,5.8497,0,0,0,0,1,R_UELmwDVCu5ZVU77,2022-09-01_19h46.39.429,jpn_C02,2022.1.2,Win32,20.00920423,,,,,,,,,,,,,,,,,,,,,,,,,,,,,,,,,,,,,,,,,,,,,,,,,,,,,,,,,,,,,,,,,,,,,,,,,,,,,,,,,,,
,,,,,,,,,R_UELmwDVCu5ZVU77,2022-09-01_19h46.39.429,jpn_C02,2022.1.2,Win32,20.00920423,space,17.1487,space,7.5936,0,0,0,1,1,ルピン,burglar,,CartoonStims/burglar_r.jpg,audio/lupin.mp3,,,,,,,,,,,,,,,,,,,,,,,,,,,,,,,,,,,,,,,,,,,,,,,,,,,,,,,,,,,,,,,,,,,,,
,,,,,,,,,R_UELmwDVCu5ZVU77,2022-09-01_19h46.39.429,jpn_C02,2022.1.2,Win32,20.00920423,,,space,4.9487,0,1,1,0,1,シド,artist,,CartoonStims/artist_r.jpg,audio/sido.mp3,,,,,,,,,,,,,,,,,,,,,,,,,,,,,,,,,,,,,,,,,,,,,,,,,,,,,,,,,,,,,,,,,,,,,
,,,,,,,,,R_UELmwDVCu5ZVU77,2022-09-01_19h46.39.429,jpn_C02,2022.1.2,Win32,20.00920423,,,space,5.2617,0,2,2,2,1,ホレト,chef,,CartoonStims/chef_r.jpg,audio/horeto.mp3,,,,,,,,,,,,,,,,,,,,,,,,,,,,,,,,,,,,,,,,,,,,,,,,,,,,,,,,,,,,,,,,,,,,,
,,,,,,,,,R_UELmwDVCu5ZVU77,2022-09-01_19h46.39.429,jpn_C02,2022.1.2,Win32,20.00920423,,,space,6.1477,0,3,3,4,1,ピポ,doctor,,CartoonStims/doctor_r.jpg,audio/pipo.mp3,,,,,,,,,,,,,,,,,,,,,,,,,,,,,,,,,,,,,,,,,,,,,,,,,,,,,,,,,,,,,,,,,,,,,
,,,,,,,,,R_UELmwDVCu5ZVU77,2022-09-01_19h46.39.429,jpn_C02,2022.1.2,Win32,20.00920423,,,space,6.9291,0,4,4,3,1,ムク,cowboy,,CartoonStims/cowboy_r.jpg,audio/muku.mp3,,,,,,,,,,,,,,,,,,,,,,,,,,,,,,,,,,,,,,,,,,,,,,,,,,,,,,,,,,,,,,,,,,,,,
,,,,,,,,,R_UELmwDVCu5ZVU77,2022-09-01_19h46.39.429,jpn_C02,2022.1.2,Win32,20.00920423,,,space,7.7585,0,5,5,5,1,ドキ,boxer,,CartoonStims/boxer_r.jpg,audio/doki.mp3,,,,,,,,,,,,,,,,,,,,,,,,,,,,,,,,,,,,,,,,,,,,,,,,,,,,,,,,,,,,,,,,,,,,,
,,,,,,,,,R_UELmwDVCu5ZVU77,2022-09-01_19h46.39.429,jpn_C02,2022.1.2,Win32,20.00920423,,,space,3.983,1,0,6,4,1,ピポ,doctor,,CartoonStims/doctor_r.jpg,audio/pipo.mp3,,,,,,,,,,,,,,,,,,,,,,,,,,,,,,,,,,,,,,,,,,,,,,,,,,,,,,,,,,,,,,,,,,,,,
,,,,,,,,,R_UELmwDVCu5ZVU77,2022-09-01_19h46.39.429,jpn_C02,2022.1.2,Win32,20.00920423,,,space,2.7215,1,1,7,2,1,ホレト,chef,,CartoonStims/chef_r.jpg,audio/horeto.mp3,,,,,,,,,,,,,,,,,,,,,,,,,,,,,,,,,,,,,,,,,,,,,,,,,,,,,,,,,,,,,,,,,,,,,
,,,,,,,,,R_UELmwDVCu5ZVU77,2022-09-01_19h46.39.429,jpn_C02,2022.1.2,Win32,20.00920423,,,space,1.9569,1,2,8,1,1,ルピン,burglar,,CartoonStims/burglar_r.jpg,audio/lupin.mp3,,,,,,,,,,,,,,,,,,,,,,,,,,,,,,,,,,,,,,,,,,,,,,,,,,,,,,,,,,,,,,,,,,,,,
,,,,,,,,,R_UELmwDVCu5ZVU77,2022-09-01_19h46.39.429,jpn_C02,2022.1.2,Win32,20.00920423,,,space,1.2059,1,3,9,5,1,ドキ,boxer,,CartoonStims/boxer_r.jpg,audio/doki.mp3,,,,,,,,,,,,,,,,,,,,,,,,,,,,,,,,,,,,,,,,,,,,,,,,,,,,,,,,,,,,,,,,,,,,,
,,,,,,,,,R_UELmwDVCu5ZVU77,2022-09-01_19h46.39.429,jpn_C02,2022.1.2,Win32,20.00920423,,,space,2.0873,1,4,10,0,1,シド,artist,,CartoonStims/artist_r.jpg,audio/sido.mp3,,,,,,,,,,,,,,,,,,,,,,,,,,,,,,,,,,,,,,,,,,,,,,,,,,,,,,,,,,,,,,,,,,,,,
,,,,,,,,,R_UELmwDVCu5ZVU77,2022-09-01_19h46.39.429,jpn_C02,2022.1.2,Win32,20.00920423,,,space,3.0268,1,5,11,3,1,ムク,cowboy,,CartoonStims/cowboy_r.jpg,audio/muku.mp3,,,,,,,,,,,,,,,,,,,,,,,,,,,,,,,,,,,,,,,,,,,,,,,,,,,,,,,,,,,,,,,,,,,,,
,,,,,,,,,R_UELmwDVCu5ZVU77,2022-09-01_19h46.39.429,jpn_C02,2022.1.2,Win32,20.00920423,,,space,3.464,2,0,12,4,1,ピポ,doctor,,CartoonStims/doctor_r.jpg,audio/pipo.mp3,,,,,,,,,,,,,,,,,,,,,,,,,,,,,,,,,,,,,,,,,,,,,,,,,,,,,,,,,,,,,,,,,,,,,
,,,,,,,,,R_UELmwDVCu5ZVU77,2022-09-01_19h46.39.429,jpn_C02,2022.1.2,Win32,20.00920423,,,space,2.362,2,1,13,0,1,シド,artist,,CartoonStims/artist_r.jpg,audio/sido.mp3,,,,,,,,,,,,,,,,,,,,,,,,,,,,,,,,,,,,,,,,,,,,,,,,,,,,,,,,,,,,,,,,,,,,,
,,,,,,,,,R_UELmwDVCu5ZVU77,2022-09-01_19h46.39.429,jpn_C02,2022.1.2,Win32,20.00920423,,,space,0.7898,2,2,14,5,1,ドキ,boxer,,CartoonStims/boxer_r.jpg,audio/doki.mp3,,,,,,,,,,,,,,,,,,,,,,,,,,,,,,,,,,,,,,,,,,,,,,,,,,,,,,,,,,,,,,,,,,,,,
,,,,,,,,,R_UELmwDVCu5ZVU77,2022-09-01_19h46.39.429,jpn_C02,2022.1.2,Win32,20.00920423,,,space,4.7241,2,3,15,2,1,ホレト,chef,,CartoonStims/chef_r.jpg,audio/horeto.mp3,,,,,,,,,,,,,,,,,,,,,,,,,,,,,,,,,,,,,,,,,,,,,,,,,,,,,,,,,,,,,,,,,,,,,
,,,,,,,,,R_UELmwDVCu5ZVU77,2022-09-01_19h46.39.429,jpn_C02,2022.1.2,Win32,20.00920423,,,space,1.6687,2,4,16,3,1,ムク,cowboy,,CartoonStims/cowboy_r.jpg,audio/muku.mp3,,,,,,,,,,,,,,,,,,,,,,,,,,,,,,,,,,,,,,,,,,,,,,,,,,,,,,,,,,,,,,,,,,,,,
,,,,,,,,,R_UELmwDVCu5ZVU77,2022-09-01_19h46.39.429,jpn_C02,2022.1.2,Win32,20.00920423,,,space,0.4174,2,5,17,1,1,ルピン,burglar,,CartoonStims/burglar_r.jpg,audio/lupin.mp3,,,,,,,,,,,,,,,,,,,,,,,,,,,,,,,,,,,,,,,,,,,,,,,,,,,,,,,,,,,,,,,,,,,,,
,,,,,,,,,R_UELmwDVCu5ZVU77,2022-09-01_19h46.39.429,jpn_C02,2022.1.2,Win32,20.00920423,,,,,,,,,,,,,,,space,1.4788,right,1,1.4281,0,0,0,0,1,,,,,,,,,,,,,,,,,,,,,,,,,,,,,,,,,,,,,,,,,,,,,,,,,,,,,,,,,,,
,,,,,,,,,R_UELmwDVCu5ZVU77,2022-09-01_19h46.39.429,jpn_C02,2022.1.2,Win32,20.00920423,,,,,,,,,,,,,,,,,,,,,,,,,0,0,0,7,1,CartoonStims/cowboy_r.jpg,ルピン,CartoonStims/burglar_r.jpg,right,CartoonStims/burglar_r.jpg,audio/lupin.mp3,残念！ こちらが正しい画像です。,,,,,,,,,,,,,,,,,,,,,,,,,,,,,,,,,,,,,,,,,,,,,,,
,,,,,,,,,R_UELmwDVCu5ZVU77,2022-09-01_19h46.39.429,jpn_C02,2022.1.2,Win32,20.00920423,,,,,,,,,,,,,,,,,right,1,1.3937,0,0,0,0,1,,,,,,,,,,,,,,,,,,,,,,,,,,,,,,,,,,,,,,,,,,,,,,,,,,,,,,,,,,,
,,,,,,,,,R_UELmwDVCu5ZVU77,2022-09-01_19h46.39.429,jpn_C02,2022.1.2,Win32,20.00920423,,,,,,,,,,,,,,,,,,,,,,,,,0,1,1,9,1,CartoonStims/boxer_r.jpg,ムク,CartoonStims/cowboy_r.jpg,right,CartoonStims/cowboy_r.jpg,audio/muku.mp3,残念！ こちらが正しい画像です。,,,,,,,,,,,,,,,,,,,,,,,,,,,,,,,,,,,,,,,,,,,,,,,
,,,,,,,,,R_UELmwDVCu5ZVU77,2022-09-01_19h46.39.429,jpn_C02,2022.1.2,Win32,20.00920423,,,,,,,,,,,,,,,,,left,1,1.2264,,,,,,,,,,,,,,,,,,0,0,0,0,1,,,,,,,,,,,,,,,,,,,,,,,,,,,,,,,,,,,,,,,,,,
,,,,,,,,,R_UELmwDVCu5ZVU77,2022-09-01_19h46.39.429,jpn_C02,2022.1.2,Win32,20.00920423,,,,,,,,,,,,,,,,,,,,,,,,,0,2,2,4,1,CartoonStims/doctor_r.jpg,ピポ,CartoonStims/boxer_r.jpg,left,CartoonStims/doctor_r.jpg,audio/pipo.mp3,残念！ こちらが正しい画像です。,,,,,,,,,,,,,,,,,,,,,,,,,,,,,,,,,,,,,,,,,,,,,,,
,,,,,,,,,R_UELmwDVCu5ZVU77,2022-09-01_19h46.39.429,jpn_C02,2022.1.2,Win32,20.00920423,,,,,,,,,,,,,,,,,right,1,0.7308,0,0,0,0,1,,,,,,,,,,,,,,,,,,,,,,,,,,,,,,,,,,,,,,,,,,,,,,,,,,,,,,,,,,,
,,,,,,,,,R_UELmwDVCu5ZVU77,2022-09-01_19h46.39.429,jpn_C02,2022.1.2,Win32,20.00920423,,,,,,,,,,,,,,,,,,,,,,,,,0,3,3,8,1,CartoonStims/doctor_r.jpg,ホレト,CartoonStims/chef_r.jpg,right,CartoonStims/chef_r.jpg,audio/horeto.mp3,残念！ こちらが正しい画像です。,,,,,,,,,,,,,,,,,,,,,,,,,,,,,,,,,,,,,,,,,,,,,,,
,,,,,,,,,R_UELmwDVCu5ZVU77,2022-09-01_19h46.39.429,jpn_C02,2022.1.2,Win32,20.00920423,,,,,,,,,,,,,,,,,left,1,1.9196,,,,,,,,,,,,,,,,,,0,0,0,0,1,,,,,,,,,,,,,,,,,,,,,,,,,,,,,,,,,,,,,,,,,,
,,,,,,,,,R_UELmwDVCu5ZVU77,2022-09-01_19h46.39.429,jpn_C02,2022.1.2,Win32,20.00920423,,,,,,,,,,,,,,,,,,,,,,,,,0,4,4,2,1,CartoonStims/chef_r.jpg,ホレト,CartoonStims/cowboy_r.jpg,left,CartoonStims/chef_r.jpg,audio/horeto.mp3,残念！ こちらが正しい画像です。,,,,,,,,,,,,,,,,,,,,,,,,,,,,,,,,,,,,,,,,,,,,,,,
,,,,,,,,,R_UELmwDVCu5ZVU77,2022-09-01_19h46.39.429,jpn_C02,2022.1.2,Win32,20.00920423,,,,,,,,,,,,,,,,,left,1,1.2216,,,,,,,,,,,,,,,,,,0,0,0,0,1,,,,,,,,,,,,,,,,,,,,,,,,,,,,,,,,,,,,,,,,,,
,,,,,,,,,R_UELmwDVCu5ZVU77,2022-09-01_19h46.39.429,jpn_C02,2022.1.2,Win32,20.00920423,,,,,,,,,,,,,,,,,,,,,,,,,0,5,5,0,1,CartoonStims/artist_r.jpg,シド,CartoonStims/burglar_r.jpg,left,CartoonStims/artist_r.jpg,audio/sido.mp3,残念！ こちらが正しい画像です。,,,,,,,,,,,,,,,,,,,,,,,,,,,,,,,,,,,,,,,,,,,,,,,
,,,,,,,,,R_UELmwDVCu5ZVU77,2022-09-01_19h46.39.429,jpn_C02,2022.1.2,Win32,20.00920423,,,,,,,,,,,,,,,,,right,1,0.6225,0,0,0,0,1,,,,,,,,,,,,,,,,,,,,,,,,,,,,,,,,,,,,,,,,,,,,,,,,,,,,,,,,,,,
,,,,,,,,,R_UELmwDVCu5ZVU77,2022-09-01_19h46.39.429,jpn_C02,2022.1.2,Win32,20.00920423,,,,,,,,,,,,,,,,,,,,,,,,,0,6,6,11,1,CartoonStims/burglar_r.jpg,ドキ,CartoonStims/boxer_r.jpg,right,CartoonStims/boxer_r.jpg,audio/doki.mp3,残念！ こちらが正しい画像です。,,,,,,,,,,,,,,,,,,,,,,,,,,,,,,,,,,,,,,,,,,,,,,,
,,,,,,,,,R_UELmwDVCu5ZVU77,2022-09-01_19h46.39.429,jpn_C02,2022.1.2,Win32,20.00920423,,,,,,,,,,,,,,,,,left,1,1.2194,,,,,,,,,,,,,,,,,,0,0,0,0,1,,,,,,,,,,,,,,,,,,,,,,,,,,,,,,,,,,,,,,,,,,
,,,,,,,,,R_UELmwDVCu5ZVU77,2022-09-01_19h46.39.429,jpn_C02,2022.1.2,Win32,20.00920423,,,,,,,,,,,,,,,,,,,,,,,,,0,7,7,3,1,CartoonStims/cowboy_r.jpg,ムク,CartoonStims/doctor_r.jpg,left,CartoonStims/cowboy_r.jpg,audio/muku.mp3,残念！ こちらが正しい画像です。,,,,,,,,,,,,,,,,,,,,,,,,,,,,,,,,,,,,,,,,,,,,,,,
,,,,,,,,,R_UELmwDVCu5ZVU77,2022-09-01_19h46.39.429,jpn_C02,2022.1.2,Win32,20.00920423,,,,,,,,,,,,,,,,,left,1,1.8374,,,,,,,,,,,,,,,,,,0,0,0,0,1,,,,,,,,,,,,,,,,,,,,,,,,,,,,,,,,,,,,,,,,,,
,,,,,,,,,R_UELmwDVCu5ZVU77,2022-09-01_19h46.39.429,jpn_C02,2022.1.2,Win32,20.00920423,,,,,,,,,,,,,,,,,,,,,,,,,0,8,8,5,1,CartoonStims/boxer_r.jpg,ドキ,CartoonStims/artist_r.jpg,left,CartoonStims/boxer_r.jpg,audio/doki.mp3,残念！ こちらが正しい画像です。,,,,,,,,,,,,,,,,,,,,,,,,,,,,,,,,,,,,,,,,,,,,,,,
,,,,,,,,,R_UELmwDVCu5ZVU77,2022-09-01_19h46.39.429,jpn_C02,2022.1.2,Win32,20.00920423,,,,,,,,,,,,,,,,,left,1,0.6659,,,,,,,,,,,,,,,,,,0,0,0,0,1,,,,,,,,,,,,,,,,,,,,,,,,,,,,,,,,,,,,,,,,,,
,,,,,,,,,R_UELmwDVCu5ZVU77,2022-09-01_19h46.39.429,jpn_C02,2022.1.2,Win32,20.00920423,,,,,,,,,,,,,,,,,,,,,,,,,0,9,9,1,1,CartoonStims/burglar_r.jpg,ルピン,CartoonStims/chef_r.jpg,left,CartoonStims/burglar_r.jpg,audio/lupin.mp3,残念！ こちらが正しい画像です。,,,,,,,,,,,,,,,,,,,,,,,,,,,,,,,,,,,,,,,,,,,,,,,
,,,,,,,,,R_UELmwDVCu5ZVU77,2022-09-01_19h46.39.429,jpn_C02,2022.1.2,Win32,20.00920423,,,,,,,,,,,,,,,,,right,1,1.3919,0,0,0,0,1,,,,,,,,,,,,,,,,,,,,,,,,,,,,,,,,,,,,,,,,,,,,,,,,,,,,,,,,,,,
,,,,,,,,,R_UELmwDVCu5ZVU77,2022-09-01_19h46.39.429,jpn_C02,2022.1.2,Win32,20.00920423,,,,,,,,,,,,,,,,,,,,,,,,,0,10,10,6,1,CartoonStims/chef_r.jpg,シド,CartoonStims/artist_r.jpg,right,CartoonStims/artist_r.jpg,audio/sido.mp3,残念！ こちらが正しい画像です。,,,,,,,,,,,,,,,,,,,,,,,,,,,,,,,,,,,,,,,,,,,,,,,
,,,,,,,,,R_UELmwDVCu5ZVU77,2022-09-01_19h46.39.429,jpn_C02,2022.1.2,Win32,20.00920423,,,,,,,,,,,,,,,,,right,1,5.2221,0,0,0,0,1,,,,,,,,,,,,,,,,,,,,,,,,,,,,,,,,,,,,,,,,,,,,,,,,,,,,,,,,,,,
,,,,,,,,,R_UELmwDVCu5ZVU77,2022-09-01_19h46.39.429,jpn_C02,2022.1.2,Win32,20.00920423,,,,,,,,,,,,,,,,,,,,,,,,,0,11,11,10,1,CartoonStims/artist_r.jpg,ピポ,CartoonStims/doctor_r.jpg,right,CartoonStims/doctor_r.jpg,audio/pipo.mp3,残念！ こちらが正しい画像です。,,,,,,,,,,,,,,,,,,,,,,,,,,,,,,,,,,,,,,,,,,,,,,,
,,,,,,,,,R_UELmwDVCu5ZVU77,2022-09-01_19h46.39.429,jpn_C02,2022.1.2,Win32,20.00920423,,,,,,,,,,,,,,,,,,,,,,,,,,,,,,,,,,,,,,,,,,space,3.6708,ルピン,right,10.6122,0,0,0,0,1,,,,,,,,,,,,,,,,,,,,,,,,,,,,,,,,
,,,,,,,,,R_UELmwDVCu5ZVU77,2022-09-01_19h46.39.429,jpn_C02,2022.1.2,Win32,20.00920423,,,,,,,,,,,,,CartoonStims/burglar_r.jpg,audio/lupin.mp3,,,,,,,,,,,,,,,,,,,,,,,,,,,,,,,,,,,,,,0,0,0,1,1,ルピン,,,,,,,,,,,,,,,,,,,,,,,,,,
,,,,,,,,,R_UELmwDVCu5ZVU77,2022-09-01_19h46.39.429,jpn_C02,2022.1.2,Win32,20.00920423,,,,,,,,,,,,,,,,,,,,,,,,,,,,,,,,,,,,,,,,,,,,ドキ,right,5.6031,0,0,0,0,1,,,,,,,,,,,,,,,,,,,,,,,,,,,,,,,,
,,,,,,,,,R_UELmwDVCu5ZVU77,2022-09-01_19h46.39.429,jpn_C02,2022.1.2,Win32,20.00920423,,,,,,,,,,,,,CartoonStims/boxer_r.jpg,audio/doki.mp3,,,,,,,,,,,,,,,,,,,,,,,,,,,,,,,,,,,,,,0,1,1,5,1,ドキ,,,,,,,,,,,,,,,,,,,,,,,,,,
,,,,,,,,,R_UELmwDVCu5ZVU77,2022-09-01_19h46.39.429,jpn_C02,2022.1.2,Win32,20.00920423,,,,,,,,,,,,,,,,,,,,,,,,,,,,,,,,,,,,,,,,,,,,ピポ,right,4.715,0,0,0,0,1,,,,,,,,,,,,,,,,,,,,,,,,,,,,,,,,
,,,,,,,,,R_UELmwDVCu5ZVU77,2022-09-01_19h46.39.429,jpn_C02,2022.1.2,Win32,20.00920423,,,,,,,,,,,,,CartoonStims/doctor_r.jpg,audio/pipo.mp3,,,,,,,,,,,,,,,,,,,,,,,,,,,,,,,,,,,,,,0,2,2,4,1,ピポ,,,,,,,,,,,,,,,,,,,,,,,,,,
,,,,,,,,,R_UELmwDVCu5ZVU77,2022-09-01_19h46.39.429,jpn_C02,2022.1.2,Win32,20.00920423,,,,,,,,,,,,,,,,,,,,,,,,,,,,,,,,,,,,,,,,,,,,ムク,right,10.3815,0,0,0,0,1,,,,,,,,,,,,,,,,,,,,,,,,,,,,,,,,
,,,,,,,,,R_UELmwDVCu5ZVU77,2022-09-01_19h46.39.429,jpn_C02,2022.1.2,Win32,20.00920423,,,,,,,,,,,,,CartoonStims/cowboy_r.jpg,audio/muku.mp3,,,,,,,,,,,,,,,,,,,,,,,,,,,,,,,,,,,,,,0,3,3,3,1,ムク,,,,,,,,,,,,,,,,,,,,,,,,,,
,,,,,,,,,R_UELmwDVCu5ZVU77,2022-09-01_19h46.39.429,jpn_C02,2022.1.2,Win32,20.00920423,,,,,,,,,,,,,,,,,,,,,,,,,,,,,,,,,,,,,,,,,,,,ホレト,right,5.2682,0,0,0,0,1,,,,,,,,,,,,,,,,,,,,,,,,,,,,,,,,
,,,,,,,,,R_UELmwDVCu5ZVU77,2022-09-01_19h46.39.429,jpn_C02,2022.1.2,Win32,20.00920423,,,,,,,,,,,,,CartoonStims/chef_r.jpg,audio/horeto.mp3,,,,,,,,,,,,,,,,,,,,,,,,,,,,,,,,,,,,,,0,4,4,2,1,ホレト,,,,,,,,,,,,,,,,,,,,,,,,,,
,,,,,,,,,R_UELmwDVCu5ZVU77,2022-09-01_19h46.39.429,jpn_C02,2022.1.2,Win32,20.00920423,,,,,,,,,,,,,,,,,,,,,,,,,,,,,,,,,,,,,,,,,,,,シド,right,5.5276,0,0,0,0,1,,,,,,,,,,,,,,,,,,,,,,,,,,,,,,,,
,,,,,,,,,R_UELmwDVCu5ZVU77,2022-09-01_19h46.39.429,jpn_C02,2022.1.2,Win32,20.00920423,,,,,,,,,,,,,CartoonStims/artist_r.jpg,audio/sido.mp3,,,,,,,,,,,,,,,,,,,,,,,,,,,,,,,,,,,,,,0,5,5,0,1,シド,,,,,,,,,,,,,,,,,,,,,,,,,,
,,,,,,,,,R_UELmwDVCu5ZVU77,2022-09-01_19h46.39.429,jpn_C02,2022.1.2,Win32,20.00920423,,,,,,,,,,,,,,,,,,,,,,,,,,,,,,,,,,,,,,,,,,,,ピポ,right,5.0099,0,0,0,0,1,,,,,,,,,,,,,,,,,,,,,,,,,,,,,,,,
,,,,,,,,,R_UELmwDVCu5ZVU77,2022-09-01_19h46.39.429,jpn_C02,2022.1.2,Win32,20.00920423,,,,,,,,,,,,,CartoonStims/doctor_r.jpg,audio/pipo.mp3,,,,,,,,,,,,,,,,,,,,,,,,,,,,,,,,,,,,,,1,0,6,4,1,ピポ,,,,,,,,,,,,,,,,,,,,,,,,,,
,,,,,,,,,R_UELmwDVCu5ZVU77,2022-09-01_19h46.39.429,jpn_C02,2022.1.2,Win32,20.00920423,,,,,,,,,,,,,,,,,,,,,,,,,,,,,,,,,,,,,,,,,,,,ルピン,right,3.0793,0,0,0,0,1,,,,,,,,,,,,,,,,,,,,,,,,,,,,,,,,
,,,,,,,,,R_UELmwDVCu5ZVU77,2022-09-01_19h46.39.429,jpn_C02,2022.1.2,Win32,20.00920423,,,,,,,,,,,,,CartoonStims/burglar_r.jpg,audio/lupin.mp3,,,,,,,,,,,,,,,,,,,,,,,,,,,,,,,,,,,,,,1,1,7,1,1,ルピン,,,,,,,,,,,,,,,,,,,,,,,,,,
,,,,,,,,,R_UELmwDVCu5ZVU77,2022-09-01_19h46.39.429,jpn_C02,2022.1.2,Win32,20.00920423,,,,,,,,,,,,,,,,,,,,,,,,,,,,,,,,,,,,,,,,,,,,ドキ,right,3.589,0,0,0,0,1,,,,,,,,,,,,,,,,,,,,,,,,,,,,,,,,
,,,,,,,,,R_UELmwDVCu5ZVU77,2022-09-01_19h46.39.429,jpn_C02,2022.1.2,Win32,20.00920423,,,,,,,,,,,,,CartoonStims/boxer_r.jpg,audio/doki.mp3,,,,,,,,,,,,,,,,,,,,,,,,,,,,,,,,,,,,,,1,2,8,5,1,ドキ,,,,,,,,,,,,,,,,,,,,,,,,,,
,,,,,,,,,R_UELmwDVCu5ZVU77,2022-09-01_19h46.39.429,jpn_C02,2022.1.2,Win32,20.00920423,,,,,,,,,,,,,,,,,,,,,,,,,,,,,,,,,,,,,,,,,,,,ホレト,right,4.7375,0,0,0,0,1,,,,,,,,,,,,,,,,,,,,,,,,,,,,,,,,
,,,,,,,,,R_UELmwDVCu5ZVU77,2022-09-01_19h46.39.429,jpn_C02,2022.1.2,Win32,20.00920423,,,,,,,,,,,,,CartoonStims/chef_r.jpg,audio/horeto.mp3,,,,,,,,,,,,,,,,,,,,,,,,,,,,,,,,,,,,,,1,3,9,2,1,ホレト,,,,,,,,,,,,,,,,,,,,,,,,,,
,,,,,,,,,R_UELmwDVCu5ZVU77,2022-09-01_19h46.39.429,jpn_C02,2022.1.2,Win32,20.00920423,,,,,,,,,,,,,,,,,,,,,,,,,,,,,,,,,,,,,,,,,,,,シド,right,6.4328,0,0,0,0,1,,,,,,,,,,,,,,,,,,,,,,,,,,,,,,,,
,,,,,,,,,R_UELmwDVCu5ZVU77,2022-09-01_19h46.39.429,jpn_C02,2022.1.2,Win32,20.00920423,,,,,,,,,,,,,CartoonStims/artist_r.jpg,audio/sido.mp3,,,,,,,,,,,,,,,,,,,,,,,,,,,,,,,,,,,,,,1,4,10,0,1,シド,,,,,,,,,,,,,,,,,,,,,,,,,,
,,,,,,,,,R_UELmwDVCu5ZVU77,2022-09-01_19h46.39.429,jpn_C02,2022.1.2,Win32,20.00920423,,,,,,,,,,,,,,,,,,,,,,,,,,,,,,,,,,,,,,,,,,,,ムク,right,2.2372,0,0,0,0,1,,,,,,,,,,,,,,,,,,,,,,,,,,,,,,,,
,,,,,,,,,R_UELmwDVCu5ZVU77,2022-09-01_19h46.39.429,jpn_C02,2022.1.2,Win32,20.00920423,,,,,,,,,,,,,CartoonStims/cowboy_r.jpg,audio/muku.mp3,,,,,,,,,,,,,,,,,,,,,,,,,,,,,,,,,,,,,,1,5,11,3,1,ムク,,,,,,,,,,,,,,,,,,,,,,,,,,
,,,,,,,,,R_UELmwDVCu5ZVU77,2022-09-01_19h46.39.429,jpn_C02,2022.1.2,Win32,20.00920423,,,,,,,,,,,,,,,,,,,,,,,,,,,,,,,,,,,,,,,,,,,,,,,,,,,,,,,,,,,space,2.7335,0,0,0,0,1,NounExposure.xlsx,"最初のトライアルでは、 画像が表示され、 その画像の下に単語が出てきます。 またこの単語の音も聞くことができます。 この音を大きな声で復唱してください。 そしてこの画像がどのような単語を示しているのか, 考えてみてください。 その後、 続きのボタンを押すと次の単語の学習が始まります。

スペースキーを押して、学習を始めましょう。",3,NounFCT.xlsx,ここから語彙のクイズが始まります。スクリーンに表示される単語に合う画像をキーボードの右と左の矢印キーを使って選択してください。,NounTest.xlsx,2,次に、これまで学習してきたことをアウトプットしていただきます。 表示される画像を描写していると思う単語を、テキストボックスにタイプしてください。,1,"ここまでが最初のトライアルです。ここで休憩をとっても構いません。

休憩が済みましたら、スペースキーを押して続きを始めましょう。",,,,,,,,
,,,,,,,,,R_UELmwDVCu5ZVU77,2022-09-01_19h46.39.429,jpn_C02,2022.1.2,Win32,20.00920423,space,4.0346,space,20.3803,0,0,0,1,1,セル 　シド 　ホレト,,,CartoonStims/artist_kick_chef_r.jpg,audio/serusidohoreto.mp3,,,,,,,,,,,,,,,,,,,,,,,,,,,,,,,,,,,,,,,,,,,,,,,,,,,,,,,,,,,,,,,,,,,,,
,,,,,,,,,R_UELmwDVCu5ZVU77,2022-09-01_19h46.39.429,jpn_C02,2022.1.2,Win32,20.00920423,,,space,10.886,0,1,1,16,1,トマ　ホレト　ピポ,,,CartoonStims/chef_point_doctor_r.jpg,audio/tomahoretopipo.mp3,,,,,,,,,,,,,,,,,,,,,,,,,,,,,,,,,,,,,,,,,,,,,,,,,,,,,,,,,,,,,,,,,,,,,
,,,,,,,,,R_UELmwDVCu5ZVU77,2022-09-01_19h46.39.429,jpn_C02,2022.1.2,Win32,20.00920423,,,space,5.7419,0,2,2,14,1,トマ　ルピン　ムク,,,CartoonStims/burglar_point_cowboy_r.jpg,audio/tomalupinmuku.mp3,,,,,,,,,,,,,,,,,,,,,,,,,,,,,,,,,,,,,,,,,,,,,,,,,,,,,,,,,,,,,,,,,,,,,
,,,,,,,,,R_UELmwDVCu5ZVU77,2022-09-01_19h46.39.429,jpn_C02,2022.1.2,Win32,20.00920423,,,space,6.1279,0,3,3,39,1,プミ　ルピン　シド,,,CartoonStims/burglar_punch_artist_r.jpg,audio/pumilupinsido.mp3,,,,,,,,,,,,,,,,,,,,,,,,,,,,,,,,,,,,,,,,,,,,,,,,,,,,,,,,,,,,,,,,,,,,,
,,,,,,,,,R_UELmwDVCu5ZVU77,2022-09-01_19h46.39.429,jpn_C02,2022.1.2,Win32,20.00920423,,,space,3.0721,0,4,4,24,1,パツ　シド　ムク,,,CartoonStims/artist_shoot_cowboy_r.jpg,audio/patsusidomuku.mp3,,,,,,,,,,,,,,,,,,,,,,,,,,,,,,,,,,,,,,,,,,,,,,,,,,,,,,,,,,,,,,,,,,,,,
,,,,,,,,,R_UELmwDVCu5ZVU77,2022-09-01_19h46.39.429,jpn_C02,2022.1.2,Win32,20.00920423,,,space,2.9054,0,5,5,44,1,プミ　ピポ　ホレト,,,CartoonStims/doctor_punch_chef_r.jpg,audio/pumipipohoreto.mp3,,,,,,,,,,,,,,,,,,,,,,,,,,,,,,,,,,,,,,,,,,,,,,,,,,,,,,,,,,,,,,,,,,,,,
,,,,,,,,,R_UELmwDVCu5ZVU77,2022-09-01_19h46.39.429,jpn_C02,2022.1.2,Win32,20.00920423,,,space,9.2266,0,6,6,15,1,トマ　ルピン　ピポ,,,CartoonStims/burglar_point_doctor_r.jpg,audio/tomalupinpipo.mp3,,,,,,,,,,,,,,,,,,,,,,,,,,,,,,,,,,,,,,,,,,,,,,,,,,,,,,,,,,,,,,,,,,,,,
,,,,,,,,,R_UELmwDVCu5ZVU77,2022-09-01_19h46.39.429,jpn_C02,2022.1.2,Win32,20.00920423,,,space,4.0107,0,7,7,47,1,プミ　ドキ　ピポ,,,CartoonStims/boxer_punch_doctor_r.jpg,audio/pumidokipipo.mp3,,,,,,,,,,,,,,,,,,,,,,,,,,,,,,,,,,,,,,,,,,,,,,,,,,,,,,,,,,,,,,,,,,,,,
,,,,,,,,,R_UELmwDVCu5ZVU77,2022-09-01_19h46.39.429,jpn_C02,2022.1.2,Win32,20.00920423,,,space,1.6907,0,8,8,42,1,プミ　ムク　ルピン,,,CartoonStims/cowboy_punch_burglar_r.jpg,audio/pumimukulupin.mp3,,,,,,,,,,,,,,,,,,,,,,,,,,,,,,,,,,,,,,,,,,,,,,,,,,,,,,,,,,,,,,,,,,,,,
,,,,,,,,,R_UELmwDVCu5ZVU77,2022-09-01_19h46.39.429,jpn_C02,2022.1.2,Win32,20.00920423,,,space,3.6923,0,9,9,37,1,プミ　シド　ドキ,,,CartoonStims/artist_punch_boxer_r.jpg,audio/pumisidodoki.mp3,,,,,,,,,,,,,,,,,,,,,,,,,,,,,,,,,,,,,,,,,,,,,,,,,,,,,,,,,,,,,,,,,,,,,
,,,,,,,,,R_UELmwDVCu5ZVU77,2022-09-01_19h46.39.429,jpn_C02,2022.1.2,Win32,20.00920423,,,space,4.6913,0,10,10,31,1,パツ　ムク　ルピン,,,CartoonStims/cowboy_shoot_burglar_r.jpg,audio/patsumukulupin.mp3,,,,,,,,,,,,,,,,,,,,,,,,,,,,,,,,,,,,,,,,,,,,,,,,,,,,,,,,,,,,,,,,,,,,,
,,,,,,,,,R_UELmwDVCu5ZVU77,2022-09-01_19h46.39.429,jpn_C02,2022.1.2,Win32,20.00920423,,,space,1.87,0,11,11,9,1,セル　ピポ　シド,,,CartoonStims/doctor_kick_artist_r.jpg,audio/serupiposido.mp3,,,,,,,,,,,,,,,,,,,,,,,,,,,,,,,,,,,,,,,,,,,,,,,,,,,,,,,,,,,,,,,,,,,,,
,,,,,,,,,R_UELmwDVCu5ZVU77,2022-09-01_19h46.39.429,jpn_C02,2022.1.2,Win32,20.00920423,,,space,1.5252,0,12,12,17,1,トマ　ホレト　ドキ,,,CartoonStims/chef_point_boxer_r.jpg,audio/tomahoretodoki.mp3,,,,,,,,,,,,,,,,,,,,,,,,,,,,,,,,,,,,,,,,,,,,,,,,,,,,,,,,,,,,,,,,,,,,,
,,,,,,,,,R_UELmwDVCu5ZVU77,2022-09-01_19h46.39.429,jpn_C02,2022.1.2,Win32,20.00920423,,,space,2.2099,0,13,13,11,1,セル　ドキ　ルピン,,,CartoonStims/boxer_kick_burglar_r.jpg,audio/serudokilupin.mp3,,,,,,,,,,,,,,,,,,,,,,,,,,,,,,,,,,,,,,,,,,,,,,,,,,,,,,,,,,,,,,,,,,,,,
,,,,,,,,,R_UELmwDVCu5ZVU77,2022-09-01_19h46.39.429,jpn_C02,2022.1.2,Win32,20.00920423,,,space,1.3866,0,14,14,5,1,セル　ホレト　ピポ,,,CartoonStims/chef_kick_doctor_r.jpg,audio/seruhoretopipo.mp3,,,,,,,,,,,,,,,,,,,,,,,,,,,,,,,,,,,,,,,,,,,,,,,,,,,,,,,,,,,,,,,,,,,,,
,,,,,,,,,R_UELmwDVCu5ZVU77,2022-09-01_19h46.39.429,jpn_C02,2022.1.2,Win32,20.00920423,,,space,1.0437,0,15,15,27,1,パツ　ルピン　ドキ,,,CartoonStims/burglar_shoot_boxer_r.jpg,audio/patsulupindoki.mp3,,,,,,,,,,,,,,,,,,,,,,,,,,,,,,,,,,,,,,,,,,,,,,,,,,,,,,,,,,,,,,,,,,,,,
,,,,,,,,,R_UELmwDVCu5ZVU77,2022-09-01_19h46.39.429,jpn_C02,2022.1.2,Win32,20.00920423,,,space,0.6864,0,16,16,12,1,トマ　シド　ホレト,,,CartoonStims/artist_point_chef_r.jpg,audio/tomasidohoreto.mp3,,,,,,,,,,,,,,,,,,,,,,,,,,,,,,,,,,,,,,,,,,,,,,,,,,,,,,,,,,,,,,,,,,,,,
,,,,,,,,,R_UELmwDVCu5ZVU77,2022-09-01_19h46.39.429,jpn_C02,2022.1.2,Win32,20.00920423,,,space,1.0034,0,17,17,25,1,パツ　シド　ピポ,,,CartoonStims/artist_shoot_doctor_r.jpg,audio/patsusidopipo.mp3,,,,,,,,,,,,,,,,,,,,,,,,,,,,,,,,,,,,,,,,,,,,,,,,,,,,,,,,,,,,,,,,,,,,,
,,,,,,,,,R_UELmwDVCu5ZVU77,2022-09-01_19h46.39.429,jpn_C02,2022.1.2,Win32,20.00920423,,,space,1.6955,0,18,18,41,1,プミ　ホレト　ルピン,,,CartoonStims/chef_punch_burglar_r.jpg,audio/pumihoretolupin.mp3,,,,,,,,,,,,,,,,,,,,,,,,,,,,,,,,,,,,,,,,,,,,,,,,,,,,,,,,,,,,,,,,,,,,,
,,,,,,,,,R_UELmwDVCu5ZVU77,2022-09-01_19h46.39.429,jpn_C02,2022.1.2,Win32,20.00920423,,,space,1.15,0,19,19,40,1,プミ　ホレト　シド,,,CartoonStims/chef_punch_artist_r.jpg,audio/pumihoretosido.mp3,,,,,,,,,,,,,,,,,,,,,,,,,,,,,,,,,,,,,,,,,,,,,,,,,,,,,,,,,,,,,,,,,,,,,
,,,,,,,,,R_UELmwDVCu5ZVU77,2022-09-01_19h46.39.429,jpn_C02,2022.1.2,Win32,20.00920423,,,space,0.407,0,20,20,33,1,パツ　ピポ　ホレト,,,CartoonStims/doctor_shoot_chef_r.jpg,audio/patsupipohoreto.mp3,,,,,,,,,,,,,,,,,,,,,,,,,,,,,,,,,,,,,,,,,,,,,,,,,,,,,,,,,,,,,,,,,,,,,
,,,,,,,,,R_UELmwDVCu5ZVU77,2022-09-01_19h46.39.429,jpn_C02,2022.1.2,Win32,20.00920423,,,space,0.3337,0,21,21,8,1,セル　ピポ　ドキ,,,CartoonStims/doctor_kick_boxer_r.jpg,audio/serupipodoki.mp3,,,,,,,,,,,,,,,,,,,,,,,,,,,,,,,,,,,,,,,,,,,,,,,,,,,,,,,,,,,,,,,,,,,,,
,,,,,,,,,R_UELmwDVCu5ZVU77,2022-09-01_19h46.39.429,jpn_C02,2022.1.2,Win32,20.00920423,,,space,0.3458,0,22,22,22,1,トマ　ドキ　ルピン,,,CartoonStims/boxer_point_burglar_r.jpg,audio/tomadokilupin.mp3,,,,,,,,,,,,,,,,,,,,,,,,,,,,,,,,,,,,,,,,,,,,,,,,,,,,,,,,,,,,,,,,,,,,,
,,,,,,,,,R_UELmwDVCu5ZVU77,2022-09-01_19h46.39.429,jpn_C02,2022.1.2,Win32,20.00920423,,,space,0.6008,0,23,23,2,1,セル 　ルピン 　ホレト,,,CartoonStims/burglar_kick_chef_r.jpg,audio/serulupinhoreto.mp3,,,,,,,,,,,,,,,,,,,,,,,,,,,,,,,,,,,,,,,,,,,,,,,,,,,,,,,,,,,,,,,,,,,,,
,,,,,,,,,R_UELmwDVCu5ZVU77,2022-09-01_19h46.39.429,jpn_C02,2022.1.2,Win32,20.00920423,,,space,0.4257,0,24,24,3,1,セル　ルピン　ムク,,,CartoonStims/burglar_kick_cowboy_r.jpg,audio/serulupinmuku.mp3,,,,,,,,,,,,,,,,,,,,,,,,,,,,,,,,,,,,,,,,,,,,,,,,,,,,,,,,,,,,,,,,,,,,,
,,,,,,,,,R_UELmwDVCu5ZVU77,2022-09-01_19h46.39.429,jpn_C02,2022.1.2,Win32,20.00920423,,,space,0.3693,0,25,25,6,1,セル　ムク　ピポ,,,CartoonStims/cowboy_kick_doctor_r.jpg,audio/serumukupipo.mp3,,,,,,,,,,,,,,,,,,,,,,,,,,,,,,,,,,,,,,,,,,,,,,,,,,,,,,,,,,,,,,,,,,,,,
,,,,,,,,,R_UELmwDVCu5ZVU77,2022-09-01_19h46.39.429,jpn_C02,2022.1.2,Win32,20.00920423,,,space,0.5118,0,26,26,35,1,パツ　ドキ　ムク,,,CartoonStims/boxer_shoot_cowboy_r.jpg,audio/patsudokimuku.mp3,,,,,,,,,,,,,,,,,,,,,,,,,,,,,,,,,,,,,,,,,,,,,,,,,,,,,,,,,,,,,,,,,,,,,
,,,,,,,,,R_UELmwDVCu5ZVU77,2022-09-01_19h46.39.429,jpn_C02,2022.1.2,Win32,20.00920423,,,space,0.3189,0,27,27,34,1,パツ　ドキ　ホレト,,,CartoonStims/boxer_shoot_chef_r.jpg,audio/patsudokihoreto.mp3,,,,,,,,,,,,,,,,,,,,,,,,,,,,,,,,,,,,,,,,,,,,,,,,,,,,,,,,,,,,,,,,,,,,,
,,,,,,,,,R_UELmwDVCu5ZVU77,2022-09-01_19h46.39.429,jpn_C02,2022.1.2,Win32,20.00920423,,,space,0.5691,0,28,28,7,1,セル　ムク　ドキ,,,CartoonStims/cowboy_kick_boxer_r.jpg,audio/serumukudoki.mp3,,,,,,,,,,,,,,,,,,,,,,,,,,,,,,,,,,,,,,,,,,,,,,,,,,,,,,,,,,,,,,,,,,,,,
,,,,,,,,,R_UELmwDVCu5ZVU77,2022-09-01_19h46.39.429,jpn_C02,2022.1.2,Win32,20.00920423,,,space,0.2543,0,29,29,4,1,セル　ホレト　ムク,,,CartoonStims/chef_kick_cowboy_r.jpg,audio/seruhoretomuku.mp3,,,,,,,,,,,,,,,,,,,,,,,,,,,,,,,,,,,,,,,,,,,,,,,,,,,,,,,,,,,,,,,,,,,,,
,,,,,,,,,R_UELmwDVCu5ZVU77,2022-09-01_19h46.39.429,jpn_C02,2022.1.2,Win32,20.00920423,,,space,0.3893,0,30,30,19,1,トマ　ムク　シド,,,CartoonStims/cowboy_point_artist_r.jpg,audio/tomamukusido.mp3,,,,,,,,,,,,,,,,,,,,,,,,,,,,,,,,,,,,,,,,,,,,,,,,,,,,,,,,,,,,,,,,,,,,,
,,,,,,,,,R_UELmwDVCu5ZVU77,2022-09-01_19h46.39.429,jpn_C02,2022.1.2,Win32,20.00920423,,,space,0.0343,0,31,31,18,1,トマ　ムク　ドキ,,,CartoonStims/cowboy_point_boxer_r.jpg,audio/tomamukudoki.mp3,,,,,,,,,,,,,,,,,,,,,,,,,,,,,,,,,,,,,,,,,,,,,,,,,,,,,,,,,,,,,,,,,,,,,
,,,,,,,,,R_UELmwDVCu5ZVU77,2022-09-01_19h46.39.429,jpn_C02,2022.1.2,Win32,20.00920423,,,space,0.2914,0,32,32,38,1,プミ　ルピン　ドキ,,,CartoonStims/burglar_punch_boxer_r.jpg,audio/pumilupindoki.mp3,,,,,,,,,,,,,,,,,,,,,,,,,,,,,,,,,,,,,,,,,,,,,,,,,,,,,,,,,,,,,,,,,,,,,
,,,,,,,,,R_UELmwDVCu5ZVU77,2022-09-01_19h46.39.429,jpn_C02,2022.1.2,Win32,20.00920423,,,space,0.4525,0,33,33,23,1,トマ　ドキ　ホレト,,,CartoonStims/boxer_point_chef_r.jpg,audio/tomadokihoreto.mp3,,,,,,,,,,,,,,,,,,,,,,,,,,,,,,,,,,,,,,,,,,,,,,,,,,,,,,,,,,,,,,,,,,,,,
,,,,,,,,,R_UELmwDVCu5ZVU77,2022-09-01_19h46.39.429,jpn_C02,2022.1.2,Win32,20.00920423,,,space,0.3576,0,34,34,45,1,プミ　ピポ　ムク,,,CartoonStims/doctor_punch_cowboy_r.jpg,audio/pumipipomuku.mp3,,,,,,,,,,,,,,,,,,,,,,,,,,,,,,,,,,,,,,,,,,,,,,,,,,,,,,,,,,,,,,,,,,,,,
,,,,,,,,,R_UELmwDVCu5ZVU77,2022-09-01_19h46.39.429,jpn_C02,2022.1.2,Win32,20.00920423,,,space,0.7557,0,35,35,10,1,セル　ドキ　シド,,,CartoonStims/boxer_kick_artist_r.jpg,audio/serudokisido.mp3,,,,,,,,,,,,,,,,,,,,,,,,,,,,,,,,,,,,,,,,,,,,,,,,,,,,,,,,,,,,,,,,,,,,,
,,,,,,,,,R_UELmwDVCu5ZVU77,2022-09-01_19h46.39.429,jpn_C02,2022.1.2,Win32,20.00920423,,,space,0.3525,0,36,36,43,1,プミ　ムク　ホレト,,,CartoonStims/cowboy_punch_chef_r.jpg,audio/pumimukuhoreto.mp3,,,,,,,,,,,,,,,,,,,,,,,,,,,,,,,,,,,,,,,,,,,,,,,,,,,,,,,,,,,,,,,,,,,,,
,,,,,,,,,R_UELmwDVCu5ZVU77,2022-09-01_19h46.39.429,jpn_C02,2022.1.2,Win32,20.00920423,,,space,0.392,0,37,37,20,1,トマ　ピポ　シド,,,CartoonStims/doctor_point_artist_r.jpg,audio/tomapiposido.mp3,,,,,,,,,,,,,,,,,,,,,,,,,,,,,,,,,,,,,,,,,,,,,,,,,,,,,,,,,,,,,,,,,,,,,
,,,,,,,,,R_UELmwDVCu5ZVU77,2022-09-01_19h46.39.429,jpn_C02,2022.1.2,Win32,20.00920423,,,space,0.2871,0,38,38,30,1,パツ　ムク　シド,,,CartoonStims/cowboy_shoot_artist_r.jpg,audio/patsumukusido.mp3,,,,,,,,,,,,,,,,,,,,,,,,,,,,,,,,,,,,,,,,,,,,,,,,,,,,,,,,,,,,,,,,,,,,,
,,,,,,,,,R_UELmwDVCu5ZVU77,2022-09-01_19h46.39.429,jpn_C02,2022.1.2,Win32,20.00920423,,,space,0.293,0,39,39,21,1,トマ　ピポ　ルピン,,,CartoonStims/doctor_point_burglar_r.jpg,audio/tomapipolupin.mp3,,,,,,,,,,,,,,,,,,,,,,,,,,,,,,,,,,,,,,,,,,,,,,,,,,,,,,,,,,,,,,,,,,,,,
,,,,,,,,,R_UELmwDVCu5ZVU77,2022-09-01_19h46.39.429,jpn_C02,2022.1.2,Win32,20.00920423,,,space,0.1716,0,40,40,36,1,プミ　シド　ピポ,,,CartoonStims/artist_punch_doctor_r.jpg,audio/pumisidopipo.mp3,,,,,,,,,,,,,,,,,,,,,,,,,,,,,,,,,,,,,,,,,,,,,,,,,,,,,,,,,,,,,,,,,,,,,
,,,,,,,,,R_UELmwDVCu5ZVU77,2022-09-01_19h46.39.429,jpn_C02,2022.1.2,Win32,20.00920423,,,space,0.197,0,41,41,29,1,パツ　ホレト　シド,,,CartoonStims/chef_shoot_artist_r.jpg,audio/patsuhoretosido.mp3,,,,,,,,,,,,,,,,,,,,,,,,,,,,,,,,,,,,,,,,,,,,,,,,,,,,,,,,,,,,,,,,,,,,,
,,,,,,,,,R_UELmwDVCu5ZVU77,2022-09-01_19h46.39.429,jpn_C02,2022.1.2,Win32,20.00920423,,,space,0.0923,0,42,42,26,1,パツ　ルピン　ピポ,,,CartoonStims/burglar_shoot_doctor_r.jpg,audio/patsulupinpipo.mp3,,,,,,,,,,,,,,,,,,,,,,,,,,,,,,,,,,,,,,,,,,,,,,,,,,,,,,,,,,,,,,,,,,,,,
,,,,,,,,,R_UELmwDVCu5ZVU77,2022-09-01_19h46.39.429,jpn_C02,2022.1.2,Win32,20.00920423,,,space,0.1449,0,43,43,46,1,プミ　ドキ　ムク,,,CartoonStims/boxer_punch_cowboy_r.jpg,audio/pumidokimuku.mp3,,,,,,,,,,,,,,,,,,,,,,,,,,,,,,,,,,,,,,,,,,,,,,,,,,,,,,,,,,,,,,,,,,,,,
,,,,,,,,,R_UELmwDVCu5ZVU77,2022-09-01_19h46.39.429,jpn_C02,2022.1.2,Win32,20.00920423,,,space,0.2405,0,44,44,32,1,パツ　ピポ　ルピン,,,CartoonStims/doctor_shoot_burglar_r.jpg,audio/patsupipolupin.mp3,,,,,,,,,,,,,,,,,,,,,,,,,,,,,,,,,,,,,,,,,,,,,,,,,,,,,,,,,,,,,,,,,,,,,
,,,,,,,,,R_UELmwDVCu5ZVU77,2022-09-01_19h46.39.429,jpn_C02,2022.1.2,Win32,20.00920423,,,space,0.2761,0,45,45,28,1,パツ　ホレト　ドキ,,,CartoonStims/chef_shoot_boxer_r.jpg,audio/patsuhoretodoki.mp3,,,,,,,,,,,,,,,,,,,,,,,,,,,,,,,,,,,,,,,,,,,,,,,,,,,,,,,,,,,,,,,,,,,,,
,,,,,,,,,R_UELmwDVCu5ZVU77,2022-09-01_19h46.39.429,jpn_C02,2022.1.2,Win32,20.00920423,,,space,0.1211,0,46,46,13,1,トマ　シド　ムク,,,CartoonStims/artist_point_cowboy_r.jpg,audio/tomasidomuku.mp3,,,,,,,,,,,,,,,,,,,,,,,,,,,,,,,,,,,,,,,,,,,,,,,,,,,,,,,,,,,,,,,,,,,,,
,,,,,,,,,R_UELmwDVCu5ZVU77,2022-09-01_19h46.39.429,jpn_C02,2022.1.2,Win32,20.00920423,,,space,0.8395,0,47,47,0,1,セル　シド　ルピン,,,CartoonStims/artist_kick_burglar_r.jpg,audio/serusidolupin.mp3,,,,,,,,,,,,,,,,,,,,,,,,,,,,,,,,,,,,,,,,,,,,,,,,,,,,,,,,,,,,,,,,,,,,,
,,,,,,,,,R_UELmwDVCu5ZVU77,2022-09-01_19h46.39.429,jpn_C02,2022.1.2,Win32,20.00920423,,,,,,,,,,,,,,,space,4.3299,left,1,6.6605,,,,,,,,,,,,,,,,,,0,0,0,0,1,,,,,,,,,,,,,,,,,,,,,,,,,,,,,,,,,,,,,,,,,,
,,,,,,,,,R_UELmwDVCu5ZVU77,2022-09-01_19h46.39.429,jpn_C02,2022.1.2,Win32,20.00920423,,,,,,,,,,,,,,,,,,,,,,,,,0,0,0,10,1,CartoonStims/artist_shoot_burglar_r.jpg,パツ　シド　ルピン,CartoonStims/chef_shoot_burglar_r.jpg,left,CartoonStims/artist_shoot_burglar_r.jpg,audio/patsusidolupin.mp3,残念！ こちらが正しい画像です。,,,,,,,,,,,,,,,,,,,,,,,,,,,,,,,,,,,,,,,,,,,,,,,
,,,,,,,,,R_UELmwDVCu5ZVU77,2022-09-01_19h46.39.429,jpn_C02,2022.1.2,Win32,20.00920423,,,,,,,,,,,,,,,,,right,1,6.7889,0,0,0,0,1,,,,,,,,,,,,,,,,,,,,,,,,,,,,,,,,,,,,,,,,,,,,,,,,,,,,,,,,,,,
,,,,,,,,,R_UELmwDVCu5ZVU77,2022-09-01_19h46.39.429,jpn_C02,2022.1.2,Win32,20.00920423,,,,,,,,,,,,,,,,,,,,,,,,,0,1,1,9,1,CartoonStims/chef_kick_artist_r.jpg,セル　ムク　シド,CartoonStims/cowboy_kick_artist_r.jpg,right,CartoonStims/cowboy_kick_artist_r.jpg,audio/serumukusido.mp3,残念！ こちらが正しい画像です。,,,,,,,,,,,,,,,,,,,,,,,,,,,,,,,,,,,,,,,,,,,,,,,
,,,,,,,,,R_UELmwDVCu5ZVU77,2022-09-01_19h46.39.429,jpn_C02,2022.1.2,Win32,20.00920423,,,,,,,,,,,,,,,,,left,1,5.4056,,,,,,,,,,,,,,,,,,0,0,0,0,1,,,,,,,,,,,,,,,,,,,,,,,,,,,,,,,,,,,,,,,,,,
,,,,,,,,,R_UELmwDVCu5ZVU77,2022-09-01_19h46.39.429,jpn_C02,2022.1.2,Win32,20.00920423,,,,,,,,,,,,,,,,,,,,,,,,,0,2,2,4,1,CartoonStims/burglar_point_boxer_r.jpg,トマ　ルピン　ドキ,CartoonStims/burglar_kick_boxer_r.jpg,left,CartoonStims/burglar_point_boxer_r.jpg,audio/tomalupindoki.mp3,残念！ こちらが正しい画像です。,,,,,,,,,,,,,,,,,,,,,,,,,,,,,,,,,,,,,,,,,,,,,,,
,,,,,,,,,R_UELmwDVCu5ZVU77,2022-09-01_19h46.39.429,jpn_C02,2022.1.2,Win32,20.00920423,,,,,,,,,,,,,,,,,right,1,5.8731,0,0,0,0,1,,,,,,,,,,,,,,,,,,,,,,,,,,,,,,,,,,,,,,,,,,,,,,,,,,,,,,,,,,,
,,,,,,,,,R_UELmwDVCu5ZVU77,2022-09-01_19h46.39.429,jpn_C02,2022.1.2,Win32,20.00920423,,,,,,,,,,,,,,,,,,,,,,,,,0,3,3,1,1,CartoonStims/chef_point_burglar_r.jpg,トマ　ホレト　シド,CartoonStims/chef_point_artist_r.jpg,right,CartoonStims/chef_point_artist_r.jpg,audio/tomahoretosido.mp3,残念！ こちらが正しい画像です。,,,,,,,,,,,,,,,,,,,,,,,,,,,,,,,,,,,,,,,,,,,,,,,
,,,,,,,,,R_UELmwDVCu5ZVU77,2022-09-01_19h46.39.429,jpn_C02,2022.1.2,Win32,20.00920423,,,,,,,,,,,,,,,,,left,1,5.6902,,,,,,,,,,,,,,,,,,0,0,0,0,1,,,,,,,,,,,,,,,,,,,,,,,,,,,,,,,,,,,,,,,,,,
,,,,,,,,,R_UELmwDVCu5ZVU77,2022-09-01_19h46.39.429,jpn_C02,2022.1.2,Win32,20.00920423,,,,,,,,,,,,,,,,,,,,,,,,,0,4,4,2,1,CartoonStims/boxer_shoot_doctor_r.jpg,パツ　ドキ　ピポ,CartoonStims/boxer_shoot_artist_r.jpg,left,CartoonStims/boxer_shoot_doctor_r.jpg,audio/patsudokipipo.mp3,残念！ こちらが正しい画像です。,,,,,,,,,,,,,,,,,,,,,,,,,,,,,,,,,,,,,,,,,,,,,,,
,,,,,,,,,R_UELmwDVCu5ZVU77,2022-09-01_19h46.39.429,jpn_C02,2022.1.2,Win32,20.00920423,,,,,,,,,,,,,,,,,right,1,2.8709,0,0,0,0,1,,,,,,,,,,,,,,,,,,,,,,,,,,,,,,,,,,,,,,,,,,,,,,,,,,,,,,,,,,,
,,,,,,,,,R_UELmwDVCu5ZVU77,2022-09-01_19h46.39.429,jpn_C02,2022.1.2,Win32,20.00920423,,,,,,,,,,,,,,,,,,,,,,,,,0,5,5,11,1,CartoonStims/burglar_punch_cowboy_r.jpg,プミ　ホレト　ムク,CartoonStims/chef_punch_cowboy_r.jpg,right,CartoonStims/chef_punch_cowboy_r.jpg,audio/pumihoretomuku.mp3,残念！ こちらが正しい画像です。,,,,,,,,,,,,,,,,,,,,,,,,,,,,,,,,,,,,,,,,,,,,,,,
,,,,,,,,,R_UELmwDVCu5ZVU77,2022-09-01_19h46.39.429,jpn_C02,2022.1.2,Win32,20.00920423,,,,,,,,,,,,,,,,,left,1,2.1572,,,,,,,,,,,,,,,,,,0,0,0,0,1,,,,,,,,,,,,,,,,,,,,,,,,,,,,,,,,,,,,,,,,,,
,,,,,,,,,R_UELmwDVCu5ZVU77,2022-09-01_19h46.39.429,jpn_C02,2022.1.2,Win32,20.00920423,,,,,,,,,,,,,,,,,,,,,,,,,0,6,6,8,1,CartoonStims/doctor_point_cowboy_r.jpg,トマ　ピポ　ムク,CartoonStims/boxer_point_cowboy_r.jpg,left,CartoonStims/doctor_point_cowboy_r.jpg,audio/tomapipomuku.mp3,残念！ こちらが正しい画像です。,,,,,,,,,,,,,,,,,,,,,,,,,,,,,,,,,,,,,,,,,,,,,,,
,,,,,,,,,R_UELmwDVCu5ZVU77,2022-09-01_19h46.39.429,jpn_C02,2022.1.2,Win32,20.00920423,,,,,,,,,,,,,,,,,left,1,2.6198,,,,,,,,,,,,,,,,,,0,0,0,0,1,,,,,,,,,,,,,,,,,,,,,,,,,,,,,,,,,,,,,,,,,,
,,,,,,,,,R_UELmwDVCu5ZVU77,2022-09-01_19h46.39.429,jpn_C02,2022.1.2,Win32,20.00920423,,,,,,,,,,,,,,,,,,,,,,,,,0,7,7,0,1,CartoonStims/doctor_kick_burglar_r.jpg,セル　ピポ　ルピン,CartoonStims/doctor_kick_chef_r.jpg,left,CartoonStims/doctor_kick_burglar_r.jpg,audio/serupipolupin.mp3,残念！ こちらが正しい画像です。,,,,,,,,,,,,,,,,,,,,,,,,,,,,,,,,,,,,,,,,,,,,,,,
,,,,,,,,,R_UELmwDVCu5ZVU77,2022-09-01_19h46.39.429,jpn_C02,2022.1.2,Win32,20.00920423,,,,,,,,,,,,,,,,,right,1,2.628,0,0,0,0,1,,,,,,,,,,,,,,,,,,,,,,,,,,,,,,,,,,,,,,,,,,,,,,,,,,,,,,,,,,,
,,,,,,,,,R_UELmwDVCu5ZVU77,2022-09-01_19h46.39.429,jpn_C02,2022.1.2,Win32,20.00920423,,,,,,,,,,,,,,,,,,,,,,,,,0,8,8,3,1,CartoonStims/cowboy_punch_doctor_r.jpg,プミ　ムク　ドキ,CartoonStims/cowboy_punch_boxer_r.jpg,right,CartoonStims/cowboy_punch_boxer_r.jpg,audio/pumimukudoki.mp3,残念！ こちらが正しい画像です。,,,,,,,,,,,,,,,,,,,,,,,,,,,,,,,,,,,,,,,,,,,,,,,
,,,,,,,,,R_UELmwDVCu5ZVU77,2022-09-01_19h46.39.429,jpn_C02,2022.1.2,Win32,20.00920423,,,,,,,,,,,,,,,,,right,1,1.4772,0,0,0,0,1,,,,,,,,,,,,,,,,,,,,,,,,,,,,,,,,,,,,,,,,,,,,,,,,,,,,,,,,,,,
,,,,,,,,,R_UELmwDVCu5ZVU77,2022-09-01_19h46.39.429,jpn_C02,2022.1.2,Win32,20.00920423,,,,,,,,,,,,,,,,,,,,,,,,,0,9,9,5,1,CartoonStims/cowboy_point_chef_r.jpg,パツ　ムク　ホレト,CartoonStims/cowboy_shoot_chef_r.jpg,right,CartoonStims/cowboy_shoot_chef_r.jpg,audio/patsumukuhoreto.mp3,残念！ こちらが正しい画像です。,,,,,,,,,,,,,,,,,,,,,,,,,,,,,,,,,,,,,,,,,,,,,,,
,,,,,,,,,R_UELmwDVCu5ZVU77,2022-09-01_19h46.39.429,jpn_C02,2022.1.2,Win32,20.00920423,,,,,,,,,,,,,,,,,left,1,1.7874,,,,,,,,,,,,,,,,,,0,0,0,0,1,,,,,,,,,,,,,,,,,,,,,,,,,,,,,,,,,,,,,,,,,,
,,,,,,,,,R_UELmwDVCu5ZVU77,2022-09-01_19h46.39.429,jpn_C02,2022.1.2,Win32,20.00920423,,,,,,,,,,,,,,,,,,,,,,,,,0,10,10,6,1,CartoonStims/doctor_punch_boxer_r.jpg,プミ　ピポ　ドキ,CartoonStims/doctor_shoot_boxer_r.jpg,left,CartoonStims/doctor_punch_boxer_r.jpg,audio/pumipipodoki.mp3,残念！ こちらが正しい画像です。,,,,,,,,,,,,,,,,,,,,,,,,,,,,,,,,,,,,,,,,,,,,,,,
,,,,,,,,,R_UELmwDVCu5ZVU77,2022-09-01_19h46.39.429,jpn_C02,2022.1.2,Win32,20.00920423,,,,,,,,,,,,,,,,,right,1,1.3607,0,0,0,0,1,,,,,,,,,,,,,,,,,,,,,,,,,,,,,,,,,,,,,,,,,,,,,,,,,,,,,,,,,,,
,,,,,,,,,R_UELmwDVCu5ZVU77,2022-09-01_19h46.39.429,jpn_C02,2022.1.2,Win32,20.00920423,,,,,,,,,,,,,,,,,,,,,,,,,0,11,11,7,1,CartoonStims/artist_punch_cowboy_r.jpg,セル　シド　ムク,CartoonStims/artist_kick_cowboy_r.jpg,right,CartoonStims/artist_kick_cowboy_r.jpg,audio/serusidomuku.mp3,残念！ こちらが正しい画像です。,,,,,,,,,,,,,,,,,,,,,,,,,,,,,,,,,,,,,,,,,,,,,,,
,,,,,,,,,R_UELmwDVCu5ZVU77,2022-09-01_19h46.39.429,jpn_C02,2022.1.2,Win32,20.00920423,,,,,,,,,,,,,,,,,,,,,,,,,,,,,,,,,,,,,,,,,,space,1.2436,パツ　ルピン　ホレト,right,12.2221,0,0,0,0,1,,,,,,,,,,,,,,,,,,,,,,,,,,,,,,,,
,,,,,,,,,R_UELmwDVCu5ZVU77,2022-09-01_19h46.39.429,jpn_C02,2022.1.2,Win32,20.00920423,,,,,,,,,,,,,CartoonStims/burglar_shoot_chef_r.jpg,audio/patsulupinhoreto.mp3,,,,,,,,,,,,,,,,,,,,,,,,,,,,,,,,,,,,,,0,0,0,6,1,パツ　ルピン　ホレト,,,,,,,,,,,,,,,,,,,,,,,,,,
,,,,,,,,,R_UELmwDVCu5ZVU77,2022-09-01_19h46.39.429,jpn_C02,2022.1.2,Win32,20.00920423,,,,,,,,,,,,,,,,,,,,,,,,,,,,,,,,,,,,,,,,,,,,トマ　ホレト　ルピン,right,11.8108,0,0,0,0,1,,,,,,,,,,,,,,,,,,,,,,,,,,,,,,,,
,,,,,,,,,R_UELmwDVCu5ZVU77,2022-09-01_19h46.39.429,jpn_C02,2022.1.2,Win32,20.00920423,,,,,,,,,,,,,CartoonStims/chef_point_burglar_r.jpg,audio/tomahoretolupin.mp3,,,,,,,,,,,,,,,,,,,,,,,,,,,,,,,,,,,,,,0,1,1,5,1,トマ　ホレト　ルピン,,,,,,,,,,,,,,,,,,,,,,,,,,
,,,,,,,,,R_UELmwDVCu5ZVU77,2022-09-01_19h46.39.429,jpn_C02,2022.1.2,Win32,20.00920423,,,,,,,,,,,,,,,,,,,,,,,,,,,,,,,,,,,,,,,,,,,,トマ　シド　ドキ,right,9.1152,0,0,0,0,1,,,,,,,,,,,,,,,,,,,,,,,,,,,,,,,,
,,,,,,,,,R_UELmwDVCu5ZVU77,2022-09-01_19h46.39.429,jpn_C02,2022.1.2,Win32,20.00920423,,,,,,,,,,,,,CartoonStims/artist_point_boxer_r.jpg,audio/tomasidodoki.mp3,,,,,,,,,,,,,,,,,,,,,,,,,,,,,,,,,,,,,,0,2,2,3,1,トマ　シド　ドキ,,,,,,,,,,,,,,,,,,,,,,,,,,
,,,,,,,,,R_UELmwDVCu5ZVU77,2022-09-01_19h46.39.429,jpn_C02,2022.1.2,Win32,20.00920423,,,,,,,,,,,,,,,,,,,,,,,,,,,,,,,,,,,,,,,,,,,,セル　ドキ　ムク,right,8.4072,0,0,0,0,1,,,,,,,,,,,,,,,,,,,,,,,,,,,,,,,,
,,,,,,,,,R_UELmwDVCu5ZVU77,2022-09-01_19h46.39.429,jpn_C02,2022.1.2,Win32,20.00920423,,,,,,,,,,,,,CartoonStims/boxer_kick_cowboy_r.jpg,audio/serudokimuku.mp3,,,,,,,,,,,,,,,,,,,,,,,,,,,,,,,,,,,,,,0,3,3,2,1,セル　ドキ　ムク,,,,,,,,,,,,,,,,,,,,,,,,,,
,,,,,,,,,R_UELmwDVCu5ZVU77,2022-09-01_19h46.39.429,jpn_C02,2022.1.2,Win32,20.00920423,,,,,,,,,,,,,,,,,,,,,,,,,,,,,,,,,,,,,,,,,,,,パツ　ムク　ピポ,right,9.6073,0,0,0,0,1,,,,,,,,,,,,,,,,,,,,,,,,,,,,,,,,
,,,,,,,,,R_UELmwDVCu5ZVU77,2022-09-01_19h46.39.429,jpn_C02,2022.1.2,Win32,20.00920423,,,,,,,,,,,,,CartoonStims/cowboy_shoot_doctor_r.jpg,audio/patsumukupipo.mp3,,,,,,,,,,,,,,,,,,,,,,,,,,,,,,,,,,,,,,0,4,4,8,1,パツ　ムク　ピポ,,,,,,,,,,,,,,,,,,,,,,,,,,
,,,,,,,,,R_UELmwDVCu5ZVU77,2022-09-01_19h46.39.429,jpn_C02,2022.1.2,Win32,20.00920423,,,,,,,,,,,,,,,,,,,,,,,,,,,,,,,,,,,,,,,,,,,,トマ　ルピン　シド,right,11.6675,0,0,0,0,1,,,,,,,,,,,,,,,,,,,,,,,,,,,,,,,,
,,,,,,,,,R_UELmwDVCu5ZVU77,2022-09-01_19h46.39.429,jpn_C02,2022.1.2,Win32,20.00920423,,,,,,,,,,,,,CartoonStims/burglar_point_artist_r.jpg,audio/tomalupinsido.mp3,,,,,,,,,,,,,,,,,,,,,,,,,,,,,,,,,,,,,,0,5,5,4,1,トマ　ルピン　シド,,,,,,,,,,,,,,,,,,,,,,,,,,
,,,,,,,,,R_UELmwDVCu5ZVU77,2022-09-01_19h46.39.429,jpn_C02,2022.1.2,Win32,20.00920423,,,,,,,,,,,,,,,,,,,,,,,,,,,,,,,,,,,,,,,,,,,,セル　ピポ　ホレト,right,8.6995,0,0,0,0,1,,,,,,,,,,,,,,,,,,,,,,,,,,,,,,,,
,,,,,,,,,R_UELmwDVCu5ZVU77,2022-09-01_19h46.39.429,jpn_C02,2022.1.2,Win32,20.00920423,,,,,,,,,,,,,CartoonStims/doctor_kick_chef_r.jpg,audio/serupipohoreto.mp3,,,,,,,,,,,,,,,,,,,,,,,,,,,,,,,,,,,,,,0,6,6,1,1,セル　ピポ　ホレト,,,,,,,,,,,,,,,,,,,,,,,,,,
,,,,,,,,,R_UELmwDVCu5ZVU77,2022-09-01_19h46.39.429,jpn_C02,2022.1.2,Win32,20.00920423,,,,,,,,,,,,,,,,,,,,,,,,,,,,,,,,,,,,,,,,,,,,プに,right,13.3099,0,0,0,0,1,,,,,,,,,,,,,,,,,,,,,,,,,,,,,,,,
,,,,,,,,,R_UELmwDVCu5ZVU77,2022-09-01_19h46.39.429,jpn_C02,2022.1.2,Win32,20.00920423,,,,,,,,,,,,,CartoonStims/boxer_punch_artist_r.jpg,audio/pumidokisido.mp3,,,,,,,,,,,,,,,,,,,,,,,,,,,,,,,,,,,,,,0,7,7,11,1,プミ　ドキ　シド,,,,,,,,,,,,,,,,,,,,,,,,,,
,,,,,,,,,R_UELmwDVCu5ZVU77,2022-09-01_19h46.39.429,jpn_C02,2022.1.2,Win32,20.00920423,,,,,,,,,,,,,,,,,,,,,,,,,,,,,,,,,,,,,,,,,,,,セル　ムク　ルピン,right,18.2961,0,0,0,0,1,,,,,,,,,,,,,,,,,,,,,,,,,,,,,,,,
,,,,,,,,,R_UELmwDVCu5ZVU77,2022-09-01_19h46.39.429,jpn_C02,2022.1.2,Win32,20.00920423,,,,,,,,,,,,,CartoonStims/cowboy_kick_burglar_r.jpg,audio/serumukulupin.mp3,,,,,,,,,,,,,,,,,,,,,,,,,,,,,,,,,,,,,,0,8,8,0,1,セル　ムク　ルピン,,,,,,,,,,,,,,,,,,,,,,,,,,
,,,,,,,,,R_UELmwDVCu5ZVU77,2022-09-01_19h46.39.429,jpn_C02,2022.1.2,Win32,20.00920423,,,,,,,,,,,,,,,,,,,,,,,,,,,,,,,,,,,,,,,,,,,,プミ　ピポ　ドキ,right,29.7061,0,0,0,0,1,,,,,,,,,,,,,,,,,,,,,,,,,,,,,,,,
,,,,,,,,,R_UELmwDVCu5ZVU77,2022-09-01_19h46.39.429,jpn_C02,2022.1.2,Win32,20.00920423,,,,,,,,,,,,,CartoonStims/doctor_punch_boxer_r.jpg,audio/pumipipodoki.mp3,,,,,,,,,,,,,,,,,,,,,,,,,,,,,,,,,,,,,,0,9,9,10,1,プミ　ピポ　ドキ,,,,,,,,,,,,,,,,,,,,,,,,,,
,,,,,,,,,R_UELmwDVCu5ZVU77,2022-09-01_19h46.39.429,jpn_C02,2022.1.2,Win32,20.00920423,,,,,,,,,,,,,,,,,,,,,,,,,,,,,,,,,,,,,,,,,,,,プミ　シド　ルピン,right,10.0709,0,0,0,0,1,,,,,,,,,,,,,,,,,,,,,,,,,,,,,,,,
,,,,,,,,,R_UELmwDVCu5ZVU77,2022-09-01_19h46.39.429,jpn_C02,2022.1.2,Win32,20.00920423,,,,,,,,,,,,,CartoonStims/artist_punch_burglar_r.jpg,audio/pumisidolupin.mp3,,,,,,,,,,,,,,,,,,,,,,,,,,,,,,,,,,,,,,0,10,10,9,1,プミ　シド　ルピン,,,,,,,,,,,,,,,,,,,,,,,,,,
,,,,,,,,,R_UELmwDVCu5ZVU77,2022-09-01_19h46.39.429,jpn_C02,2022.1.2,Win32,20.00920423,,,,,,,,,,,,,,,,,,,,,,,,,,,,,,,,,,,,,,,,,,,,パツ　ホレト　ムク,right,8.8162,0,0,0,0,1,,,,,,,,,,,,,,,,,,,,,,,,,,,,,,,,
,,,,,,,,,R_UELmwDVCu5ZVU77,2022-09-01_19h46.39.429,jpn_C02,2022.1.2,Win32,20.00920423,,,,,,,,,,,,,CartoonStims/chef_shoot_cowboy_r.jpg,audio/patsuhoretomuku.mp3,,,,,,,,,,,,,,,,,,,,,,,,,,,,,,,,,,,,,,0,11,11,7,1,パツ　ホレト　ムク,,,,,,,,,,,,,,,,,,,,,,,,,,
,,,,,,,,,R_UELmwDVCu5ZVU77,2022-09-01_19h46.39.429,jpn_C02,2022.1.2,Win32,20.00920423,,,,,,,,,,,,,,,,,,,,,,,,,,,,,,,,,,,,,,,,,,,,,,,,,,,,,,,,,,,space,0.7176,0,1,1,1,1,AffExposure.xlsx,"第二のトライアルの学習では、この言語で書かれた文を見ていただきます。引き続き注意して、 聞こえた音を復唱してください。


スペースキーを押してください。",1,AffFCT.xlsx,ここからクイズが始まります。 スクリーンに表示されるテキストに合う画像を選んでください。,AffTest.xlsx,1,次にここまで学んだことをアウトプットしていただきます。 表示される画像を描写していると思う単語を、テキストボックスにタイプしてください。 答えを提出したあとに正しい正解が少しの間画面に写ります。,1,"これで第二のトライアルが終了しました。 ここで休憩をとっていただいても構いません。

休憩が終わりましたら、 スペースキーを押して続きの学習を行いましょう。",,,,,,,,
,,,,,,,,,R_UELmwDVCu5ZVU77,2022-09-01_19h46.39.429,jpn_C02,2022.1.2,Win32,20.00920423,space,2.1055,space,3.1532,0,0,0,0,1,セル　ピク　シド　ルピン,,,CartoonStims/artist_kick_burglar_r_no.jpg,audio/serupikusidolupin.mp3,,,,,,,,,,,,,,,,,,,,,,,,,,,,,,,,,,,,,,,,,,,,,,,,,,,,,,,,,,,,,,,,,,,,,
,,,,,,,,,R_UELmwDVCu5ZVU77,2022-09-01_19h46.39.429,jpn_C02,2022.1.2,Win32,20.00920423,,,space,3.6616,0,1,1,38,1,ピク　プミ　ルピン　ドキ,,,CartoonStims/burglar_punch_boxer_r_no.jpg,audio/pikupumilupindoki.mp3,,,,,,,,,,,,,,,,,,,,,,,,,,,,,,,,,,,,,,,,,,,,,,,,,,,,,,,,,,,,,,,,,,,,,
,,,,,,,,,R_UELmwDVCu5ZVU77,2022-09-01_19h46.39.429,jpn_C02,2022.1.2,Win32,20.00920423,,,space,1.4275,0,2,2,37,1,ピク　プミ　シド　ドキ,,,CartoonStims/artist_punch_boxer_r_no.jpg,audio/pikupumisidodoki.mp3,,,,,,,,,,,,,,,,,,,,,,,,,,,,,,,,,,,,,,,,,,,,,,,,,,,,,,,,,,,,,,,,,,,,,
,,,,,,,,,R_UELmwDVCu5ZVU77,2022-09-01_19h46.39.429,jpn_C02,2022.1.2,Win32,20.00920423,,,space,3.5831,0,3,3,19,1,トマ　ピク　ムク　シド,,,CartoonStims/cowboy_point_artist_r_no.jpg,audio/tomapikumukusido.mp3,,,,,,,,,,,,,,,,,,,,,,,,,,,,,,,,,,,,,,,,,,,,,,,,,,,,,,,,,,,,,,,,,,,,,
,,,,,,,,,R_UELmwDVCu5ZVU77,2022-09-01_19h46.39.429,jpn_C02,2022.1.2,Win32,20.00920423,,,space,2.5552,0,4,4,44,1,プミ　ピク　ピポ　ホレト,,,CartoonStims/doctor_punch_chef_r_no.jpg,audio/pumipikupipohoreto.mp3,,,,,,,,,,,,,,,,,,,,,,,,,,,,,,,,,,,,,,,,,,,,,,,,,,,,,,,,,,,,,,,,,,,,,
,,,,,,,,,R_UELmwDVCu5ZVU77,2022-09-01_19h46.39.429,jpn_C02,2022.1.2,Win32,20.00920423,,,space,2.6255,0,5,5,2,1,ピク　セル　ルピン　ホレト,,,CartoonStims/burglar_kick_chef_r_no.jpg,audio/pikuserulupinhoreto.mp3,,,,,,,,,,,,,,,,,,,,,,,,,,,,,,,,,,,,,,,,,,,,,,,,,,,,,,,,,,,,,,,,,,,,,
,,,,,,,,,R_UELmwDVCu5ZVU77,2022-09-01_19h46.39.429,jpn_C02,2022.1.2,Win32,20.00920423,,,space,3.1703,0,6,6,29,1,パツ　ピク　ホレト　シド,,,CartoonStims/chef_shoot_artist_r_no.jpg,audio/patsupikuhoretosido.mp3,,,,,,,,,,,,,,,,,,,,,,,,,,,,,,,,,,,,,,,,,,,,,,,,,,,,,,,,,,,,,,,,,,,,,
,,,,,,,,,R_UELmwDVCu5ZVU77,2022-09-01_19h46.39.429,jpn_C02,2022.1.2,Win32,20.00920423,,,space,7.7979,0,7,7,35,1,ピク　パツ　ドキ　ムク,,,CartoonStims/boxer_shoot_cowboy_r_no.jpg,audio/pikupatsudokimuku.mp3,,,,,,,,,,,,,,,,,,,,,,,,,,,,,,,,,,,,,,,,,,,,,,,,,,,,,,,,,,,,,,,,,,,,,
,,,,,,,,,R_UELmwDVCu5ZVU77,2022-09-01_19h46.39.429,jpn_C02,2022.1.2,Win32,20.00920423,,,space,3.1421,0,8,8,9,1,ピク　セル　ピポ　シド,,,CartoonStims/doctor_kick_artist_r_no.jpg,audio/pikuserupiposido.mp3,,,,,,,,,,,,,,,,,,,,,,,,,,,,,,,,,,,,,,,,,,,,,,,,,,,,,,,,,,,,,,,,,,,,,
,,,,,,,,,R_UELmwDVCu5ZVU77,2022-09-01_19h46.39.429,jpn_C02,2022.1.2,Win32,20.00920423,,,space,2.4581,0,9,9,22,1,ピク　トマ　ドキ　ルピン,,,CartoonStims/boxer_point_burglar_r_no.jpg,audio/pikutomadokilupin.mp3,,,,,,,,,,,,,,,,,,,,,,,,,,,,,,,,,,,,,,,,,,,,,,,,,,,,,,,,,,,,,,,,,,,,,
,,,,,,,,,R_UELmwDVCu5ZVU77,2022-09-01_19h46.39.429,jpn_C02,2022.1.2,Win32,20.00920423,,,space,4.0306,0,10,10,34,1,ピク　パツ　ドキ　ホレト,,,CartoonStims/boxer_shoot_chef_r_no.jpg,audio/pikupatsudokihoreto.mp3,,,,,,,,,,,,,,,,,,,,,,,,,,,,,,,,,,,,,,,,,,,,,,,,,,,,,,,,,,,,,,,,,,,,,
,,,,,,,,,R_UELmwDVCu5ZVU77,2022-09-01_19h46.39.429,jpn_C02,2022.1.2,Win32,20.00920423,,,space,4.2924,0,11,11,46,1,プミ　ピク　ドキ　ムク,,,CartoonStims/boxer_punch_cowboy_r_no.jpg,audio/pumipikudokimuku.mp3,,,,,,,,,,,,,,,,,,,,,,,,,,,,,,,,,,,,,,,,,,,,,,,,,,,,,,,,,,,,,,,,,,,,,
,,,,,,,,,R_UELmwDVCu5ZVU77,2022-09-01_19h46.39.429,jpn_C02,2022.1.2,Win32,20.00920423,,,space,2.93,0,12,12,13,1,ピク　トマ　シド　ムク,,,CartoonStims/artist_point_cowboy_r_no.jpg,audio/pikutomasidomuku.mp3,,,,,,,,,,,,,,,,,,,,,,,,,,,,,,,,,,,,,,,,,,,,,,,,,,,,,,,,,,,,,,,,,,,,,
,,,,,,,,,R_UELmwDVCu5ZVU77,2022-09-01_19h46.39.429,jpn_C02,2022.1.2,Win32,20.00920423,,,space,0.842,0,13,13,1,1,ピク　セル　シド　ホレト,,,CartoonStims/artist_kick_chef_r_no.jpg,audio/pikuserusidohoreto.mp3,,,,,,,,,,,,,,,,,,,,,,,,,,,,,,,,,,,,,,,,,,,,,,,,,,,,,,,,,,,,,,,,,,,,,
,,,,,,,,,R_UELmwDVCu5ZVU77,2022-09-01_19h46.39.429,jpn_C02,2022.1.2,Win32,20.00920423,,,space,11.3777,0,14,14,27,1,パツ　ピク　ルピン　ドキ,,,CartoonStims/burglar_shoot_boxer_r_no.jpg,audio/patsupikulupindoki.mp3,,,,,,,,,,,,,,,,,,,,,,,,,,,,,,,,,,,,,,,,,,,,,,,,,,,,,,,,,,,,,,,,,,,,,
,,,,,,,,,R_UELmwDVCu5ZVU77,2022-09-01_19h46.39.429,jpn_C02,2022.1.2,Win32,20.00920423,,,space,12.9831,0,15,15,32,1,ピク　パツ　ピポ　ルピン,,,CartoonStims/doctor_shoot_burglar_r_no.jpg,audio/pikupatsupipolupin.mp3,,,,,,,,,,,,,,,,,,,,,,,,,,,,,,,,,,,,,,,,,,,,,,,,,,,,,,,,,,,,,,,,,,,,,
,,,,,,,,,R_UELmwDVCu5ZVU77,2022-09-01_19h46.39.429,jpn_C02,2022.1.2,Win32,20.00920423,,,space,5.7082,0,16,16,23,1,トマ　ピク　ドキ　ホレト,,,CartoonStims/boxer_point_chef_r_no.jpg,audio/tomapikudokihoreto.mp3,,,,,,,,,,,,,,,,,,,,,,,,,,,,,,,,,,,,,,,,,,,,,,,,,,,,,,,,,,,,,,,,,,,,,
,,,,,,,,,R_UELmwDVCu5ZVU77,2022-09-01_19h46.39.429,jpn_C02,2022.1.2,Win32,20.00920423,,,space,7.6941,0,17,17,39,1,ピク　プミ　ルピン　シド,,,CartoonStims/burglar_punch_artist_r_no.jpg,audio/pikupumilupinsido.mp3,,,,,,,,,,,,,,,,,,,,,,,,,,,,,,,,,,,,,,,,,,,,,,,,,,,,,,,,,,,,,,,,,,,,,
,,,,,,,,,R_UELmwDVCu5ZVU77,2022-09-01_19h46.39.429,jpn_C02,2022.1.2,Win32,20.00920423,,,space,7.7492,0,18,18,20,1,ピク　トマ　ピポ　シド,,,CartoonStims/doctor_point_artist_r_no.jpg,audio/pikutomapiposido.mp3,,,,,,,,,,,,,,,,,,,,,,,,,,,,,,,,,,,,,,,,,,,,,,,,,,,,,,,,,,,,,,,,,,,,,
,,,,,,,,,R_UELmwDVCu5ZVU77,2022-09-01_19h46.39.429,jpn_C02,2022.1.2,Win32,20.00920423,,,space,7.1927,0,19,19,10,1,ピク　セル　ドキ　シド,,,CartoonStims/boxer_kick_artist_r_no.jpg,audio/pikuserudokisido.mp3,,,,,,,,,,,,,,,,,,,,,,,,,,,,,,,,,,,,,,,,,,,,,,,,,,,,,,,,,,,,,,,,,,,,,
,,,,,,,,,R_UELmwDVCu5ZVU77,2022-09-01_19h46.39.429,jpn_C02,2022.1.2,Win32,20.00920423,,,space,6.9427,0,20,20,42,1,プミ　ピク　ムク　ルピン,,,CartoonStims/cowboy_punch_burglar_r_no.jpg,audio/pumipikumukulupin.mp3,,,,,,,,,,,,,,,,,,,,,,,,,,,,,,,,,,,,,,,,,,,,,,,,,,,,,,,,,,,,,,,,,,,,,
,,,,,,,,,R_UELmwDVCu5ZVU77,2022-09-01_19h46.39.429,jpn_C02,2022.1.2,Win32,20.00920423,,,space,5.0868,0,21,21,47,1,ピク　プミ　ドキ　ピポ,,,CartoonStims/boxer_punch_doctor_r_no.jpg,audio/pikupumidokipipo.mp3,,,,,,,,,,,,,,,,,,,,,,,,,,,,,,,,,,,,,,,,,,,,,,,,,,,,,,,,,,,,,,,,,,,,,
,,,,,,,,,R_UELmwDVCu5ZVU77,2022-09-01_19h46.39.429,jpn_C02,2022.1.2,Win32,20.00920423,,,space,3.9743,0,22,22,4,1,セル　ピク　ホレト　ムク,,,CartoonStims/chef_kick_cowboy_r_no.jpg,audio/serupikuhoretomuku.mp3,,,,,,,,,,,,,,,,,,,,,,,,,,,,,,,,,,,,,,,,,,,,,,,,,,,,,,,,,,,,,,,,,,,,,
,,,,,,,,,R_UELmwDVCu5ZVU77,2022-09-01_19h46.39.429,jpn_C02,2022.1.2,Win32,20.00920423,,,space,2.1102,0,23,23,43,1,ピク　プミ　ムク　ホレト,,,CartoonStims/cowboy_punch_chef_r_no.jpg,audio/pikupumimukuhoreto.mp3,,,,,,,,,,,,,,,,,,,,,,,,,,,,,,,,,,,,,,,,,,,,,,,,,,,,,,,,,,,,,,,,,,,,,
,,,,,,,,,R_UELmwDVCu5ZVU77,2022-09-01_19h46.39.429,jpn_C02,2022.1.2,Win32,20.00920423,,,space,6.8296,0,24,24,26,1,ピク　パツ　ルピン　ピポ,,,CartoonStims/burglar_shoot_doctor_r_no.jpg,audio/pikupatsulupinpipo.mp3,,,,,,,,,,,,,,,,,,,,,,,,,,,,,,,,,,,,,,,,,,,,,,,,,,,,,,,,,,,,,,,,,,,,,
,,,,,,,,,R_UELmwDVCu5ZVU77,2022-09-01_19h46.39.429,jpn_C02,2022.1.2,Win32,20.00920423,,,space,6.3872,0,25,25,8,1,セル　ピク　ピポ　ドキ,,,CartoonStims/doctor_kick_boxer_r_no.jpg,audio/serupikupipodoki.mp3,,,,,,,,,,,,,,,,,,,,,,,,,,,,,,,,,,,,,,,,,,,,,,,,,,,,,,,,,,,,,,,,,,,,,
,,,,,,,,,R_UELmwDVCu5ZVU77,2022-09-01_19h46.39.429,jpn_C02,2022.1.2,Win32,20.00920423,,,space,3.3214,0,26,26,21,1,ピク　トマ　ピポ　ルピン,,,CartoonStims/doctor_point_burglar_r_no.jpg,audio/pikutomapipolupin.mp3,,,,,,,,,,,,,,,,,,,,,,,,,,,,,,,,,,,,,,,,,,,,,,,,,,,,,,,,,,,,,,,,,,,,,
,,,,,,,,,R_UELmwDVCu5ZVU77,2022-09-01_19h46.39.429,jpn_C02,2022.1.2,Win32,20.00920423,,,space,2.7121,0,27,27,11,1,ピク　セル　ドキ　ルピン,,,CartoonStims/boxer_kick_burglar_r_no.jpg,audio/pikuserudokilupin.mp3,,,,,,,,,,,,,,,,,,,,,,,,,,,,,,,,,,,,,,,,,,,,,,,,,,,,,,,,,,,,,,,,,,,,,
,,,,,,,,,R_UELmwDVCu5ZVU77,2022-09-01_19h46.39.429,jpn_C02,2022.1.2,Win32,20.00920423,,,space,1.42,0,28,28,5,1,ピク　セル　ホレト　ピポ,,,CartoonStims/chef_kick_doctor_r_no.jpg,audio/pikuseruhoretopipo.mp3,,,,,,,,,,,,,,,,,,,,,,,,,,,,,,,,,,,,,,,,,,,,,,,,,,,,,,,,,,,,,,,,,,,,,
,,,,,,,,,R_UELmwDVCu5ZVU77,2022-09-01_19h46.39.429,jpn_C02,2022.1.2,Win32,20.00920423,,,space,1.4359,0,29,29,25,1,パツ　ピク　シド　ピポ,,,CartoonStims/artist_shoot_doctor_r_no.jpg,audio/patsupikusidopipo.mp3,,,,,,,,,,,,,,,,,,,,,,,,,,,,,,,,,,,,,,,,,,,,,,,,,,,,,,,,,,,,,,,,,,,,,
,,,,,,,,,R_UELmwDVCu5ZVU77,2022-09-01_19h46.39.429,jpn_C02,2022.1.2,Win32,20.00920423,,,space,1.3557,0,30,30,3,1,ピク　セル　ルピン　ムク,,,CartoonStims/burglar_kick_cowboy_r_no.jpg,audio/pikuserulupinmuku.mp3,,,,,,,,,,,,,,,,,,,,,,,,,,,,,,,,,,,,,,,,,,,,,,,,,,,,,,,,,,,,,,,,,,,,,
,,,,,,,,,R_UELmwDVCu5ZVU77,2022-09-01_19h46.39.429,jpn_C02,2022.1.2,Win32,20.00920423,,,space,3.1302,0,31,31,30,1,ピク　パツ　ムク　シド,,,CartoonStims/cowboy_shoot_artist_r_no.jpg,audio/pikupatsumukusido.mp3,,,,,,,,,,,,,,,,,,,,,,,,,,,,,,,,,,,,,,,,,,,,,,,,,,,,,,,,,,,,,,,,,,,,,
,,,,,,,,,R_UELmwDVCu5ZVU77,2022-09-01_19h46.39.429,jpn_C02,2022.1.2,Win32,20.00920423,,,space,2.9151,0,32,32,36,1,ピク　プミ　シド　ピポ,,,CartoonStims/artist_punch_doctor_r_no.jpg,audio/pikupumisidopipo.mp3,,,,,,,,,,,,,,,,,,,,,,,,,,,,,,,,,,,,,,,,,,,,,,,,,,,,,,,,,,,,,,,,,,,,,
,,,,,,,,,R_UELmwDVCu5ZVU77,2022-09-01_19h46.39.429,jpn_C02,2022.1.2,Win32,20.00920423,,,space,1.9046,0,33,33,24,1,ピク　パツ　シド　ムク,,,CartoonStims/artist_shoot_cowboy_r_no.jpg,audio/pikupatsusidomuku.mp3,,,,,,,,,,,,,,,,,,,,,,,,,,,,,,,,,,,,,,,,,,,,,,,,,,,,,,,,,,,,,,,,,,,,,
,,,,,,,,,R_UELmwDVCu5ZVU77,2022-09-01_19h46.39.429,jpn_C02,2022.1.2,Win32,20.00920423,,,space,1.9557,0,34,34,6,1,ピク　セル　ムク　ピポ,,,CartoonStims/cowboy_kick_doctor_r_no.jpg,audio/pikuserumukupipo.mp3,,,,,,,,,,,,,,,,,,,,,,,,,,,,,,,,,,,,,,,,,,,,,,,,,,,,,,,,,,,,,,,,,,,,,
,,,,,,,,,R_UELmwDVCu5ZVU77,2022-09-01_19h46.39.429,jpn_C02,2022.1.2,Win32,20.00920423,,,space,1.1368,0,35,35,17,1,ピク　トマ　ホレト　ドキ,,,CartoonStims/chef_point_boxer_r_no.jpg,audio/pikutomahoretodoki.mp3,,,,,,,,,,,,,,,,,,,,,,,,,,,,,,,,,,,,,,,,,,,,,,,,,,,,,,,,,,,,,,,,,,,,,
,,,,,,,,,R_UELmwDVCu5ZVU77,2022-09-01_19h46.39.429,jpn_C02,2022.1.2,Win32,20.00920423,,,space,0.8697,0,36,36,40,1,ピク　プミ　ホレト　シド,,,CartoonStims/chef_punch_artist_r_no.jpg,audio/pikupumihoretosido.mp3,,,,,,,,,,,,,,,,,,,,,,,,,,,,,,,,,,,,,,,,,,,,,,,,,,,,,,,,,,,,,,,,,,,,,
,,,,,,,,,R_UELmwDVCu5ZVU77,2022-09-01_19h46.39.429,jpn_C02,2022.1.2,Win32,20.00920423,,,space,1.1737,0,37,37,31,1,ピク　パツ　ムク　ルピン,,,CartoonStims/cowboy_shoot_burglar_r_no.jpg,audio/pikupatsumukulupin.mp3,,,,,,,,,,,,,,,,,,,,,,,,,,,,,,,,,,,,,,,,,,,,,,,,,,,,,,,,,,,,,,,,,,,,,
,,,,,,,,,R_UELmwDVCu5ZVU77,2022-09-01_19h46.39.429,jpn_C02,2022.1.2,Win32,20.00920423,,,space,1.0683,0,38,38,18,1,ピク　トマ　ムク　ドキ,,,CartoonStims/cowboy_point_boxer_r_no.jpg,audio/pikutomamukudoki.mp3,,,,,,,,,,,,,,,,,,,,,,,,,,,,,,,,,,,,,,,,,,,,,,,,,,,,,,,,,,,,,,,,,,,,,
,,,,,,,,,R_UELmwDVCu5ZVU77,2022-09-01_19h46.39.429,jpn_C02,2022.1.2,Win32,20.00920423,,,space,1.0657,0,39,39,7,1,ピク　セル　ムク　ドキ,,,CartoonStims/cowboy_kick_boxer_r_no.jpg,audio/pikuserumukudoki.mp3,,,,,,,,,,,,,,,,,,,,,,,,,,,,,,,,,,,,,,,,,,,,,,,,,,,,,,,,,,,,,,,,,,,,,
,,,,,,,,,R_UELmwDVCu5ZVU77,2022-09-01_19h46.39.429,jpn_C02,2022.1.2,Win32,20.00920423,,,space,1.3253,0,40,40,33,1,ピク　パツ　ピポ　ホレト,,,CartoonStims/doctor_shoot_chef_r_no.jpg,audio/pikupatsupipohoreto.mp3,,,,,,,,,,,,,,,,,,,,,,,,,,,,,,,,,,,,,,,,,,,,,,,,,,,,,,,,,,,,,,,,,,,,,
,,,,,,,,,R_UELmwDVCu5ZVU77,2022-09-01_19h46.39.429,jpn_C02,2022.1.2,Win32,20.00920423,,,space,2.1243,0,41,41,16,1,ピク　トマ　ホレト　ピポ,,,CartoonStims/chef_point_doctor_r_no.jpg,audio/pikutomahoretopipo.mp3,,,,,,,,,,,,,,,,,,,,,,,,,,,,,,,,,,,,,,,,,,,,,,,,,,,,,,,,,,,,,,,,,,,,,
,,,,,,,,,R_UELmwDVCu5ZVU77,2022-09-01_19h46.39.429,jpn_C02,2022.1.2,Win32,20.00920423,,,space,2.8124,0,42,42,15,1,トマ　ピク　ルピン　ピポ,,,CartoonStims/burglar_point_doctor_r_no.jpg,audio/tomapikulupinpipo.mp3,,,,,,,,,,,,,,,,,,,,,,,,,,,,,,,,,,,,,,,,,,,,,,,,,,,,,,,,,,,,,,,,,,,,,
,,,,,,,,,R_UELmwDVCu5ZVU77,2022-09-01_19h46.39.429,jpn_C02,2022.1.2,Win32,20.00920423,,,space,10.3691,0,43,43,41,1,ピク　プミ　ホレト　ルピン,,,CartoonStims/chef_punch_burglar_r_no.jpg,audio/pikupumihoretolupin.mp3,,,,,,,,,,,,,,,,,,,,,,,,,,,,,,,,,,,,,,,,,,,,,,,,,,,,,,,,,,,,,,,,,,,,,
,,,,,,,,,R_UELmwDVCu5ZVU77,2022-09-01_19h46.39.429,jpn_C02,2022.1.2,Win32,20.00920423,,,space,7.752,0,44,44,45,1,ピク　プミ　ピポ　ムク,,,CartoonStims/doctor_punch_cowboy_r_no.jpg,audio/pikupumipipomuku.mp3,,,,,,,,,,,,,,,,,,,,,,,,,,,,,,,,,,,,,,,,,,,,,,,,,,,,,,,,,,,,,,,,,,,,,
,,,,,,,,,R_UELmwDVCu5ZVU77,2022-09-01_19h46.39.429,jpn_C02,2022.1.2,Win32,20.00920423,,,space,6.0271,0,45,45,12,1,ピク　トマ　シド　ホレト,,,CartoonStims/artist_point_chef_r_no.jpg,audio/pikutomasidohoreto.mp3,,,,,,,,,,,,,,,,,,,,,,,,,,,,,,,,,,,,,,,,,,,,,,,,,,,,,,,,,,,,,,,,,,,,,
,,,,,,,,,R_UELmwDVCu5ZVU77,2022-09-01_19h46.39.429,jpn_C02,2022.1.2,Win32,20.00920423,,,space,3.1498,0,46,46,28,1,ピク　パツ　ホレト　ドキ,,,CartoonStims/chef_shoot_boxer_r_no.jpg,audio/pikupatsuhoretodoki.mp3,,,,,,,,,,,,,,,,,,,,,,,,,,,,,,,,,,,,,,,,,,,,,,,,,,,,,,,,,,,,,,,,,,,,,
,,,,,,,,,R_UELmwDVCu5ZVU77,2022-09-01_19h46.39.429,jpn_C02,2022.1.2,Win32,20.00920423,,,space,6.5566,0,47,47,14,1,ピク　トマ　ルピン　ムク,,,CartoonStims/burglar_point_cowboy_r_no.jpg,audio/pikutomalupinmuku.mp3,,,,,,,,,,,,,,,,,,,,,,,,,,,,,,,,,,,,,,,,,,,,,,,,,,,,,,,,,,,,,,,,,,,,,
,,,,,,,,,R_UELmwDVCu5ZVU77,2022-09-01_19h46.39.429,jpn_C02,2022.1.2,Win32,20.00920423,,,,,,,,,,,,,,,space,0.5014,right,0,3.2668,,,,,,,,,,,,,,,,,,,,,,,,,,,,,,,,,,,,,,,,,,,,,,,,,,,,,,,,,0,0,0,0,1,,,
,,,,,,,,,R_UELmwDVCu5ZVU77,2022-09-01_19h46.39.429,jpn_C02,2022.1.2,Win32,20.00920423,,,,,,,,,,,,,,,,,,,,,,,,,0,0,0,6,1,CartoonStims/artist_shoot_boxer_r.jpg,ピク　トマ　シド　ドキ,CartoonStims/artist_point_boxer_r.jpg,left,CartoonStims/artist_shoot_boxer_r.jpg,audio/pikutomasidodoki.mp3,"残念！ こちらが正しい画像です。

否定文は起きていないことを示しているのを思い出してください。",,,,,,,,,,,,,,,,,,,,,,,,,,,,,,,,,,,,,,,,,,,,,,,
,,,,,,,,,R_UELmwDVCu5ZVU77,2022-09-01_19h46.39.429,jpn_C02,2022.1.2,Win32,20.00920423,,,,,,,,,,,,,,,,,right,1,18.9432,0,0,0,0,1,,,,,,,,,,,,,,,,,,,,,,,,,,,,,,,,,,,,,,,,,,,,,,,,,,,,,,,,,,,
,,,,,,,,,R_UELmwDVCu5ZVU77,2022-09-01_19h46.39.429,jpn_C02,2022.1.2,Win32,20.00920423,,,,,,,,,,,,,,,,,,,,,,,,,0,1,1,3,1,CartoonStims/chef_kick_artist_r.jpg,セル　ピク　ホレト　シド,CartoonStims/chef_point_artist_r.jpg,right,CartoonStims/chef_point_artist_r.jpg,audio/serupikuhoretosido.mp3,"残念！ こちらが正しい画像です。

否定文は起きていないことを示しているのを思い出してください。",,,,,,,,,,,,,,,,,,,,,,,,,,,,,,,,,,,,,,,,,,,,,,,
,,,,,,,,,R_UELmwDVCu5ZVU77,2022-09-01_19h46.39.429,jpn_C02,2022.1.2,Win32,20.00920423,,,,,,,,,,,,,,,,,right,1,9.2966,0,0,0,0,1,,,,,,,,,,,,,,,,,,,,,,,,,,,,,,,,,,,,,,,,,,,,,,,,,,,,,,,,,,,
,,,,,,,,,R_UELmwDVCu5ZVU77,2022-09-01_19h46.39.429,jpn_C02,2022.1.2,Win32,20.00920423,,,,,,,,,,,,,,,,,,,,,,,,,0,2,2,1,1,CartoonStims/chef_punch_cowboy_r.jpg,ピク　プミ　ホレト　ムク,CartoonStims/chef_kick_cowboy_r.jpg,right,CartoonStims/chef_kick_cowboy_r.jpg,audio/pikupumihoretomuku.mp3,"残念！ こちらが正しい画像です。

否定文は起きていないことを示しているのを思い出してください。",,,,,,,,,,,,,,,,,,,,,,,,,,,,,,,,,,,,,,,,,,,,,,,
,,,,,,,,,R_UELmwDVCu5ZVU77,2022-09-01_19h46.39.429,jpn_C02,2022.1.2,Win32,20.00920423,,,,,,,,,,,,,,,,,right,1,4.4053,0,0,0,0,1,,,,,,,,,,,,,,,,,,,,,,,,,,,,,,,,,,,,,,,,,,,,,,,,,,,,,,,,,,,
,,,,,,,,,R_UELmwDVCu5ZVU77,2022-09-01_19h46.39.429,jpn_C02,2022.1.2,Win32,20.00920423,,,,,,,,,,,,,,,,,,,,,,,,,0,3,3,5,1,CartoonStims/boxer_kick_cowboy_r.jpg,ピク　セル　ドキ　ムク,CartoonStims/boxer_punch_cowboy_r.jpg,right,CartoonStims/boxer_punch_cowboy_r.jpg,audio/pikuserudokimuku.mp3,"残念！ こちらが正しい画像です。

否定文は起きていないことを示しているのを思い出してください。",,,,,,,,,,,,,,,,,,,,,,,,,,,,,,,,,,,,,,,,,,,,,,,
,,,,,,,,,R_UELmwDVCu5ZVU77,2022-09-01_19h46.39.429,jpn_C02,2022.1.2,Win32,20.00920423,,,,,,,,,,,,,,,,,right,1,3.6916,0,0,0,0,1,,,,,,,,,,,,,,,,,,,,,,,,,,,,,,,,,,,,,,,,,,,,,,,,,,,,,,,,,,,
,,,,,,,,,R_UELmwDVCu5ZVU77,2022-09-01_19h46.39.429,jpn_C02,2022.1.2,Win32,20.00920423,,,,,,,,,,,,,,,,,,,,,,,,,0,4,4,9,1,CartoonStims/boxer_shoot_doctor_r.jpg,ピク　パツ　ドキ　ピポ,CartoonStims/boxer_point_doctor_r.jpg,right,CartoonStims/boxer_point_doctor_r.jpg,audio/pikupatsudokipipo.mp3,"残念！ こちらが正しい画像です。

否定文は起きていないことを示しているのを思い出してください。",,,,,,,,,,,,,,,,,,,,,,,,,,,,,,,,,,,,,,,,,,,,,,,
,,,,,,,,,R_UELmwDVCu5ZVU77,2022-09-01_19h46.39.429,jpn_C02,2022.1.2,Win32,20.00920423,,,,,,,,,,,,,,,,,right,1,1.2007,0,0,0,0,1,,,,,,,,,,,,,,,,,,,,,,,,,,,,,,,,,,,,,,,,,,,,,,,,,,,,,,,,,,,
,,,,,,,,,R_UELmwDVCu5ZVU77,2022-09-01_19h46.39.429,jpn_C02,2022.1.2,Win32,20.00920423,,,,,,,,,,,,,,,,,,,,,,,,,0,5,5,11,1,CartoonStims/chef_shoot_burglar_r.jpg,ピク　パツ　ホレト　ルピン,CartoonStims/chef_kick_burglar_r.jpg,right,CartoonStims/chef_kick_burglar_r.jpg,audio/pikupatsuhoretolupin.mp3,"残念！ こちらが正しい画像です。

否定文は起きていないことを示しているのを思い出してください。",,,,,,,,,,,,,,,,,,,,,,,,,,,,,,,,,,,,,,,,,,,,,,,
,,,,,,,,,R_UELmwDVCu5ZVU77,2022-09-01_19h46.39.429,jpn_C02,2022.1.2,Win32,20.00920423,,,,,,,,,,,,,,,,,right,1,1.7756,0,0,0,0,1,,,,,,,,,,,,,,,,,,,,,,,,,,,,,,,,,,,,,,,,,,,,,,,,,,,,,,,,,,,
,,,,,,,,,R_UELmwDVCu5ZVU77,2022-09-01_19h46.39.429,jpn_C02,2022.1.2,Win32,20.00920423,,,,,,,,,,,,,,,,,,,,,,,,,0,6,6,7,1,CartoonStims/cowboy_point_chef_r.jpg,トマ　ピク　ムク　ホレト,CartoonStims/cowboy_kick_chef_r.jpg,right,CartoonStims/cowboy_kick_chef_r.jpg,audio/tomapikumukuhoreto.mp3,"残念！ こちらが正しい画像です。

否定文は起きていないことを示しているのを思い出してください。",,,,,,,,,,,,,,,,,,,,,,,,,,,,,,,,,,,,,,,,,,,,,,,
,,,,,,,,,R_UELmwDVCu5ZVU77,2022-09-01_19h46.39.429,jpn_C02,2022.1.2,Win32,20.00920423,,,,,,,,,,,,,,,,,left,1,1.4014,,,,,,,,,,,,,,,,,,0,0,0,0,1,,,,,,,,,,,,,,,,,,,,,,,,,,,,,,,,,,,,,,,,,,
,,,,,,,,,R_UELmwDVCu5ZVU77,2022-09-01_19h46.39.429,jpn_C02,2022.1.2,Win32,20.00920423,,,,,,,,,,,,,,,,,,,,,,,,,0,7,7,4,1,CartoonStims/burglar_shoot_doctor_r.jpg,ピク　セル　ルピン　ピポ,CartoonStims/burglar_kick_doctor_r.jpg,left,CartoonStims/burglar_shoot_doctor_r.jpg,audio/pikuserulupinpipo.mp3,"残念！ こちらが正しい画像です。

否定文は起きていないことを示しているのを思い出してください。",,,,,,,,,,,,,,,,,,,,,,,,,,,,,,,,,,,,,,,,,,,,,,,
,,,,,,,,,R_UELmwDVCu5ZVU77,2022-09-01_19h46.39.429,jpn_C02,2022.1.2,Win32,20.00920423,,,,,,,,,,,,,,,,,left,1,3.0853,,,,,,,,,,,,,,,,,,0,0,0,0,1,,,,,,,,,,,,,,,,,,,,,,,,,,,,,,,,,,,,,,,,,,
,,,,,,,,,R_UELmwDVCu5ZVU77,2022-09-01_19h46.39.429,jpn_C02,2022.1.2,Win32,20.00920423,,,,,,,,,,,,,,,,,,,,,,,,,0,8,8,8,1,CartoonStims/burglar_punch_artist_r.jpg,ピク　トマ　ルピン　シド,CartoonStims/burglar_point_artist_r.jpg,left,CartoonStims/burglar_punch_artist_r.jpg,audio/pikutomalupinsido.mp3,"残念！ こちらが正しい画像です。

否定文は起きていないことを示しているのを思い出してください。",,,,,,,,,,,,,,,,,,,,,,,,,,,,,,,,,,,,,,,,,,,,,,,
,,,,,,,,,R_UELmwDVCu5ZVU77,2022-09-01_19h46.39.429,jpn_C02,2022.1.2,Win32,20.00920423,,,,,,,,,,,,,,,,,left,1,10.2896,,,,,,,,,,,,,,,,,,0,0,0,0,1,,,,,,,,,,,,,,,,,,,,,,,,,,,,,,,,,,,,,,,,,,
,,,,,,,,,R_UELmwDVCu5ZVU77,2022-09-01_19h46.39.429,jpn_C02,2022.1.2,Win32,20.00920423,,,,,,,,,,,,,,,,,,,,,,,,,0,9,9,0,1,CartoonStims/artist_shoot_burglar_r.jpg,プミ　ピク　シド　ルピン,CartoonStims/artist_punch_burglar_r.jpg,left,CartoonStims/artist_shoot_burglar_r.jpg,audio/pumipikusidolupin.mp3,"残念！ こちらが正しい画像です。

否定文は起きていないことを示しているのを思い出してください。",,,,,,,,,,,,,,,,,,,,,,,,,,,,,,,,,,,,,,,,,,,,,,,
,,,,,,,,,R_UELmwDVCu5ZVU77,2022-09-01_19h46.39.429,jpn_C02,2022.1.2,Win32,20.00920423,,,,,,,,,,,,,,,,,left,1,7.3516,,,,,,,,,,,,,,,,,,0,0,0,0,1,,,,,,,,,,,,,,,,,,,,,,,,,,,,,,,,,,,,,,,,,,
,,,,,,,,,R_UELmwDVCu5ZVU77,2022-09-01_19h46.39.429,jpn_C02,2022.1.2,Win32,20.00920423,,,,,,,,,,,,,,,,,,,,,,,,,0,10,10,10,1,CartoonStims/doctor_punch_cowboy_r.jpg,パツ　ピク　ピポ　ムク,CartoonStims/doctor_shoot_cowboy_r.jpg,left,CartoonStims/doctor_punch_cowboy_r.jpg,audio/patsupikupipomuku.mp3,"残念！ こちらが正しい画像です。

否定文は起きていないことを示しているのを思い出してください。",,,,,,,,,,,,,,,,,,,,,,,,,,,,,,,,,,,,,,,,,,,,,,,
,,,,,,,,,R_UELmwDVCu5ZVU77,2022-09-01_19h46.39.429,jpn_C02,2022.1.2,Win32,20.00920423,,,,,,,,,,,,,,,,,left,1,7.2183,,,,,,,,,,,,,,,,,,0,0,0,0,1,,,,,,,,,,,,,,,,,,,,,,,,,,,,,,,,,,,,,,,,,,
,,,,,,,,,R_UELmwDVCu5ZVU77,2022-09-01_19h46.39.429,jpn_C02,2022.1.2,Win32,20.00920423,,,,,,,,,,,,,,,,,,,,,,,,,0,11,11,2,1,CartoonStims/doctor_point_boxer_r.jpg,ピク　プミ　ピポ　ドキ,CartoonStims/doctor_punch_boxer_r.jpg,left,CartoonStims/doctor_point_boxer_r.jpg,audio/pikupumipipodoki.mp3,"残念！ こちらが正しい画像です。

否定文は起きていないことを示しているのを思い出してください。",,,,,,,,,,,,,,,,,,,,,,,,,,,,,,,,,,,,,,,,,,,,,,,
,,,,,,,,,R_UELmwDVCu5ZVU77,2022-09-01_19h46.39.429,jpn_C02,2022.1.2,Win32,20.00920423,,,,,,,,,,,,,CartoonStims/chef_punch_boxer_r_no.jpg,,,,,,,,,,,,,,,,,,,,,,,,,,,,,space,3.7368,ピク　プミ　ホレト　ドキ,right,18.0334,,,,,,0,0,0,20,1,,,,,,,,,,,,,,,,,,,,,,,,,ピク　プミ　ホレト　ドキ,プミ　ピク　ホレト　ドキ,1
,,,,,,,,,R_UELmwDVCu5ZVU77,2022-09-01_19h46.39.429,jpn_C02,2022.1.2,Win32,20.00920423,,,,,,,,,,,,,CartoonStims/artist_point_burglar_r_no.jpg,,,,,,,,,,,,,,,,,,,,,,,,,,,,,,,ピク　トマ　シド　ルピン,right,16.0523,,,,,,0,1,1,6,1,,,,,,,,,,,,,,,,,,,,,,,,,ピク　トマ　シド　ルピン,トマ　ピク　シド　ルピン,1
,,,,,,,,,R_UELmwDVCu5ZVU77,2022-09-01_19h46.39.429,jpn_C02,2022.1.2,Win32,20.00920423,,,,,,,,,,,,,CartoonStims/cowboy_shoot_boxer_r_no.jpg,,,,,,,,,,,,,,,,,,,,,,,,,,,,,,,,right,0.1462,,,,,,0,2,2,15,1,,,,,,,,,,,,,,,,,,,,,,,,,ピク　パツ　ムク　ドキ,パツ　ピク　ムク　ドキ,1
,,,,,,,,,R_UELmwDVCu5ZVU77,2022-09-01_19h46.39.429,jpn_C02,2022.1.2,Win32,20.00920423,,,,,,,,,,,,,CartoonStims/burglar_point_artist_r.jpg,,,,,,,,,,,,,,,,,,,,,,,,,,,,,,,,right,0.0512,,,,,,0,3,3,28,1,,,,,,,,,,,,,,,,,,,,,,,,,トマ　ルピン　シド,トマ　ルピン　シド,0
,,,,,,,,,R_UELmwDVCu5ZVU77,2022-09-01_19h46.39.429,jpn_C02,2022.1.2,Win32,20.00920423,,,,,,,,,,,,,CartoonStims/burglar_punch_doctor_r_no.jpg,,,,,,,,,,,,,,,,,,,,,,,,,,,,,,,ピク　プミ　ルピン　ピポ,right,27.7501,,,,,,0,4,4,19,1,,,,,,,,,,,,,,,,,,,,,,,,,ピク　プミ　ルピン　ピポ,プミ　ピク　ルピン　ピポ,1
,,,,,,,,,R_UELmwDVCu5ZVU77,2022-09-01_19h46.39.429,jpn_C02,2022.1.2,Win32,20.00920423,,,,,,,,,,,,,CartoonStims/boxer_punch_chef_r_no.jpg,,,,,,,,,,,,,,,,,,,,,,,,,,,,,,,ピク　プミ　ドキ,right,9.8265,,,,,,0,5,5,23,1,,,,,,,,,,,,,,,,,,,,,,,,,ピク　プミ　ドキ　ホレト,プミ　ピク　ドキ　ホレト,1
,,,,,,,,,R_UELmwDVCu5ZVU77,2022-09-01_19h46.39.429,jpn_C02,2022.1.2,Win32,20.00920423,,,,,,,,,,,,,CartoonStims/boxer_kick_cowboy_r.jpg,,,,,,,,,,,,,,,,,,,,,,,,,,,,,,,ピク　セル　ドキ　ムク,right,12.5938,,,,,,0,6,6,26,1,,,,,,,,,,,,,,,,,,,,,,,,,セル　ドキ　ムク,セル　ドキ　ムク,0
,,,,,,,,,R_UELmwDVCu5ZVU77,2022-09-01_19h46.39.429,jpn_C02,2022.1.2,Win32,20.00920423,,,,,,,,,,,,,CartoonStims/cowboy_kick_chef_r_no.jpg,,,,,,,,,,,,,,,,,,,,,,,,,,,,,,,ピク　セル　ムク　ホレト,right,14.4329,,,,,,0,7,7,3,1,,,,,,,,,,,,,,,,,,,,,,,,,ピク　セル　ムク　ホレト,セル　ピク　ムク　ホレト,1
,,,,,,,,,R_UELmwDVCu5ZVU77,2022-09-01_19h46.39.429,jpn_C02,2022.1.2,Win32,20.00920423,,,,,,,,,,,,,CartoonStims/doctor_shoot_artist_r_no.jpg,,,,,,,,,,,,,,,,,,,,,,,,,,,,,,,ピク　パツ　ピポ　シド,right,15.3844,,,,,,0,8,8,16,1,,,,,,,,,,,,,,,,,,,,,,,,,ピク　パツ　ピポ　シド,パツ　ピク　ピポ　シド,1
,,,,,,,,,R_UELmwDVCu5ZVU77,2022-09-01_19h46.39.429,jpn_C02,2022.1.2,Win32,20.00920423,,,,,,,,,,,,,CartoonStims/boxer_kick_doctor_r_no.jpg,,,,,,,,,,,,,,,,,,,,,,,,,,,,,,,ピク　セル　ドキ　ピポ,right,16.527,,,,,,0,9,9,5,1,,,,,,,,,,,,,,,,,,,,,,,,,ピク　セル　ドキ　ピポ,セル　ピク　ドキ　ピポ,1
,,,,,,,,,R_UELmwDVCu5ZVU77,2022-09-01_19h46.39.429,jpn_C02,2022.1.2,Win32,20.00920423,,,,,,,,,,,,,CartoonStims/doctor_kick_cowboy_r_no.jpg,,,,,,,,,,,,,,,,,,,,,,,,,,,,,,,ピク　セル　ピポ　ホレト,right,11.1073,,,,,,0,10,10,4,1,,,,,,,,,,,,,,,,,,,,,,,,,ピク　セル　ピポ　ムク,セル　ピク　ピポ　ムク,1
,,,,,,,,,R_UELmwDVCu5ZVU77,2022-09-01_19h46.39.429,jpn_C02,2022.1.2,Win32,20.00920423,,,,,,,,,,,,,CartoonStims/burglar_kick_artist_r_no.jpg,,,,,,,,,,,,,,,,,,,,,,,,,,,,,,,ピク　セル　ルピン　シド,right,12.5086,,,,,,0,11,11,1,1,,,,,,,,,,,,,,,,,,,,,,,,,ピク　セル　ルピン　シド,セル　ピク　ルピン　シド,1
,,,,,,,,,R_UELmwDVCu5ZVU77,2022-09-01_19h46.39.429,jpn_C02,2022.1.2,Win32,20.00920423,,,,,,,,,,,,,CartoonStims/boxer_point_artist_r_no.jpg,,,,,,,,,,,,,,,,,,,,,,,,,,,,,,,ピク　トマ　ドキ　シド,right,9.7489,,,,,,0,12,12,11,1,,,,,,,,,,,,,,,,,,,,,,,,,ピク　トマ　ドキ　シド,トマ　ピク　ドキ　シド,1
,,,,,,,,,R_UELmwDVCu5ZVU77,2022-09-01_19h46.39.429,jpn_C02,2022.1.2,Win32,20.00920423,,,,,,,,,,,,,CartoonStims/cowboy_punch_artist_r_no.jpg,,,,,,,,,,,,,,,,,,,,,,,,,,,,,,,ピク　プミ　ムク　シド,right,10.6076,,,,,,0,13,13,21,1,,,,,,,,,,,,,,,,,,,,,,,,,ピク　プミ　ムク　シド,プミ　ピク　ムク　シド,1
,,,,,,,,,R_UELmwDVCu5ZVU77,2022-09-01_19h46.39.429,jpn_C02,2022.1.2,Win32,20.00920423,,,,,,,,,,,,,CartoonStims/chef_shoot_doctor_r_no.jpg,,,,,,,,,,,,,,,,,,,,,,,,,,,,,,,ピク　パツ　ホレト　ピポ,right,12.163,,,,,,0,14,14,14,1,,,,,,,,,,,,,,,,,,,,,,,,,ピク　パツ　ホレト　ピポ,パツ　ピク　ホレト　ピポ,1
,,,,,,,,,R_UELmwDVCu5ZVU77,2022-09-01_19h46.39.429,jpn_C02,2022.1.2,Win32,20.00920423,,,,,,,,,,,,,CartoonStims/burglar_point_chef_r_no.jpg,,,,,,,,,,,,,,,,,,,,,,,,,,,,,,,ピク　トマ　ルピン　ホレト,right,11.0274,,,,,,0,15,15,7,1,,,,,,,,,,,,,,,,,,,,,,,,,ピク　トマ　ルピン　ホレト,トマ　ピク　ルピン　ホレト,1
,,,,,,,,,R_UELmwDVCu5ZVU77,2022-09-01_19h46.39.429,jpn_C02,2022.1.2,Win32,20.00920423,,,,,,,,,,,,,CartoonStims/chef_shoot_cowboy_r.jpg,,,,,,,,,,,,,,,,,,,,,,,,,,,,,,,パツ　ホレト　ムク,right,9.7844,,,,,,0,16,16,31,1,,,,,,,,,,,,,,,,,,,,,,,,,パツ　ホレト　ムク,パツ　ホレト　ムク,0
,,,,,,,,,R_UELmwDVCu5ZVU77,2022-09-01_19h46.39.429,jpn_C02,2022.1.2,Win32,20.00920423,,,,,,,,,,,,,CartoonStims/boxer_shoot_burglar_r_no.jpg,,,,,,,,,,,,,,,,,,,,,,,,,,,,,,,ピク　パツ　ドキ　ルピン,right,10.2005,,,,,,0,17,17,17,1,,,,,,,,,,,,,,,,,,,,,,,,,ピク　パツ　ドキ　ルピン,パツ　ピク　ドキ　ルピン,1
,,,,,,,,,R_UELmwDVCu5ZVU77,2022-09-01_19h46.39.429,jpn_C02,2022.1.2,Win32,20.00920423,,,,,,,,,,,,,CartoonStims/artist_punch_burglar_r.jpg,,,,,,,,,,,,,,,,,,,,,,,,,,,,,,,プミ　ホレト　ルピン,right,8.8272,,,,,,0,18,18,33,1,,,,,,,,,,,,,,,,,,,,,,,,,プミ　シド　ルピン,プミ　シド　ルピン,0
,,,,,,,,,R_UELmwDVCu5ZVU77,2022-09-01_19h46.39.429,jpn_C02,2022.1.2,Win32,20.00920423,,,,,,,,,,,,,CartoonStims/artist_shoot_chef_r_no.jpg,,,,,,,,,,,,,,,,,,,,,,,,,,,,,,,ピク　パツ　シド　ホレト,right,10.7398,,,,,,0,19,19,12,1,,,,,,,,,,,,,,,,,,,,,,,,,ピク　パツ　シド　ホレト,パツ　ピク　シド　ホレト,1
,,,,,,,,,R_UELmwDVCu5ZVU77,2022-09-01_19h46.39.429,jpn_C02,2022.1.2,Win32,20.00920423,,,,,,,,,,,,,CartoonStims/chef_kick_burglar_r_no.jpg,,,,,,,,,,,,,,,,,,,,,,,,,,,,,,,ピク　セル　ホレト　ルピン,right,8.8055,,,,,,0,20,20,2,1,,,,,,,,,,,,,,,,,,,,,,,,,ピク　セル　ホレト　ルピン,セル　ピク　ホレト　ルピン,1
,,,,,,,,,R_UELmwDVCu5ZVU77,2022-09-01_19h46.39.429,jpn_C02,2022.1.2,Win32,20.00920423,,,,,,,,,,,,,CartoonStims/cowboy_kick_burglar_r.jpg,,,,,,,,,,,,,,,,,,,,,,,,,,,,,,,セル　ムク　ルピン,right,7.7028,,,,,,0,21,21,24,1,,,,,,,,,,,,,,,,,,,,,,,,,セル　ムク　ルピン,セル　ムク　ルピン,0
,,,,,,,,,R_UELmwDVCu5ZVU77,2022-09-01_19h46.39.429,jpn_C02,2022.1.2,Win32,20.00920423,,,,,,,,,,,,,CartoonStims/chef_point_cowboy_r_no.jpg,,,,,,,,,,,,,,,,,,,,,,,,,,,,,,,,right,0.1675,,,,,,0,22,22,8,1,,,,,,,,,,,,,,,,,,,,,,,,,ピク　トマ　ホレト　ムク,トマ　ピク　ホレト　ムク,1
,,,,,,,,,R_UELmwDVCu5ZVU77,2022-09-01_19h46.39.429,jpn_C02,2022.1.2,Win32,20.00920423,,,,,,,,,,,,,CartoonStims/artist_punch_cowboy_r_no.jpg,,,,,,,,,,,,,,,,,,,,,,,,,,,,,,,ピク　プミ　シド　ムク,right,15.1285,,,,,,0,23,23,18,1,,,,,,,,,,,,,,,,,,,,,,,,,ピク　プミ　シド　ムク,プミ　ピク　シド　ムク,1
,,,,,,,,,R_UELmwDVCu5ZVU77,2022-09-01_19h46.39.429,jpn_C02,2022.1.2,Win32,20.00920423,,,,,,,,,,,,,CartoonStims/artist_kick_boxer_r_no.jpg,,,,,,,,,,,,,,,,,,,,,,,,,,,,,,,ピク　セル　シド　ドキ,right,14.8308,,,,,,0,24,24,0,1,,,,,,,,,,,,,,,,,,,,,,,,,ピク　セル　シド　ドキ,セル　ピク　シド　ドキ,1
,,,,,,,,,R_UELmwDVCu5ZVU77,2022-09-01_19h46.39.429,jpn_C02,2022.1.2,Win32,20.00920423,,,,,,,,,,,,,CartoonStims/chef_point_burglar_r.jpg,,,,,,,,,,,,,,,,,,,,,,,,,,,,,,,トマ　ホレト　ルピン,right,10.9366,,,,,,0,25,25,29,1,,,,,,,,,,,,,,,,,,,,,,,,,トマ　ホレト　ルピン,トマ　ホレト　ルピン,0
,,,,,,,,,R_UELmwDVCu5ZVU77,2022-09-01_19h46.39.429,jpn_C02,2022.1.2,Win32,20.00920423,,,,,,,,,,,,,CartoonStims/doctor_punch_burglar_r_no.jpg,,,,,,,,,,,,,,,,,,,,,,,,,,,,,,,ピク　プミ　ピポ　ルピン,right,15.3597,,,,,,0,26,26,22,1,,,,,,,,,,,,,,,,,,,,,,,,,ピク　プミ　ピポ　ルピン,プミ　ピク　ピポ　ルピン,1
,,,,,,,,,R_UELmwDVCu5ZVU77,2022-09-01_19h46.39.429,jpn_C02,2022.1.2,Win32,20.00920423,,,,,,,,,,,,,CartoonStims/burglar_shoot_chef_r.jpg,,,,,,,,,,,,,,,,,,,,,,,,,,,,,,,パツ　ルピン　ホレト,right,8.1504,,,,,,0,27,27,30,1,,,,,,,,,,,,,,,,,,,,,,,,,パツ　ルピン　ホレト,パツ　ルピン　ホレト,0
,,,,,,,,,R_UELmwDVCu5ZVU77,2022-09-01_19h46.39.429,jpn_C02,2022.1.2,Win32,20.00920423,,,,,,,,,,,,,CartoonStims/doctor_point_boxer_r_no.jpg,,,,,,,,,,,,,,,,,,,,,,,,,,,,,,,ピク　トマ　ピポ　ドキ,right,7.8507,,,,,,0,28,28,10,1,,,,,,,,,,,,,,,,,,,,,,,,,ピク　トマ　ピポ　ドキ,トマ　ピク　ピポ　ドキ,1
,,,,,,,,,R_UELmwDVCu5ZVU77,2022-09-01_19h46.39.429,jpn_C02,2022.1.2,Win32,20.00920423,,,,,,,,,,,,,CartoonStims/artist_point_boxer_r.jpg,,,,,,,,,,,,,,,,,,,,,,,,,,,,,,,トマ　シド　ドキ,right,7.1119,,,,,,0,29,29,27,1,,,,,,,,,,,,,,,,,,,,,,,,,トマ　シド　ドキ,トマ　シド　ドキ,0
,,,,,,,,,R_UELmwDVCu5ZVU77,2022-09-01_19h46.39.429,jpn_C02,2022.1.2,Win32,20.00920423,,,,,,,,,,,,,CartoonStims/doctor_kick_chef_r.jpg,,,,,,,,,,,,,,,,,,,,,,,,,,,,,,,セル　ピポ　ホレト,right,9.0923,,,,,,0,30,30,25,1,,,,,,,,,,,,,,,,,,,,,,,,,セル　ピポ　ホレト,セル　ピポ　ホレト,0
,,,,,,,,,R_UELmwDVCu5ZVU77,2022-09-01_19h46.39.429,jpn_C02,2022.1.2,Win32,20.00920423,,,,,,,,,,,,,CartoonStims/cowboy_point_doctor_r_no.jpg,,,,,,,,,,,,,,,,,,,,,,,,,,,,,,,ピク　トマ　ムク　ピポ,right,10.9578,,,,,,0,31,31,9,1,,,,,,,,,,,,,,,,,,,,,,,,,ピク　トマ　ムク　ピポ,トマ　ピク　ムク　ピポ,1
,,,,,,,,,R_UELmwDVCu5ZVU77,2022-09-01_19h46.39.429,jpn_C02,2022.1.2,Win32,20.00920423,,,,,,,,,,,,,CartoonStims/boxer_punch_artist_r.jpg,,,,,,,,,,,,,,,,,,,,,,,,,,,,,,,プミ　ドキ　シド,right,14.3562,,,,,,0,32,32,35,1,,,,,,,,,,,,,,,,,,,,,,,,,プミ　ドキ　シド,プミ　ドキ　シド,0
,,,,,,,,,R_UELmwDVCu5ZVU77,2022-09-01_19h46.39.429,jpn_C02,2022.1.2,Win32,20.00920423,,,,,,,,,,,,,CartoonStims/cowboy_shoot_doctor_r.jpg,,,,,,,,,,,,,,,,,,,,,,,,,,,,,,,パツ　ムク　ピポ,right,11.5697,,,,,,0,33,33,32,1,,,,,,,,,,,,,,,,,,,,,,,,,パツ　ムク　ピポ,パツ　ムク　ピポ,0
,,,,,,,,,R_UELmwDVCu5ZVU77,2022-09-01_19h46.39.429,jpn_C02,2022.1.2,Win32,20.00920423,,,,,,,,,,,,,CartoonStims/burglar_shoot_cowboy_r_no.jpg,,,,,,,,,,,,,,,,,,,,,,,,,,,,,,,ピク　パツ　ルピン　ムク,right,17.2858,,,,,,0,34,34,13,1,,,,,,,,,,,,,,,,,,,,,,,,,ピク　パツ　ルピン　ムク,パツ　ピク　ルピン　ムク,1
,,,,,,,,,R_UELmwDVCu5ZVU77,2022-09-01_19h46.39.429,jpn_C02,2022.1.2,Win32,20.00920423,,,,,,,,,,,,,CartoonStims/doctor_punch_boxer_r.jpg,,,,,,,,,,,,,,,,,,,,,,,,,,,,,,,プミ　ピポ　ドキ,right,9.7964,,,,,,0,35,35,34,1,,,,,,,,,,,,,,,,,,,,,,,,,プミ　ピポ　ドキ,プミ　ピポ　ドキ,0
,,,,,,,,,R_UELmwDVCu5ZVU77,2022-09-01_19h46.39.429,jpn_C02,2022.1.2,Win32,20.00920423,,,,,,,,,,,,,,,,,,,,,,,,,,,,,,,,,,,,,,,,,,,,,,,,,,,,,,,,,,,space,0.5363,0,2,2,2,1,NegVCondition.xlsx,"ここではこの言語における否定の文を学習していただきます。引き続き注意して、 聞こえた音を復唱してください。

スペースキーを押してください。",1,NegVFCT.xlsx,ここからクイズが始まります。 スクリーンに表示されるテキストに合うイメージを選んでください。,NegTest.xlsx,1,最後にここまで学んだことをアウトプットしていただきます。 テキストボックスにあるイメージを描写するテキストを入力してください。 このタスクでは、 答え合わせは行いません。,0,これですべての実験が終わりました。 お疲れさまです。 この後はアンケートに答えていただきます。,,,,,,,,