key_resp_instr_a.keys,key_resp_instr_a.rt,key_resp_instr_b.keys,key_resp_instr_b.rt,dummy.thisRepN,dummy.thisTrialN,dummy.thisN,dummy.thisIndex,dummy.ran,participant,date,expName,psychopyVersion,OS,frameRate,key_resp_instr1.keys,key_resp_instr1.rt,key_resp.keys,key_resp.rt,exp_loop.thisRepN,exp_loop.thisTrialN,exp_loop.thisN,exp_loop.thisIndex,exp_loop.ran,Word,English,Flip,Path,Audio,key_resp_instr2.keys,key_resp_instr2.rt,key_resp_fct.keys,key_resp_fct.corr,key_resp_fct.rt,trials.thisRepN,trials.thisTrialN,trials.thisN,trials.thisIndex,trials.ran,fct_loop.thisRepN,fct_loop.thisTrialN,fct_loop.thisN,fct_loop.thisIndex,fct_loop.ran,left_img,word,right_img,correctans,correct_img,audio,incorrect_feedback,trials_2.thisRepN,trials_2.thisTrialN,trials_2.thisN,trials_2.thisIndex,trials_2.ran,key_resp_instr3.keys,key_resp_instr3.rt,textbox.text,key_resp_2.keys,key_resp_2.rt,fb_yn.thisRepN,fb_yn.thisTrialN,fb_yn.thisN,fb_yn.thisIndex,fb_yn.ran,gather_loop.thisRepN,gather_loop.thisTrialN,gather_loop.thisN,gather_loop.thisIndex,gather_loop.ran,Text,Wordbank,key_resp_instr4.keys,key_resp_instr4.rt,master_loop.thisRepN,master_loop.thisTrialN,master_loop.thisN,master_loop.thisIndex,master_loop.ran,exposure_file,instr_1,exp_reps,fct_file,instr_2,gather_file,gather_reps,instr_3,fReps,instr_4,NegVSentence,VNegSentence,NegTF
space,2.6208,space,9.7073,0,0,0,0,1,R_2YAoSy7VJV3YAYv,2022-06-24_23h24.19.600,jpn_C01,2022.1.2,Linux x86_64,60.0024001,,,,,,,,,,,,,,,,,,,,,,,,,,,,,,,,,,,,,,,,,,,,,,,,,,,,,,,,,,,,,,,,,,,,,,,,,,,,,,
,,,,,,,,,R_2YAoSy7VJV3YAYv,2022-06-24_23h24.19.600,jpn_C01,2022.1.2,Linux x86_64,60.0024001,space,8.9338,space,4.5837,0,0,0,2,1,ホレト,chef,,CartoonStims/chef_r.jpg,audio/horeto.mp3,,,,,,,,,,,,,,,,,,,,,,,,,,,,,,,,,,,,,,,,,,,,,,,,,,,,,,,,,,,,,,,,
,,,,,,,,,R_2YAoSy7VJV3YAYv,2022-06-24_23h24.19.600,jpn_C01,2022.1.2,Linux x86_64,60.0024001,,,space,3.0504,0,1,1,3,1,ムク,cowboy,,CartoonStims/cowboy_r.jpg,audio/muku.mp3,,,,,,,,,,,,,,,,,,,,,,,,,,,,,,,,,,,,,,,,,,,,,,,,,,,,,,,,,,,,,,,,
,,,,,,,,,R_2YAoSy7VJV3YAYv,2022-06-24_23h24.19.600,jpn_C01,2022.1.2,Linux x86_64,60.0024001,,,space,3.3039,0,2,2,5,1,ドキ,boxer,,CartoonStims/boxer_r.jpg,audio/doki.mp3,,,,,,,,,,,,,,,,,,,,,,,,,,,,,,,,,,,,,,,,,,,,,,,,,,,,,,,,,,,,,,,,
,,,,,,,,,R_2YAoSy7VJV3YAYv,2022-06-24_23h24.19.600,jpn_C01,2022.1.2,Linux x86_64,60.0024001,,,space,3.5675,0,3,3,1,1,ルピン,burglar,,CartoonStims/burglar_r.jpg,audio/lupin.mp3,,,,,,,,,,,,,,,,,,,,,,,,,,,,,,,,,,,,,,,,,,,,,,,,,,,,,,,,,,,,,,,,
,,,,,,,,,R_2YAoSy7VJV3YAYv,2022-06-24_23h24.19.600,jpn_C01,2022.1.2,Linux x86_64,60.0024001,,,space,4.3339,0,4,4,4,1,ピポ,doctor,,CartoonStims/doctor_r.jpg,audio/pipo.mp3,,,,,,,,,,,,,,,,,,,,,,,,,,,,,,,,,,,,,,,,,,,,,,,,,,,,,,,,,,,,,,,,
,,,,,,,,,R_2YAoSy7VJV3YAYv,2022-06-24_23h24.19.600,jpn_C01,2022.1.2,Linux x86_64,60.0024001,,,space,3.5679,0,5,5,0,1,シド,artist,,CartoonStims/artist_r.jpg,audio/sido.mp3,,,,,,,,,,,,,,,,,,,,,,,,,,,,,,,,,,,,,,,,,,,,,,,,,,,,,,,,,,,,,,,,
,,,,,,,,,R_2YAoSy7VJV3YAYv,2022-06-24_23h24.19.600,jpn_C01,2022.1.2,Linux x86_64,60.0024001,,,space,2.8853,1,0,6,3,1,ムク,cowboy,,CartoonStims/cowboy_r.jpg,audio/muku.mp3,,,,,,,,,,,,,,,,,,,,,,,,,,,,,,,,,,,,,,,,,,,,,,,,,,,,,,,,,,,,,,,,
,,,,,,,,,R_2YAoSy7VJV3YAYv,2022-06-24_23h24.19.600,jpn_C01,2022.1.2,Linux x86_64,60.0024001,,,space,2.4447,1,1,7,4,1,ピポ,doctor,,CartoonStims/doctor_r.jpg,audio/pipo.mp3,,,,,,,,,,,,,,,,,,,,,,,,,,,,,,,,,,,,,,,,,,,,,,,,,,,,,,,,,,,,,,,,
,,,,,,,,,R_2YAoSy7VJV3YAYv,2022-06-24_23h24.19.600,jpn_C01,2022.1.2,Linux x86_64,60.0024001,,,space,1.9719,1,2,8,5,1,ドキ,boxer,,CartoonStims/boxer_r.jpg,audio/doki.mp3,,,,,,,,,,,,,,,,,,,,,,,,,,,,,,,,,,,,,,,,,,,,,,,,,,,,,,,,,,,,,,,,
,,,,,,,,,R_2YAoSy7VJV3YAYv,2022-06-24_23h24.19.600,jpn_C01,2022.1.2,Linux x86_64,60.0024001,,,space,2.6075,1,3,9,2,1,ホレト,chef,,CartoonStims/chef_r.jpg,audio/horeto.mp3,,,,,,,,,,,,,,,,,,,,,,,,,,,,,,,,,,,,,,,,,,,,,,,,,,,,,,,,,,,,,,,,
,,,,,,,,,R_2YAoSy7VJV3YAYv,2022-06-24_23h24.19.600,jpn_C01,2022.1.2,Linux x86_64,60.0024001,,,space,1.7842,1,4,10,0,1,シド,artist,,CartoonStims/artist_r.jpg,audio/sido.mp3,,,,,,,,,,,,,,,,,,,,,,,,,,,,,,,,,,,,,,,,,,,,,,,,,,,,,,,,,,,,,,,,
,,,,,,,,,R_2YAoSy7VJV3YAYv,2022-06-24_23h24.19.600,jpn_C01,2022.1.2,Linux x86_64,60.0024001,,,space,1.7618,1,5,11,1,1,ルピン,burglar,,CartoonStims/burglar_r.jpg,audio/lupin.mp3,,,,,,,,,,,,,,,,,,,,,,,,,,,,,,,,,,,,,,,,,,,,,,,,,,,,,,,,,,,,,,,,
,,,,,,,,,R_2YAoSy7VJV3YAYv,2022-06-24_23h24.19.600,jpn_C01,2022.1.2,Linux x86_64,60.0024001,,,space,1.7736,2,0,12,1,1,ルピン,burglar,,CartoonStims/burglar_r.jpg,audio/lupin.mp3,,,,,,,,,,,,,,,,,,,,,,,,,,,,,,,,,,,,,,,,,,,,,,,,,,,,,,,,,,,,,,,,
,,,,,,,,,R_2YAoSy7VJV3YAYv,2022-06-24_23h24.19.600,jpn_C01,2022.1.2,Linux x86_64,60.0024001,,,space,1.6835,2,1,13,3,1,ムク,cowboy,,CartoonStims/cowboy_r.jpg,audio/muku.mp3,,,,,,,,,,,,,,,,,,,,,,,,,,,,,,,,,,,,,,,,,,,,,,,,,,,,,,,,,,,,,,,,
,,,,,,,,,R_2YAoSy7VJV3YAYv,2022-06-24_23h24.19.600,jpn_C01,2022.1.2,Linux x86_64,60.0024001,,,space,1.5504,2,2,14,5,1,ドキ,boxer,,CartoonStims/boxer_r.jpg,audio/doki.mp3,,,,,,,,,,,,,,,,,,,,,,,,,,,,,,,,,,,,,,,,,,,,,,,,,,,,,,,,,,,,,,,,
,,,,,,,,,R_2YAoSy7VJV3YAYv,2022-06-24_23h24.19.600,jpn_C01,2022.1.2,Linux x86_64,60.0024001,,,space,1.5341,2,3,15,4,1,ピポ,doctor,,CartoonStims/doctor_r.jpg,audio/pipo.mp3,,,,,,,,,,,,,,,,,,,,,,,,,,,,,,,,,,,,,,,,,,,,,,,,,,,,,,,,,,,,,,,,
,,,,,,,,,R_2YAoSy7VJV3YAYv,2022-06-24_23h24.19.600,jpn_C01,2022.1.2,Linux x86_64,60.0024001,,,space,2.0921,2,4,16,0,1,シド,artist,,CartoonStims/artist_r.jpg,audio/sido.mp3,,,,,,,,,,,,,,,,,,,,,,,,,,,,,,,,,,,,,,,,,,,,,,,,,,,,,,,,,,,,,,,,
,,,,,,,,,R_2YAoSy7VJV3YAYv,2022-06-24_23h24.19.600,jpn_C01,2022.1.2,Linux x86_64,60.0024001,,,space,2.2773,2,5,17,2,1,ホレト,chef,,CartoonStims/chef_r.jpg,audio/horeto.mp3,,,,,,,,,,,,,,,,,,,,,,,,,,,,,,,,,,,,,,,,,,,,,,,,,,,,,,,,,,,,,,,,
,,,,,,,,,R_2YAoSy7VJV3YAYv,2022-06-24_23h24.19.600,jpn_C01,2022.1.2,Linux x86_64,60.0024001,,,,,,,,,,,,,,,space,1.7938,left,1,1.3739,0,0,0,0,1,,,,,,,,,,,,,,,,,,,,,,,,,,,,,,,,,,,,,,,,,,,,,,,,,,,,,,
,,,,,,,,,R_2YAoSy7VJV3YAYv,2022-06-24_23h24.19.600,jpn_C01,2022.1.2,Linux x86_64,60.0024001,,,,,,,,,,,,,,,,,,,,,,,,,0,0,0,3,1,CartoonStims/cowboy_r.jpg,ムク,CartoonStims/doctor_r.jpg,left,CartoonStims/cowboy_r.jpg,audio/muku.mp3,残念！ こちらが正しい画像です。,,,,,,,,,,,,,,,,,,,,,,,,,,,,,,,,,,,,,,,,,,
,,,,,,,,,R_2YAoSy7VJV3YAYv,2022-06-24_23h24.19.600,jpn_C01,2022.1.2,Linux x86_64,60.0024001,,,,,,,,,,,,,,,,,right,1,0.7736,,,,,,,,,,,,,,,,,,0,0,0,0,1,,,,,,,,,,,,,,,,,,,,,,,,,,,,,,,,,,,,,
,,,,,,,,,R_2YAoSy7VJV3YAYv,2022-06-24_23h24.19.600,jpn_C01,2022.1.2,Linux x86_64,60.0024001,,,,,,,,,,,,,,,,,,,,,,,,,0,1,1,11,1,CartoonStims/burglar_r.jpg,ドキ,CartoonStims/boxer_r.jpg,right,CartoonStims/boxer_r.jpg,audio/doki.mp3,残念！ こちらが正しい画像です。,,,,,,,,,,,,,,,,,,,,,,,,,,,,,,,,,,,,,,,,,,
,,,,,,,,,R_2YAoSy7VJV3YAYv,2022-06-24_23h24.19.600,jpn_C01,2022.1.2,Linux x86_64,60.0024001,,,,,,,,,,,,,,,,,right,1,1.2375,,,,,,,,,,,,,,,,,,0,0,0,0,1,,,,,,,,,,,,,,,,,,,,,,,,,,,,,,,,,,,,,
,,,,,,,,,R_2YAoSy7VJV3YAYv,2022-06-24_23h24.19.600,jpn_C01,2022.1.2,Linux x86_64,60.0024001,,,,,,,,,,,,,,,,,,,,,,,,,0,2,2,9,1,CartoonStims/boxer_r.jpg,ムク,CartoonStims/cowboy_r.jpg,right,CartoonStims/cowboy_r.jpg,audio/muku.mp3,残念！ こちらが正しい画像です。,,,,,,,,,,,,,,,,,,,,,,,,,,,,,,,,,,,,,,,,,,
,,,,,,,,,R_2YAoSy7VJV3YAYv,2022-06-24_23h24.19.600,jpn_C01,2022.1.2,Linux x86_64,60.0024001,,,,,,,,,,,,,,,,,right,1,1.0541,,,,,,,,,,,,,,,,,,0,0,0,0,1,,,,,,,,,,,,,,,,,,,,,,,,,,,,,,,,,,,,,
,,,,,,,,,R_2YAoSy7VJV3YAYv,2022-06-24_23h24.19.600,jpn_C01,2022.1.2,Linux x86_64,60.0024001,,,,,,,,,,,,,,,,,,,,,,,,,0,3,3,6,1,CartoonStims/chef_r.jpg,シド,CartoonStims/artist_r.jpg,right,CartoonStims/artist_r.jpg,audio/sido.mp3,残念！ こちらが正しい画像です。,,,,,,,,,,,,,,,,,,,,,,,,,,,,,,,,,,,,,,,,,,
,,,,,,,,,R_2YAoSy7VJV3YAYv,2022-06-24_23h24.19.600,jpn_C01,2022.1.2,Linux x86_64,60.0024001,,,,,,,,,,,,,,,,,right,1,1.3105,,,,,,,,,,,,,,,,,,0,0,0,0,1,,,,,,,,,,,,,,,,,,,,,,,,,,,,,,,,,,,,,
,,,,,,,,,R_2YAoSy7VJV3YAYv,2022-06-24_23h24.19.600,jpn_C01,2022.1.2,Linux x86_64,60.0024001,,,,,,,,,,,,,,,,,,,,,,,,,0,4,4,8,1,CartoonStims/doctor_r.jpg,ホレト,CartoonStims/chef_r.jpg,right,CartoonStims/chef_r.jpg,audio/horeto.mp3,残念！ こちらが正しい画像です。,,,,,,,,,,,,,,,,,,,,,,,,,,,,,,,,,,,,,,,,,,
,,,,,,,,,R_2YAoSy7VJV3YAYv,2022-06-24_23h24.19.600,jpn_C01,2022.1.2,Linux x86_64,60.0024001,,,,,,,,,,,,,,,,,left,1,0.8094,0,0,0,0,1,,,,,,,,,,,,,,,,,,,,,,,,,,,,,,,,,,,,,,,,,,,,,,,,,,,,,,
,,,,,,,,,R_2YAoSy7VJV3YAYv,2022-06-24_23h24.19.600,jpn_C01,2022.1.2,Linux x86_64,60.0024001,,,,,,,,,,,,,,,,,,,,,,,,,0,5,5,5,1,CartoonStims/boxer_r.jpg,ドキ,CartoonStims/artist_r.jpg,left,CartoonStims/boxer_r.jpg,audio/doki.mp3,残念！ こちらが正しい画像です。,,,,,,,,,,,,,,,,,,,,,,,,,,,,,,,,,,,,,,,,,,
,,,,,,,,,R_2YAoSy7VJV3YAYv,2022-06-24_23h24.19.600,jpn_C01,2022.1.2,Linux x86_64,60.0024001,,,,,,,,,,,,,,,,,left,1,2.6125,0,0,0,0,1,,,,,,,,,,,,,,,,,,,,,,,,,,,,,,,,,,,,,,,,,,,,,,,,,,,,,,
,,,,,,,,,R_2YAoSy7VJV3YAYv,2022-06-24_23h24.19.600,jpn_C01,2022.1.2,Linux x86_64,60.0024001,,,,,,,,,,,,,,,,,,,,,,,,,0,6,6,0,1,CartoonStims/artist_r.jpg,シド,CartoonStims/burglar_r.jpg,left,CartoonStims/artist_r.jpg,audio/sido.mp3,残念！ こちらが正しい画像です。,,,,,,,,,,,,,,,,,,,,,,,,,,,,,,,,,,,,,,,,,,
,,,,,,,,,R_2YAoSy7VJV3YAYv,2022-06-24_23h24.19.600,jpn_C01,2022.1.2,Linux x86_64,60.0024001,,,,,,,,,,,,,,,,,left,1,0.5503,0,0,0,0,1,,,,,,,,,,,,,,,,,,,,,,,,,,,,,,,,,,,,,,,,,,,,,,,,,,,,,,
,,,,,,,,,R_2YAoSy7VJV3YAYv,2022-06-24_23h24.19.600,jpn_C01,2022.1.2,Linux x86_64,60.0024001,,,,,,,,,,,,,,,,,,,,,,,,,0,7,7,1,1,CartoonStims/burglar_r.jpg,ルピン,CartoonStims/chef_r.jpg,left,CartoonStims/burglar_r.jpg,audio/lupin.mp3,残念！ こちらが正しい画像です。,,,,,,,,,,,,,,,,,,,,,,,,,,,,,,,,,,,,,,,,,,
,,,,,,,,,R_2YAoSy7VJV3YAYv,2022-06-24_23h24.19.600,jpn_C01,2022.1.2,Linux x86_64,60.0024001,,,,,,,,,,,,,,,,,left,1,2.071,0,0,0,0,1,,,,,,,,,,,,,,,,,,,,,,,,,,,,,,,,,,,,,,,,,,,,,,,,,,,,,,
,,,,,,,,,R_2YAoSy7VJV3YAYv,2022-06-24_23h24.19.600,jpn_C01,2022.1.2,Linux x86_64,60.0024001,,,,,,,,,,,,,,,,,,,,,,,,,0,8,8,2,1,CartoonStims/chef_r.jpg,ホレト,CartoonStims/cowboy_r.jpg,left,CartoonStims/chef_r.jpg,audio/horeto.mp3,残念！ こちらが正しい画像です。,,,,,,,,,,,,,,,,,,,,,,,,,,,,,,,,,,,,,,,,,,
,,,,,,,,,R_2YAoSy7VJV3YAYv,2022-06-24_23h24.19.600,jpn_C01,2022.1.2,Linux x86_64,60.0024001,,,,,,,,,,,,,,,,,left,1,0.5414,0,0,0,0,1,,,,,,,,,,,,,,,,,,,,,,,,,,,,,,,,,,,,,,,,,,,,,,,,,,,,,,
,,,,,,,,,R_2YAoSy7VJV3YAYv,2022-06-24_23h24.19.600,jpn_C01,2022.1.2,Linux x86_64,60.0024001,,,,,,,,,,,,,,,,,,,,,,,,,0,9,9,4,1,CartoonStims/doctor_r.jpg,ピポ,CartoonStims/boxer_r.jpg,left,CartoonStims/doctor_r.jpg,audio/pipo.mp3,残念！ こちらが正しい画像です。,,,,,,,,,,,,,,,,,,,,,,,,,,,,,,,,,,,,,,,,,,
,,,,,,,,,R_2YAoSy7VJV3YAYv,2022-06-24_23h24.19.600,jpn_C01,2022.1.2,Linux x86_64,60.0024001,,,,,,,,,,,,,,,,,right,1,0.5503,,,,,,,,,,,,,,,,,,0,0,0,0,1,,,,,,,,,,,,,,,,,,,,,,,,,,,,,,,,,,,,,
,,,,,,,,,R_2YAoSy7VJV3YAYv,2022-06-24_23h24.19.600,jpn_C01,2022.1.2,Linux x86_64,60.0024001,,,,,,,,,,,,,,,,,,,,,,,,,0,10,10,10,1,CartoonStims/artist_r.jpg,ピポ,CartoonStims/doctor_r.jpg,right,CartoonStims/doctor_r.jpg,audio/pipo.mp3,残念！ こちらが正しい画像です。,,,,,,,,,,,,,,,,,,,,,,,,,,,,,,,,,,,,,,,,,,
,,,,,,,,,R_2YAoSy7VJV3YAYv,2022-06-24_23h24.19.600,jpn_C01,2022.1.2,Linux x86_64,60.0024001,,,,,,,,,,,,,,,,,right,1,0.5339,,,,,,,,,,,,,,,,,,0,0,0,0,1,,,,,,,,,,,,,,,,,,,,,,,,,,,,,,,,,,,,,
,,,,,,,,,R_2YAoSy7VJV3YAYv,2022-06-24_23h24.19.600,jpn_C01,2022.1.2,Linux x86_64,60.0024001,,,,,,,,,,,,,,,,,,,,,,,,,0,11,11,7,1,CartoonStims/cowboy_r.jpg,ルピン,CartoonStims/burglar_r.jpg,right,CartoonStims/burglar_r.jpg,audio/lupin.mp3,残念！ こちらが正しい画像です。,,,,,,,,,,,,,,,,,,,,,,,,,,,,,,,,,,,,,,,,,,
,,,,,,,,,R_2YAoSy7VJV3YAYv,2022-06-24_23h24.19.600,jpn_C01,2022.1.2,Linux x86_64,60.0024001,,,,,,,,,,,,,,,,,,,,,,,,,,,,,,,,,,,,,,,,,,space,2.3504,ラバ,right,16.7514,0,0,0,0,1,,,,,,,,,,,,,,,,,,,,,,,,,,,
,,,,,,,,,R_2YAoSy7VJV3YAYv,2022-06-24_23h24.19.600,jpn_C01,2022.1.2,Linux x86_64,60.0024001,,,,,,,,,,,,,CartoonStims/artist_r.jpg,audio/sido.mp3,,,,,,,,,,,,,,,,,,,,,,,,,,,,,,,,,,,,,,0,0,0,0,1,シド,,,,,,,,,,,,,,,,,,,,,
,,,,,,,,,R_2YAoSy7VJV3YAYv,2022-06-24_23h24.19.600,jpn_C01,2022.1.2,Linux x86_64,60.0024001,,,,,,,,,,,,,,,,,,,,,,,,,,,,,,,,,,,,,,,,,,,,ロキ,right,13.8346,0,0,0,0,1,,,,,,,,,,,,,,,,,,,,,,,,,,,
,,,,,,,,,R_2YAoSy7VJV3YAYv,2022-06-24_23h24.19.600,jpn_C01,2022.1.2,Linux x86_64,60.0024001,,,,,,,,,,,,,CartoonStims/cowboy_r.jpg,audio/muku.mp3,,,,,,,,,,,,,,,,,,,,,,,,,,,,,,,,,,,,,,0,1,1,3,1,ムク,,,,,,,,,,,,,,,,,,,,,
,,,,,,,,,R_2YAoSy7VJV3YAYv,2022-06-24_23h24.19.600,jpn_C01,2022.1.2,Linux x86_64,60.0024001,,,,,,,,,,,,,,,,,,,,,,,,,,,,,,,,,,,,,,,,,,,,ルピン,right,3.9691,0,0,0,0,1,,,,,,,,,,,,,,,,,,,,,,,,,,,
,,,,,,,,,R_2YAoSy7VJV3YAYv,2022-06-24_23h24.19.600,jpn_C01,2022.1.2,Linux x86_64,60.0024001,,,,,,,,,,,,,CartoonStims/burglar_r.jpg,audio/lupin.mp3,,,,,,,,,,,,,,,,,,,,,,,,,,,,,,,,,,,,,,0,2,2,1,1,ルピン,,,,,,,,,,,,,,,,,,,,,
,,,,,,,,,R_2YAoSy7VJV3YAYv,2022-06-24_23h24.19.600,jpn_C01,2022.1.2,Linux x86_64,60.0024001,,,,,,,,,,,,,,,,,,,,,,,,,,,,,,,,,,,,,,,,,,,,ドキ,right,10.9178,0,0,0,0,1,,,,,,,,,,,,,,,,,,,,,,,,,,,
,,,,,,,,,R_2YAoSy7VJV3YAYv,2022-06-24_23h24.19.600,jpn_C01,2022.1.2,Linux x86_64,60.0024001,,,,,,,,,,,,,CartoonStims/boxer_r.jpg,audio/doki.mp3,,,,,,,,,,,,,,,,,,,,,,,,,,,,,,,,,,,,,,0,3,3,5,1,ドキ,,,,,,,,,,,,,,,,,,,,,
,,,,,,,,,R_2YAoSy7VJV3YAYv,2022-06-24_23h24.19.600,jpn_C01,2022.1.2,Linux x86_64,60.0024001,,,,,,,,,,,,,,,,,,,,,,,,,,,,,,,,,,,,,,,,,,,,ピポ,right,4.5498,0,0,0,0,1,,,,,,,,,,,,,,,,,,,,,,,,,,,
,,,,,,,,,R_2YAoSy7VJV3YAYv,2022-06-24_23h24.19.600,jpn_C01,2022.1.2,Linux x86_64,60.0024001,,,,,,,,,,,,,CartoonStims/doctor_r.jpg,audio/pipo.mp3,,,,,,,,,,,,,,,,,,,,,,,,,,,,,,,,,,,,,,0,4,4,4,1,ピポ,,,,,,,,,,,,,,,,,,,,,
,,,,,,,,,R_2YAoSy7VJV3YAYv,2022-06-24_23h24.19.600,jpn_C01,2022.1.2,Linux x86_64,60.0024001,,,,,,,,,,,,,,,,,,,,,,,,,,,,,,,,,,,,,,,,,,,,ホレト,right,7.9328,0,0,0,0,1,,,,,,,,,,,,,,,,,,,,,,,,,,,
,,,,,,,,,R_2YAoSy7VJV3YAYv,2022-06-24_23h24.19.600,jpn_C01,2022.1.2,Linux x86_64,60.0024001,,,,,,,,,,,,,CartoonStims/chef_r.jpg,audio/horeto.mp3,,,,,,,,,,,,,,,,,,,,,,,,,,,,,,,,,,,,,,0,5,5,2,1,ホレト,,,,,,,,,,,,,,,,,,,,,
,,,,,,,,,R_2YAoSy7VJV3YAYv,2022-06-24_23h24.19.600,jpn_C01,2022.1.2,Linux x86_64,60.0024001,,,,,,,,,,,,,,,,,,,,,,,,,,,,,,,,,,,,,,,,,,,,"ムク
",right,15.1355,0,0,0,0,1,,,,,,,,,,,,,,,,,,,,,,,,,,,
,,,,,,,,,R_2YAoSy7VJV3YAYv,2022-06-24_23h24.19.600,jpn_C01,2022.1.2,Linux x86_64,60.0024001,,,,,,,,,,,,,CartoonStims/cowboy_r.jpg,audio/muku.mp3,,,,,,,,,,,,,,,,,,,,,,,,,,,,,,,,,,,,,,1,0,6,3,1,ムク,,,,,,,,,,,,,,,,,,,,,
,,,,,,,,,R_2YAoSy7VJV3YAYv,2022-06-24_23h24.19.600,jpn_C01,2022.1.2,Linux x86_64,60.0024001,,,,,,,,,,,,,,,,,,,,,,,,,,,,,,,,,,,,,,,,,,,,ホレト,right,4.0686,0,0,0,0,1,,,,,,,,,,,,,,,,,,,,,,,,,,,
,,,,,,,,,R_2YAoSy7VJV3YAYv,2022-06-24_23h24.19.600,jpn_C01,2022.1.2,Linux x86_64,60.0024001,,,,,,,,,,,,,CartoonStims/chef_r.jpg,audio/horeto.mp3,,,,,,,,,,,,,,,,,,,,,,,,,,,,,,,,,,,,,,1,1,7,2,1,ホレト,,,,,,,,,,,,,,,,,,,,,
,,,,,,,,,R_2YAoSy7VJV3YAYv,2022-06-24_23h24.19.600,jpn_C01,2022.1.2,Linux x86_64,60.0024001,,,,,,,,,,,,,,,,,,,,,,,,,,,,,,,,,,,,,,,,,,,,ピポ,right,5.6169,0,0,0,0,1,,,,,,,,,,,,,,,,,,,,,,,,,,,
,,,,,,,,,R_2YAoSy7VJV3YAYv,2022-06-24_23h24.19.600,jpn_C01,2022.1.2,Linux x86_64,60.0024001,,,,,,,,,,,,,CartoonStims/doctor_r.jpg,audio/pipo.mp3,,,,,,,,,,,,,,,,,,,,,,,,,,,,,,,,,,,,,,1,2,8,4,1,ピポ,,,,,,,,,,,,,,,,,,,,,
,,,,,,,,,R_2YAoSy7VJV3YAYv,2022-06-24_23h24.19.600,jpn_C01,2022.1.2,Linux x86_64,60.0024001,,,,,,,,,,,,,,,,,,,,,,,,,,,,,,,,,,,,,,,,,,,,ムク,right,6.7328,0,0,0,0,1,,,,,,,,,,,,,,,,,,,,,,,,,,,
,,,,,,,,,R_2YAoSy7VJV3YAYv,2022-06-24_23h24.19.600,jpn_C01,2022.1.2,Linux x86_64,60.0024001,,,,,,,,,,,,,CartoonStims/artist_r.jpg,audio/sido.mp3,,,,,,,,,,,,,,,,,,,,,,,,,,,,,,,,,,,,,,1,3,9,0,1,シド,,,,,,,,,,,,,,,,,,,,,
,,,,,,,,,R_2YAoSy7VJV3YAYv,2022-06-24_23h24.19.600,jpn_C01,2022.1.2,Linux x86_64,60.0024001,,,,,,,,,,,,,,,,,,,,,,,,,,,,,,,,,,,,,,,,,,,,ドキ,right,3.9021,0,0,0,0,1,,,,,,,,,,,,,,,,,,,,,,,,,,,
,,,,,,,,,R_2YAoSy7VJV3YAYv,2022-06-24_23h24.19.600,jpn_C01,2022.1.2,Linux x86_64,60.0024001,,,,,,,,,,,,,CartoonStims/boxer_r.jpg,audio/doki.mp3,,,,,,,,,,,,,,,,,,,,,,,,,,,,,,,,,,,,,,1,4,10,5,1,ドキ,,,,,,,,,,,,,,,,,,,,,
,,,,,,,,,R_2YAoSy7VJV3YAYv,2022-06-24_23h24.19.600,jpn_C01,2022.1.2,Linux x86_64,60.0024001,,,,,,,,,,,,,,,,,,,,,,,,,,,,,,,,,,,,,,,,,,,,ルピン,right,3.9694,0,0,0,0,1,,,,,,,,,,,,,,,,,,,,,,,,,,,
,,,,,,,,,R_2YAoSy7VJV3YAYv,2022-06-24_23h24.19.600,jpn_C01,2022.1.2,Linux x86_64,60.0024001,,,,,,,,,,,,,CartoonStims/burglar_r.jpg,audio/lupin.mp3,,,,,,,,,,,,,,,,,,,,,,,,,,,,,,,,,,,,,,1,5,11,1,1,ルピン,,,,,,,,,,,,,,,,,,,,,
,,,,,,,,,R_2YAoSy7VJV3YAYv,2022-06-24_23h24.19.600,jpn_C01,2022.1.2,Linux x86_64,60.0024001,,,,,,,,,,,,,,,,,,,,,,,,,,,,,,,,,,,,,,,,,,,,,,,,,,,,,,,,,,,space,1.919,0,0,0,0,1,NounExposure.xlsx,"最初のトライアルでは、 画像が表示され、 その画像の下に単語が出てきます。 またこの単語の音も聞くことができます。 この音を大きな声で復唱してください。 そしてこの画像がどのような単語を示しているのか, 考えてみてください。 その後、 続きのボタンを押すと次の単語の学習が始まります。

スペースキーを押して、学習を始めましょう。",3,NounFCT.xlsx,ここから語彙のクイズが始まります。スクリーンに表示される単語に合う画像をキーボードの右と左の矢印キーを使って選択してください。,NounTest.xlsx,2,次に、これまで学習してきたことをアウトプットしていただきます。 表示される画像を描写していると思う単語を、テキストボックスにタイプしてください。,1,"ここまでが最初のトライアルです。ここで休憩をとっても構いません。

休憩が済みましたら、スペースキーを押して続きを始めましょう。",,,
,,,,,,,,,R_2YAoSy7VJV3YAYv,2022-06-24_23h24.19.600,jpn_C01,2022.1.2,Linux x86_64,60.0024001,space,2.7961,space,13.5597,0,0,0,13,1,トマ　シド　ムク,,,CartoonStims/artist_point_cowboy_r.jpg,audio/tomasidomuku.mp3,,,,,,,,,,,,,,,,,,,,,,,,,,,,,,,,,,,,,,,,,,,,,,,,,,,,,,,,,,,,,,,,
,,,,,,,,,R_2YAoSy7VJV3YAYv,2022-06-24_23h24.19.600,jpn_C01,2022.1.2,Linux x86_64,60.0024001,,,space,6.8907,0,1,1,30,1,パツ　ムク　シド,,,CartoonStims/cowboy_shoot_artist_r.jpg,audio/patsumukusido.mp3,,,,,,,,,,,,,,,,,,,,,,,,,,,,,,,,,,,,,,,,,,,,,,,,,,,,,,,,,,,,,,,,
,,,,,,,,,R_2YAoSy7VJV3YAYv,2022-06-24_23h24.19.600,jpn_C01,2022.1.2,Linux x86_64,60.0024001,,,space,7.4037,0,2,2,1,1,セル 　シド 　ホレト,,,CartoonStims/artist_kick_chef_r.jpg,audio/serusidohoreto.mp3,,,,,,,,,,,,,,,,,,,,,,,,,,,,,,,,,,,,,,,,,,,,,,,,,,,,,,,,,,,,,,,,
,,,,,,,,,R_2YAoSy7VJV3YAYv,2022-06-24_23h24.19.600,jpn_C01,2022.1.2,Linux x86_64,60.0024001,,,space,3.8201,0,3,3,20,1,トマ　ピポ　シド,,,CartoonStims/doctor_point_artist_r.jpg,audio/tomapiposido.mp3,,,,,,,,,,,,,,,,,,,,,,,,,,,,,,,,,,,,,,,,,,,,,,,,,,,,,,,,,,,,,,,,
,,,,,,,,,R_2YAoSy7VJV3YAYv,2022-06-24_23h24.19.600,jpn_C01,2022.1.2,Linux x86_64,60.0024001,,,space,3.5808,0,4,4,47,1,プミ　ドキ　ピポ,,,CartoonStims/boxer_punch_doctor_r.jpg,audio/pumidokipipo.mp3,,,,,,,,,,,,,,,,,,,,,,,,,,,,,,,,,,,,,,,,,,,,,,,,,,,,,,,,,,,,,,,,
,,,,,,,,,R_2YAoSy7VJV3YAYv,2022-06-24_23h24.19.600,jpn_C01,2022.1.2,Linux x86_64,60.0024001,,,space,2.5382,0,5,5,2,1,セル 　ルピン 　ホレト,,,CartoonStims/burglar_kick_chef_r.jpg,audio/serulupinhoreto.mp3,,,,,,,,,,,,,,,,,,,,,,,,,,,,,,,,,,,,,,,,,,,,,,,,,,,,,,,,,,,,,,,,
,,,,,,,,,R_2YAoSy7VJV3YAYv,2022-06-24_23h24.19.600,jpn_C01,2022.1.2,Linux x86_64,60.0024001,,,space,5.6143,0,6,6,19,1,トマ　ムク　シド,,,CartoonStims/cowboy_point_artist_r.jpg,audio/tomamukusido.mp3,,,,,,,,,,,,,,,,,,,,,,,,,,,,,,,,,,,,,,,,,,,,,,,,,,,,,,,,,,,,,,,,
,,,,,,,,,R_2YAoSy7VJV3YAYv,2022-06-24_23h24.19.600,jpn_C01,2022.1.2,Linux x86_64,60.0024001,,,space,5.6262,0,7,7,42,1,プミ　ムク　ルピン,,,CartoonStims/cowboy_punch_burglar_r.jpg,audio/pumimukulupin.mp3,,,,,,,,,,,,,,,,,,,,,,,,,,,,,,,,,,,,,,,,,,,,,,,,,,,,,,,,,,,,,,,,
,,,,,,,,,R_2YAoSy7VJV3YAYv,2022-06-24_23h24.19.600,jpn_C01,2022.1.2,Linux x86_64,60.0024001,,,space,5.1114,0,8,8,0,1,セル　シド　ルピン,,,CartoonStims/artist_kick_burglar_r.jpg,audio/serusidolupin.mp3,,,,,,,,,,,,,,,,,,,,,,,,,,,,,,,,,,,,,,,,,,,,,,,,,,,,,,,,,,,,,,,,
,,,,,,,,,R_2YAoSy7VJV3YAYv,2022-06-24_23h24.19.600,jpn_C01,2022.1.2,Linux x86_64,60.0024001,,,space,3.8314,0,9,9,28,1,パツ　ホレト　ドキ,,,CartoonStims/chef_shoot_boxer_r.jpg,audio/patsuhoretodoki.mp3,,,,,,,,,,,,,,,,,,,,,,,,,,,,,,,,,,,,,,,,,,,,,,,,,,,,,,,,,,,,,,,,
,,,,,,,,,R_2YAoSy7VJV3YAYv,2022-06-24_23h24.19.600,jpn_C01,2022.1.2,Linux x86_64,60.0024001,,,space,3.8293,0,10,10,10,1,セル　ドキ　シド,,,CartoonStims/boxer_kick_artist_r.jpg,audio/serudokisido.mp3,,,,,,,,,,,,,,,,,,,,,,,,,,,,,,,,,,,,,,,,,,,,,,,,,,,,,,,,,,,,,,,,
,,,,,,,,,R_2YAoSy7VJV3YAYv,2022-06-24_23h24.19.600,jpn_C01,2022.1.2,Linux x86_64,60.0024001,,,space,2.8057,0,11,11,6,1,セル　ムク　ピポ,,,CartoonStims/cowboy_kick_doctor_r.jpg,audio/serumukupipo.mp3,,,,,,,,,,,,,,,,,,,,,,,,,,,,,,,,,,,,,,,,,,,,,,,,,,,,,,,,,,,,,,,,
,,,,,,,,,R_2YAoSy7VJV3YAYv,2022-06-24_23h24.19.600,jpn_C01,2022.1.2,Linux x86_64,60.0024001,,,space,2.7985,0,12,12,27,1,パツ　ルピン　ドキ,,,CartoonStims/burglar_shoot_boxer_r.jpg,audio/patsulupindoki.mp3,,,,,,,,,,,,,,,,,,,,,,,,,,,,,,,,,,,,,,,,,,,,,,,,,,,,,,,,,,,,,,,,
,,,,,,,,,R_2YAoSy7VJV3YAYv,2022-06-24_23h24.19.600,jpn_C01,2022.1.2,Linux x86_64,60.0024001,,,space,1.94,0,13,13,31,1,パツ　ムク　ルピン,,,CartoonStims/cowboy_shoot_burglar_r.jpg,audio/patsumukulupin.mp3,,,,,,,,,,,,,,,,,,,,,,,,,,,,,,,,,,,,,,,,,,,,,,,,,,,,,,,,,,,,,,,,
,,,,,,,,,R_2YAoSy7VJV3YAYv,2022-06-24_23h24.19.600,jpn_C01,2022.1.2,Linux x86_64,60.0024001,,,space,5.2259,0,14,14,36,1,プミ　シド　ピポ,,,CartoonStims/artist_punch_doctor_r.jpg,audio/pumisidopipo.mp3,,,,,,,,,,,,,,,,,,,,,,,,,,,,,,,,,,,,,,,,,,,,,,,,,,,,,,,,,,,,,,,,
,,,,,,,,,R_2YAoSy7VJV3YAYv,2022-06-24_23h24.19.600,jpn_C01,2022.1.2,Linux x86_64,60.0024001,,,space,2.8028,0,15,15,3,1,セル　ルピン　ムク,,,CartoonStims/burglar_kick_cowboy_r.jpg,audio/serulupinmuku.mp3,,,,,,,,,,,,,,,,,,,,,,,,,,,,,,,,,,,,,,,,,,,,,,,,,,,,,,,,,,,,,,,,
,,,,,,,,,R_2YAoSy7VJV3YAYv,2022-06-24_23h24.19.600,jpn_C01,2022.1.2,Linux x86_64,60.0024001,,,space,12.5273,0,16,16,37,1,プミ　シド　ドキ,,,CartoonStims/artist_punch_boxer_r.jpg,audio/pumisidodoki.mp3,,,,,,,,,,,,,,,,,,,,,,,,,,,,,,,,,,,,,,,,,,,,,,,,,,,,,,,,,,,,,,,,
,,,,,,,,,R_2YAoSy7VJV3YAYv,2022-06-24_23h24.19.600,jpn_C01,2022.1.2,Linux x86_64,60.0024001,,,space,2.8036,0,17,17,34,1,パツ　ドキ　ホレト,,,CartoonStims/boxer_shoot_chef_r.jpg,audio/patsudokihoreto.mp3,,,,,,,,,,,,,,,,,,,,,,,,,,,,,,,,,,,,,,,,,,,,,,,,,,,,,,,,,,,,,,,,
,,,,,,,,,R_2YAoSy7VJV3YAYv,2022-06-24_23h24.19.600,jpn_C01,2022.1.2,Linux x86_64,60.0024001,,,space,5.8705,0,18,18,11,1,セル　ドキ　ルピン,,,CartoonStims/boxer_kick_burglar_r.jpg,audio/serudokilupin.mp3,,,,,,,,,,,,,,,,,,,,,,,,,,,,,,,,,,,,,,,,,,,,,,,,,,,,,,,,,,,,,,,,
,,,,,,,,,R_2YAoSy7VJV3YAYv,2022-06-24_23h24.19.600,jpn_C01,2022.1.2,Linux x86_64,60.0024001,,,space,2.8004,0,19,19,5,1,セル　ホレト　ピポ,,,CartoonStims/chef_kick_doctor_r.jpg,audio/seruhoretopipo.mp3,,,,,,,,,,,,,,,,,,,,,,,,,,,,,,,,,,,,,,,,,,,,,,,,,,,,,,,,,,,,,,,,
,,,,,,,,,R_2YAoSy7VJV3YAYv,2022-06-24_23h24.19.600,jpn_C01,2022.1.2,Linux x86_64,60.0024001,,,space,3.8171,0,20,20,25,1,パツ　シド　ピポ,,,CartoonStims/artist_shoot_doctor_r.jpg,audio/patsusidopipo.mp3,,,,,,,,,,,,,,,,,,,,,,,,,,,,,,,,,,,,,,,,,,,,,,,,,,,,,,,,,,,,,,,,
,,,,,,,,,R_2YAoSy7VJV3YAYv,2022-06-24_23h24.19.600,jpn_C01,2022.1.2,Linux x86_64,60.0024001,,,space,20.7184,0,21,21,18,1,トマ　ムク　ドキ,,,CartoonStims/cowboy_point_boxer_r.jpg,audio/tomamukudoki.mp3,,,,,,,,,,,,,,,,,,,,,,,,,,,,,,,,,,,,,,,,,,,,,,,,,,,,,,,,,,,,,,,,
,,,,,,,,,R_2YAoSy7VJV3YAYv,2022-06-24_23h24.19.600,jpn_C01,2022.1.2,Linux x86_64,60.0024001,,,space,2.5337,0,22,22,26,1,パツ　ルピン　ピポ,,,CartoonStims/burglar_shoot_doctor_r.jpg,audio/patsulupinpipo.mp3,,,,,,,,,,,,,,,,,,,,,,,,,,,,,,,,,,,,,,,,,,,,,,,,,,,,,,,,,,,,,,,,
,,,,,,,,,R_2YAoSy7VJV3YAYv,2022-06-24_23h24.19.600,jpn_C01,2022.1.2,Linux x86_64,60.0024001,,,space,9.4506,0,23,23,7,1,セル　ムク　ドキ,,,CartoonStims/cowboy_kick_boxer_r.jpg,audio/serumukudoki.mp3,,,,,,,,,,,,,,,,,,,,,,,,,,,,,,,,,,,,,,,,,,,,,,,,,,,,,,,,,,,,,,,,
,,,,,,,,,R_2YAoSy7VJV3YAYv,2022-06-24_23h24.19.600,jpn_C01,2022.1.2,Linux x86_64,60.0024001,,,space,2.2837,0,24,24,22,1,トマ　ドキ　ルピン,,,CartoonStims/boxer_point_burglar_r.jpg,audio/tomadokilupin.mp3,,,,,,,,,,,,,,,,,,,,,,,,,,,,,,,,,,,,,,,,,,,,,,,,,,,,,,,,,,,,,,,,
,,,,,,,,,R_2YAoSy7VJV3YAYv,2022-06-24_23h24.19.600,jpn_C01,2022.1.2,Linux x86_64,60.0024001,,,space,2.7936,0,25,25,39,1,プミ　ルピン　シド,,,CartoonStims/burglar_punch_artist_r.jpg,audio/pumilupinsido.mp3,,,,,,,,,,,,,,,,,,,,,,,,,,,,,,,,,,,,,,,,,,,,,,,,,,,,,,,,,,,,,,,,
,,,,,,,,,R_2YAoSy7VJV3YAYv,2022-06-24_23h24.19.600,jpn_C01,2022.1.2,Linux x86_64,60.0024001,,,space,2.807,0,26,26,44,1,プミ　ピポ　ホレト,,,CartoonStims/doctor_punch_chef_r.jpg,audio/pumipipohoreto.mp3,,,,,,,,,,,,,,,,,,,,,,,,,,,,,,,,,,,,,,,,,,,,,,,,,,,,,,,,,,,,,,,,
,,,,,,,,,R_2YAoSy7VJV3YAYv,2022-06-24_23h24.19.600,jpn_C01,2022.1.2,Linux x86_64,60.0024001,,,space,2.5444,0,27,27,15,1,トマ　ルピン　ピポ,,,CartoonStims/burglar_point_doctor_r.jpg,audio/tomalupinpipo.mp3,,,,,,,,,,,,,,,,,,,,,,,,,,,,,,,,,,,,,,,,,,,,,,,,,,,,,,,,,,,,,,,,
,,,,,,,,,R_2YAoSy7VJV3YAYv,2022-06-24_23h24.19.600,jpn_C01,2022.1.2,Linux x86_64,60.0024001,,,space,3.5738,0,28,28,35,1,パツ　ドキ　ムク,,,CartoonStims/boxer_shoot_cowboy_r.jpg,audio/patsudokimuku.mp3,,,,,,,,,,,,,,,,,,,,,,,,,,,,,,,,,,,,,,,,,,,,,,,,,,,,,,,,,,,,,,,,
,,,,,,,,,R_2YAoSy7VJV3YAYv,2022-06-24_23h24.19.600,jpn_C01,2022.1.2,Linux x86_64,60.0024001,,,space,2.5435,0,29,29,9,1,セル　ピポ　シド,,,CartoonStims/doctor_kick_artist_r.jpg,audio/serupiposido.mp3,,,,,,,,,,,,,,,,,,,,,,,,,,,,,,,,,,,,,,,,,,,,,,,,,,,,,,,,,,,,,,,,
,,,,,,,,,R_2YAoSy7VJV3YAYv,2022-06-24_23h24.19.600,jpn_C01,2022.1.2,Linux x86_64,60.0024001,,,space,4.3442,0,30,30,23,1,トマ　ドキ　ホレト,,,CartoonStims/boxer_point_chef_r.jpg,audio/tomadokihoreto.mp3,,,,,,,,,,,,,,,,,,,,,,,,,,,,,,,,,,,,,,,,,,,,,,,,,,,,,,,,,,,,,,,,
,,,,,,,,,R_2YAoSy7VJV3YAYv,2022-06-24_23h24.19.600,jpn_C01,2022.1.2,Linux x86_64,60.0024001,,,space,3.5703,0,31,31,43,1,プミ　ムク　ホレト,,,CartoonStims/cowboy_punch_chef_r.jpg,audio/pumimukuhoreto.mp3,,,,,,,,,,,,,,,,,,,,,,,,,,,,,,,,,,,,,,,,,,,,,,,,,,,,,,,,,,,,,,,,
,,,,,,,,,R_2YAoSy7VJV3YAYv,2022-06-24_23h24.19.600,jpn_C01,2022.1.2,Linux x86_64,60.0024001,,,space,4.5903,0,32,32,32,1,パツ　ピポ　ルピン,,,CartoonStims/doctor_shoot_burglar_r.jpg,audio/patsupipolupin.mp3,,,,,,,,,,,,,,,,,,,,,,,,,,,,,,,,,,,,,,,,,,,,,,,,,,,,,,,,,,,,,,,,
,,,,,,,,,R_2YAoSy7VJV3YAYv,2022-06-24_23h24.19.600,jpn_C01,2022.1.2,Linux x86_64,60.0024001,,,space,2.5534,0,33,33,33,1,パツ　ピポ　ホレト,,,CartoonStims/doctor_shoot_chef_r.jpg,audio/patsupipohoreto.mp3,,,,,,,,,,,,,,,,,,,,,,,,,,,,,,,,,,,,,,,,,,,,,,,,,,,,,,,,,,,,,,,,
,,,,,,,,,R_2YAoSy7VJV3YAYv,2022-06-24_23h24.19.600,jpn_C01,2022.1.2,Linux x86_64,60.0024001,,,space,9.4508,0,34,34,45,1,プミ　ピポ　ムク,,,CartoonStims/doctor_punch_cowboy_r.jpg,audio/pumipipomuku.mp3,,,,,,,,,,,,,,,,,,,,,,,,,,,,,,,,,,,,,,,,,,,,,,,,,,,,,,,,,,,,,,,,
,,,,,,,,,R_2YAoSy7VJV3YAYv,2022-06-24_23h24.19.600,jpn_C01,2022.1.2,Linux x86_64,60.0024001,,,space,3.4011,0,35,35,8,1,セル　ピポ　ドキ,,,CartoonStims/doctor_kick_boxer_r.jpg,audio/serupipodoki.mp3,,,,,,,,,,,,,,,,,,,,,,,,,,,,,,,,,,,,,,,,,,,,,,,,,,,,,,,,,,,,,,,,
,,,,,,,,,R_2YAoSy7VJV3YAYv,2022-06-24_23h24.19.600,jpn_C01,2022.1.2,Linux x86_64,60.0024001,,,space,3.9769,0,36,36,29,1,パツ　ホレト　シド,,,CartoonStims/chef_shoot_artist_r.jpg,audio/patsuhoretosido.mp3,,,,,,,,,,,,,,,,,,,,,,,,,,,,,,,,,,,,,,,,,,,,,,,,,,,,,,,,,,,,,,,,
,,,,,,,,,R_2YAoSy7VJV3YAYv,2022-06-24_23h24.19.600,jpn_C01,2022.1.2,Linux x86_64,60.0024001,,,space,3.8268,0,37,37,41,1,プミ　ホレト　ルピン,,,CartoonStims/chef_punch_burglar_r.jpg,audio/pumihoretolupin.mp3,,,,,,,,,,,,,,,,,,,,,,,,,,,,,,,,,,,,,,,,,,,,,,,,,,,,,,,,,,,,,,,,
,,,,,,,,,R_2YAoSy7VJV3YAYv,2022-06-24_23h24.19.600,jpn_C01,2022.1.2,Linux x86_64,60.0024001,,,space,1.6545,0,38,38,38,1,プミ　ルピン　ドキ,,,CartoonStims/burglar_punch_boxer_r.jpg,audio/pumilupindoki.mp3,,,,,,,,,,,,,,,,,,,,,,,,,,,,,,,,,,,,,,,,,,,,,,,,,,,,,,,,,,,,,,,,
,,,,,,,,,R_2YAoSy7VJV3YAYv,2022-06-24_23h24.19.600,jpn_C01,2022.1.2,Linux x86_64,60.0024001,,,space,2.6703,0,39,39,21,1,トマ　ピポ　ルピン,,,CartoonStims/doctor_point_burglar_r.jpg,audio/tomapipolupin.mp3,,,,,,,,,,,,,,,,,,,,,,,,,,,,,,,,,,,,,,,,,,,,,,,,,,,,,,,,,,,,,,,,
,,,,,,,,,R_2YAoSy7VJV3YAYv,2022-06-24_23h24.19.600,jpn_C01,2022.1.2,Linux x86_64,60.0024001,,,space,6.6373,0,40,40,14,1,トマ　ルピン　ムク,,,CartoonStims/burglar_point_cowboy_r.jpg,audio/tomalupinmuku.mp3,,,,,,,,,,,,,,,,,,,,,,,,,,,,,,,,,,,,,,,,,,,,,,,,,,,,,,,,,,,,,,,,
,,,,,,,,,R_2YAoSy7VJV3YAYv,2022-06-24_23h24.19.600,jpn_C01,2022.1.2,Linux x86_64,60.0024001,,,space,2.2869,0,41,41,12,1,トマ　シド　ホレト,,,CartoonStims/artist_point_chef_r.jpg,audio/tomasidohoreto.mp3,,,,,,,,,,,,,,,,,,,,,,,,,,,,,,,,,,,,,,,,,,,,,,,,,,,,,,,,,,,,,,,,
,,,,,,,,,R_2YAoSy7VJV3YAYv,2022-06-24_23h24.19.600,jpn_C01,2022.1.2,Linux x86_64,60.0024001,,,space,3.0535,0,42,42,17,1,トマ　ホレト　ドキ,,,CartoonStims/chef_point_boxer_r.jpg,audio/tomahoretodoki.mp3,,,,,,,,,,,,,,,,,,,,,,,,,,,,,,,,,,,,,,,,,,,,,,,,,,,,,,,,,,,,,,,,
,,,,,,,,,R_2YAoSy7VJV3YAYv,2022-06-24_23h24.19.600,jpn_C01,2022.1.2,Linux x86_64,60.0024001,,,space,5.1013,0,43,43,4,1,セル　ホレト　ムク,,,CartoonStims/chef_kick_cowboy_r.jpg,audio/seruhoretomuku.mp3,,,,,,,,,,,,,,,,,,,,,,,,,,,,,,,,,,,,,,,,,,,,,,,,,,,,,,,,,,,,,,,,
,,,,,,,,,R_2YAoSy7VJV3YAYv,2022-06-24_23h24.19.600,jpn_C01,2022.1.2,Linux x86_64,60.0024001,,,space,3.0535,0,44,44,24,1,パツ　シド　ムク,,,CartoonStims/artist_shoot_cowboy_r.jpg,audio/patsusidomuku.mp3,,,,,,,,,,,,,,,,,,,,,,,,,,,,,,,,,,,,,,,,,,,,,,,,,,,,,,,,,,,,,,,,
,,,,,,,,,R_2YAoSy7VJV3YAYv,2022-06-24_23h24.19.600,jpn_C01,2022.1.2,Linux x86_64,60.0024001,,,space,3.0579,0,45,45,40,1,プミ　ホレト　シド,,,CartoonStims/chef_punch_artist_r.jpg,audio/pumihoretosido.mp3,,,,,,,,,,,,,,,,,,,,,,,,,,,,,,,,,,,,,,,,,,,,,,,,,,,,,,,,,,,,,,,,
,,,,,,,,,R_2YAoSy7VJV3YAYv,2022-06-24_23h24.19.600,jpn_C01,2022.1.2,Linux x86_64,60.0024001,,,space,8.4335,0,46,46,16,1,トマ　ホレト　ピポ,,,CartoonStims/chef_point_doctor_r.jpg,audio/tomahoretopipo.mp3,,,,,,,,,,,,,,,,,,,,,,,,,,,,,,,,,,,,,,,,,,,,,,,,,,,,,,,,,,,,,,,,
,,,,,,,,,R_2YAoSy7VJV3YAYv,2022-06-24_23h24.19.600,jpn_C01,2022.1.2,Linux x86_64,60.0024001,,,space,2.7903,0,47,47,46,1,プミ　ドキ　ムク,,,CartoonStims/boxer_punch_cowboy_r.jpg,audio/pumidokimuku.mp3,,,,,,,,,,,,,,,,,,,,,,,,,,,,,,,,,,,,,,,,,,,,,,,,,,,,,,,,,,,,,,,,
,,,,,,,,,R_2YAoSy7VJV3YAYv,2022-06-24_23h24.19.600,jpn_C01,2022.1.2,Linux x86_64,60.0024001,,,,,,,,,,,,,,,space,0.5501,right,1,5.3181,,,,,,,,,,,,,,,,,,0,0,0,0,1,,,,,,,,,,,,,,,,,,,,,,,,,,,,,,,,,,,,,
,,,,,,,,,R_2YAoSy7VJV3YAYv,2022-06-24_23h24.19.600,jpn_C01,2022.1.2,Linux x86_64,60.0024001,,,,,,,,,,,,,,,,,,,,,,,,,0,0,0,1,1,CartoonStims/chef_point_burglar_r.jpg,トマ　ホレト　シド,CartoonStims/chef_point_artist_r.jpg,right,CartoonStims/chef_point_artist_r.jpg,audio/tomahoretosido.mp3,残念！ こちらが正しい画像です。,,,,,,,,,,,,,,,,,,,,,,,,,,,,,,,,,,,,,,,,,,
,,,,,,,,,R_2YAoSy7VJV3YAYv,2022-06-24_23h24.19.600,jpn_C01,2022.1.2,Linux x86_64,60.0024001,,,,,,,,,,,,,,,,,right,1,3.8665,,,,,,,,,,,,,,,,,,0,0,0,0,1,,,,,,,,,,,,,,,,,,,,,,,,,,,,,,,,,,,,,
,,,,,,,,,R_2YAoSy7VJV3YAYv,2022-06-24_23h24.19.600,jpn_C01,2022.1.2,Linux x86_64,60.0024001,,,,,,,,,,,,,,,,,,,,,,,,,0,1,1,3,1,CartoonStims/cowboy_punch_doctor_r.jpg,プミ　ムク　ドキ,CartoonStims/cowboy_punch_boxer_r.jpg,right,CartoonStims/cowboy_punch_boxer_r.jpg,audio/pumimukudoki.mp3,残念！ こちらが正しい画像です。,,,,,,,,,,,,,,,,,,,,,,,,,,,,,,,,,,,,,,,,,,
,,,,,,,,,R_2YAoSy7VJV3YAYv,2022-06-24_23h24.19.600,jpn_C01,2022.1.2,Linux x86_64,60.0024001,,,,,,,,,,,,,,,,,left,1,2.3336,0,0,0,0,1,,,,,,,,,,,,,,,,,,,,,,,,,,,,,,,,,,,,,,,,,,,,,,,,,,,,,,
,,,,,,,,,R_2YAoSy7VJV3YAYv,2022-06-24_23h24.19.600,jpn_C01,2022.1.2,Linux x86_64,60.0024001,,,,,,,,,,,,,,,,,,,,,,,,,0,2,2,4,1,CartoonStims/burglar_point_boxer_r.jpg,トマ　ルピン　ドキ,CartoonStims/burglar_kick_boxer_r.jpg,left,CartoonStims/burglar_point_boxer_r.jpg,audio/tomalupindoki.mp3,残念！ こちらが正しい画像です。,,,,,,,,,,,,,,,,,,,,,,,,,,,,,,,,,,,,,,,,,,
,,,,,,,,,R_2YAoSy7VJV3YAYv,2022-06-24_23h24.19.600,jpn_C01,2022.1.2,Linux x86_64,60.0024001,,,,,,,,,,,,,,,,,left,1,4.1167,0,0,0,0,1,,,,,,,,,,,,,,,,,,,,,,,,,,,,,,,,,,,,,,,,,,,,,,,,,,,,,,
,,,,,,,,,R_2YAoSy7VJV3YAYv,2022-06-24_23h24.19.600,jpn_C01,2022.1.2,Linux x86_64,60.0024001,,,,,,,,,,,,,,,,,,,,,,,,,0,3,3,6,1,CartoonStims/doctor_punch_boxer_r.jpg,プミ　ピポ　ドキ,CartoonStims/doctor_shoot_boxer_r.jpg,left,CartoonStims/doctor_punch_boxer_r.jpg,audio/pumipipodoki.mp3,残念！ こちらが正しい画像です。,,,,,,,,,,,,,,,,,,,,,,,,,,,,,,,,,,,,,,,,,,
,,,,,,,,,R_2YAoSy7VJV3YAYv,2022-06-24_23h24.19.600,jpn_C01,2022.1.2,Linux x86_64,60.0024001,,,,,,,,,,,,,,,,,left,1,2.3338,0,0,0,0,1,,,,,,,,,,,,,,,,,,,,,,,,,,,,,,,,,,,,,,,,,,,,,,,,,,,,,,
,,,,,,,,,R_2YAoSy7VJV3YAYv,2022-06-24_23h24.19.600,jpn_C01,2022.1.2,Linux x86_64,60.0024001,,,,,,,,,,,,,,,,,,,,,,,,,0,4,4,10,1,CartoonStims/artist_shoot_burglar_r.jpg,パツ　シド　ルピン,CartoonStims/chef_shoot_burglar_r.jpg,left,CartoonStims/artist_shoot_burglar_r.jpg,audio/patsusidolupin.mp3,残念！ こちらが正しい画像です。,,,,,,,,,,,,,,,,,,,,,,,,,,,,,,,,,,,,,,,,,,
,,,,,,,,,R_2YAoSy7VJV3YAYv,2022-06-24_23h24.19.600,jpn_C01,2022.1.2,Linux x86_64,60.0024001,,,,,,,,,,,,,,,,,right,1,4.3734,,,,,,,,,,,,,,,,,,0,0,0,0,1,,,,,,,,,,,,,,,,,,,,,,,,,,,,,,,,,,,,,
,,,,,,,,,R_2YAoSy7VJV3YAYv,2022-06-24_23h24.19.600,jpn_C01,2022.1.2,Linux x86_64,60.0024001,,,,,,,,,,,,,,,,,,,,,,,,,0,5,5,11,1,CartoonStims/burglar_punch_cowboy_r.jpg,プミ　ホレト　ムク,CartoonStims/chef_punch_cowboy_r.jpg,right,CartoonStims/chef_punch_cowboy_r.jpg,audio/pumihoretomuku.mp3,残念！ こちらが正しい画像です。,,,,,,,,,,,,,,,,,,,,,,,,,,,,,,,,,,,,,,,,,,
,,,,,,,,,R_2YAoSy7VJV3YAYv,2022-06-24_23h24.19.600,jpn_C01,2022.1.2,Linux x86_64,60.0024001,,,,,,,,,,,,,,,,,right,1,1.5837,,,,,,,,,,,,,,,,,,0,0,0,0,1,,,,,,,,,,,,,,,,,,,,,,,,,,,,,,,,,,,,,
,,,,,,,,,R_2YAoSy7VJV3YAYv,2022-06-24_23h24.19.600,jpn_C01,2022.1.2,Linux x86_64,60.0024001,,,,,,,,,,,,,,,,,,,,,,,,,0,6,6,5,1,CartoonStims/cowboy_point_chef_r.jpg,パツ　ムク　ホレト,CartoonStims/cowboy_shoot_chef_r.jpg,right,CartoonStims/cowboy_shoot_chef_r.jpg,audio/patsumukuhoreto.mp3,残念！ こちらが正しい画像です。,,,,,,,,,,,,,,,,,,,,,,,,,,,,,,,,,,,,,,,,,,
,,,,,,,,,R_2YAoSy7VJV3YAYv,2022-06-24_23h24.19.600,jpn_C01,2022.1.2,Linux x86_64,60.0024001,,,,,,,,,,,,,,,,,right,1,1.807,,,,,,,,,,,,,,,,,,0,0,0,0,1,,,,,,,,,,,,,,,,,,,,,,,,,,,,,,,,,,,,,
,,,,,,,,,R_2YAoSy7VJV3YAYv,2022-06-24_23h24.19.600,jpn_C01,2022.1.2,Linux x86_64,60.0024001,,,,,,,,,,,,,,,,,,,,,,,,,0,7,7,9,1,CartoonStims/chef_kick_artist_r.jpg,セル　ムク　シド,CartoonStims/cowboy_kick_artist_r.jpg,right,CartoonStims/cowboy_kick_artist_r.jpg,audio/serumukusido.mp3,残念！ こちらが正しい画像です。,,,,,,,,,,,,,,,,,,,,,,,,,,,,,,,,,,,,,,,,,,
,,,,,,,,,R_2YAoSy7VJV3YAYv,2022-06-24_23h24.19.600,jpn_C01,2022.1.2,Linux x86_64,60.0024001,,,,,,,,,,,,,,,,,left,1,3.617,0,0,0,0,1,,,,,,,,,,,,,,,,,,,,,,,,,,,,,,,,,,,,,,,,,,,,,,,,,,,,,,
,,,,,,,,,R_2YAoSy7VJV3YAYv,2022-06-24_23h24.19.600,jpn_C01,2022.1.2,Linux x86_64,60.0024001,,,,,,,,,,,,,,,,,,,,,,,,,0,8,8,0,1,CartoonStims/doctor_kick_burglar_r.jpg,セル　ピポ　ルピン,CartoonStims/doctor_kick_chef_r.jpg,left,CartoonStims/doctor_kick_burglar_r.jpg,audio/serupipolupin.mp3,残念！ こちらが正しい画像です。,,,,,,,,,,,,,,,,,,,,,,,,,,,,,,,,,,,,,,,,,,
,,,,,,,,,R_2YAoSy7VJV3YAYv,2022-06-24_23h24.19.600,jpn_C01,2022.1.2,Linux x86_64,60.0024001,,,,,,,,,,,,,,,,,left,1,2.0732,0,0,0,0,1,,,,,,,,,,,,,,,,,,,,,,,,,,,,,,,,,,,,,,,,,,,,,,,,,,,,,,
,,,,,,,,,R_2YAoSy7VJV3YAYv,2022-06-24_23h24.19.600,jpn_C01,2022.1.2,Linux x86_64,60.0024001,,,,,,,,,,,,,,,,,,,,,,,,,0,9,9,2,1,CartoonStims/boxer_shoot_doctor_r.jpg,パツ　ドキ　ピポ,CartoonStims/boxer_shoot_artist_r.jpg,left,CartoonStims/boxer_shoot_doctor_r.jpg,audio/patsudokipipo.mp3,残念！ こちらが正しい画像です。,,,,,,,,,,,,,,,,,,,,,,,,,,,,,,,,,,,,,,,,,,
,,,,,,,,,R_2YAoSy7VJV3YAYv,2022-06-24_23h24.19.600,jpn_C01,2022.1.2,Linux x86_64,60.0024001,,,,,,,,,,,,,,,,,left,1,2.8582,0,0,0,0,1,,,,,,,,,,,,,,,,,,,,,,,,,,,,,,,,,,,,,,,,,,,,,,,,,,,,,,
,,,,,,,,,R_2YAoSy7VJV3YAYv,2022-06-24_23h24.19.600,jpn_C01,2022.1.2,Linux x86_64,60.0024001,,,,,,,,,,,,,,,,,,,,,,,,,0,10,10,8,1,CartoonStims/doctor_point_cowboy_r.jpg,トマ　ピポ　ムク,CartoonStims/boxer_point_cowboy_r.jpg,left,CartoonStims/doctor_point_cowboy_r.jpg,audio/tomapipomuku.mp3,残念！ こちらが正しい画像です。,,,,,,,,,,,,,,,,,,,,,,,,,,,,,,,,,,,,,,,,,,
,,,,,,,,,R_2YAoSy7VJV3YAYv,2022-06-24_23h24.19.600,jpn_C01,2022.1.2,Linux x86_64,60.0024001,,,,,,,,,,,,,,,,,right,1,3.3535,,,,,,,,,,,,,,,,,,0,0,0,0,1,,,,,,,,,,,,,,,,,,,,,,,,,,,,,,,,,,,,,
,,,,,,,,,R_2YAoSy7VJV3YAYv,2022-06-24_23h24.19.600,jpn_C01,2022.1.2,Linux x86_64,60.0024001,,,,,,,,,,,,,,,,,,,,,,,,,0,11,11,7,1,CartoonStims/artist_punch_cowboy_r.jpg,セル　シド　ムク,CartoonStims/artist_kick_cowboy_r.jpg,right,CartoonStims/artist_kick_cowboy_r.jpg,audio/serusidomuku.mp3,残念！ こちらが正しい画像です。,,,,,,,,,,,,,,,,,,,,,,,,,,,,,,,,,,,,,,,,,,
,,,,,,,,,R_2YAoSy7VJV3YAYv,2022-06-24_23h24.19.600,jpn_C01,2022.1.2,Linux x86_64,60.0024001,,,,,,,,,,,,,,,,,,,,,,,,,,,,,,,,,,,,,,,,,,space,2.6002,トマ　シド　ドキ,right,14.3838,0,0,0,0,1,,,,,,,,,,,,,,,,,,,,,,,,,,,
,,,,,,,,,R_2YAoSy7VJV3YAYv,2022-06-24_23h24.19.600,jpn_C01,2022.1.2,Linux x86_64,60.0024001,,,,,,,,,,,,,CartoonStims/artist_point_boxer_r.jpg,audio/tomasidodoki.mp3,,,,,,,,,,,,,,,,,,,,,,,,,,,,,,,,,,,,,,0,0,0,3,1,トマ　シド　ドキ,,,,,,,,,,,,,,,,,,,,,
,,,,,,,,,R_2YAoSy7VJV3YAYv,2022-06-24_23h24.19.600,jpn_C01,2022.1.2,Linux x86_64,60.0024001,,,,,,,,,,,,,,,,,,,,,,,,,,,,,,,,,,,,,,,,,,,,プク　ピポ　ドキ,right,12.5334,0,0,0,0,1,,,,,,,,,,,,,,,,,,,,,,,,,,,
,,,,,,,,,R_2YAoSy7VJV3YAYv,2022-06-24_23h24.19.600,jpn_C01,2022.1.2,Linux x86_64,60.0024001,,,,,,,,,,,,,CartoonStims/doctor_punch_boxer_r.jpg,audio/pumipipodoki.mp3,,,,,,,,,,,,,,,,,,,,,,,,,,,,,,,,,,,,,,0,1,1,10,1,プミ　ピポ　ドキ,,,,,,,,,,,,,,,,,,,,,
,,,,,,,,,R_2YAoSy7VJV3YAYv,2022-06-24_23h24.19.600,jpn_C01,2022.1.2,Linux x86_64,60.0024001,,,,,,,,,,,,,,,,,,,,,,,,,,,,,,,,,,,,,,,,,,,,パツ　ルピン　ホレト,right,18.6334,0,0,0,0,1,,,,,,,,,,,,,,,,,,,,,,,,,,,
,,,,,,,,,R_2YAoSy7VJV3YAYv,2022-06-24_23h24.19.600,jpn_C01,2022.1.2,Linux x86_64,60.0024001,,,,,,,,,,,,,CartoonStims/burglar_shoot_chef_r.jpg,audio/patsulupinhoreto.mp3,,,,,,,,,,,,,,,,,,,,,,,,,,,,,,,,,,,,,,0,2,2,6,1,パツ　ルピン　ホレト,,,,,,,,,,,,,,,,,,,,,
,,,,,,,,,R_2YAoSy7VJV3YAYv,2022-06-24_23h24.19.600,jpn_C01,2022.1.2,Linux x86_64,60.0024001,,,,,,,,,,,,,,,,,,,,,,,,,,,,,,,,,,,,,,,,,,,,サク　ピポ　ホレト,right,11.2999,0,0,0,0,1,,,,,,,,,,,,,,,,,,,,,,,,,,,
,,,,,,,,,R_2YAoSy7VJV3YAYv,2022-06-24_23h24.19.600,jpn_C01,2022.1.2,Linux x86_64,60.0024001,,,,,,,,,,,,,CartoonStims/doctor_kick_chef_r.jpg,audio/serupipohoreto.mp3,,,,,,,,,,,,,,,,,,,,,,,,,,,,,,,,,,,,,,0,3,3,1,1,セル　ピポ　ホレト,,,,,,,,,,,,,,,,,,,,,
,,,,,,,,,R_2YAoSy7VJV3YAYv,2022-06-24_23h24.19.600,jpn_C01,2022.1.2,Linux x86_64,60.0024001,,,,,,,,,,,,,,,,,,,,,,,,,,,,,,,,,,,,,,,,,,,,パツ　ドキ　シド,right,13.7667,0,0,0,0,1,,,,,,,,,,,,,,,,,,,,,,,,,,,
,,,,,,,,,R_2YAoSy7VJV3YAYv,2022-06-24_23h24.19.600,jpn_C01,2022.1.2,Linux x86_64,60.0024001,,,,,,,,,,,,,CartoonStims/boxer_punch_artist_r.jpg,audio/pumidokisido.mp3,,,,,,,,,,,,,,,,,,,,,,,,,,,,,,,,,,,,,,0,4,4,11,1,プミ　ドキ　シド,,,,,,,,,,,,,,,,,,,,,
,,,,,,,,,R_2YAoSy7VJV3YAYv,2022-06-24_23h24.19.600,jpn_C01,2022.1.2,Linux x86_64,60.0024001,,,,,,,,,,,,,,,,,,,,,,,,,,,,,,,,,,,,,,,,,,,,トマ　ルピン　シド,right,10.3857,0,0,0,0,1,,,,,,,,,,,,,,,,,,,,,,,,,,,
,,,,,,,,,R_2YAoSy7VJV3YAYv,2022-06-24_23h24.19.600,jpn_C01,2022.1.2,Linux x86_64,60.0024001,,,,,,,,,,,,,CartoonStims/burglar_point_artist_r.jpg,audio/tomalupinsido.mp3,,,,,,,,,,,,,,,,,,,,,,,,,,,,,,,,,,,,,,0,5,5,4,1,トマ　ルピン　シド,,,,,,,,,,,,,,,,,,,,,
,,,,,,,,,R_2YAoSy7VJV3YAYv,2022-06-24_23h24.19.600,jpn_C01,2022.1.2,Linux x86_64,60.0024001,,,,,,,,,,,,,,,,,,,,,,,,,,,,,,,,,,,,,,,,,,,,セル　ドマ　ルピン,right,35.8647,0,0,0,0,1,,,,,,,,,,,,,,,,,,,,,,,,,,,
,,,,,,,,,R_2YAoSy7VJV3YAYv,2022-06-24_23h24.19.600,jpn_C01,2022.1.2,Linux x86_64,60.0024001,,,,,,,,,,,,,CartoonStims/cowboy_kick_burglar_r.jpg,audio/serumukulupin.mp3,,,,,,,,,,,,,,,,,,,,,,,,,,,,,,,,,,,,,,0,6,6,0,1,セル　ムク　ルピン,,,,,,,,,,,,,,,,,,,,,
,,,,,,,,,R_2YAoSy7VJV3YAYv,2022-06-24_23h24.19.600,jpn_C01,2022.1.2,Linux x86_64,60.0024001,,,,,,,,,,,,,,,,,,,,,,,,,,,,,,,,,,,,,,,,,,,,パツ　ホレト　ムク,right,8.0214,0,0,0,0,1,,,,,,,,,,,,,,,,,,,,,,,,,,,
,,,,,,,,,R_2YAoSy7VJV3YAYv,2022-06-24_23h24.19.600,jpn_C01,2022.1.2,Linux x86_64,60.0024001,,,,,,,,,,,,,CartoonStims/chef_shoot_cowboy_r.jpg,audio/patsuhoretomuku.mp3,,,,,,,,,,,,,,,,,,,,,,,,,,,,,,,,,,,,,,0,7,7,7,1,パツ　ホレト　ムク,,,,,,,,,,,,,,,,,,,,,
,,,,,,,,,R_2YAoSy7VJV3YAYv,2022-06-24_23h24.19.600,jpn_C01,2022.1.2,Linux x86_64,60.0024001,,,,,,,,,,,,,,,,,,,,,,,,,,,,,,,,,,,,,,,,,,,,トク　シド　ルピン,right,31.5469,0,0,0,0,1,,,,,,,,,,,,,,,,,,,,,,,,,,,
,,,,,,,,,R_2YAoSy7VJV3YAYv,2022-06-24_23h24.19.600,jpn_C01,2022.1.2,Linux x86_64,60.0024001,,,,,,,,,,,,,CartoonStims/artist_punch_burglar_r.jpg,audio/pumisidolupin.mp3,,,,,,,,,,,,,,,,,,,,,,,,,,,,,,,,,,,,,,0,8,8,9,1,プミ　シド　ルピン,,,,,,,,,,,,,,,,,,,,,
,,,,,,,,,R_2YAoSy7VJV3YAYv,2022-06-24_23h24.19.600,jpn_C01,2022.1.2,Linux x86_64,60.0024001,,,,,,,,,,,,,,,,,,,,,,,,,,,,,,,,,,,,,,,,,,,,トマ　ホレト　ルピン,right,6.2201,0,0,0,0,1,,,,,,,,,,,,,,,,,,,,,,,,,,,
,,,,,,,,,R_2YAoSy7VJV3YAYv,2022-06-24_23h24.19.600,jpn_C01,2022.1.2,Linux x86_64,60.0024001,,,,,,,,,,,,,CartoonStims/chef_point_burglar_r.jpg,audio/tomahoretolupin.mp3,,,,,,,,,,,,,,,,,,,,,,,,,,,,,,,,,,,,,,0,9,9,5,1,トマ　ホレト　ルピン,,,,,,,,,,,,,,,,,,,,,
,,,,,,,,,R_2YAoSy7VJV3YAYv,2022-06-24_23h24.19.600,jpn_C01,2022.1.2,Linux x86_64,60.0024001,,,,,,,,,,,,,,,,,,,,,,,,,,,,,,,,,,,,,,,,,,,,サク　ドキ　ムク,right,18.3184,0,0,0,0,1,,,,,,,,,,,,,,,,,,,,,,,,,,,
,,,,,,,,,R_2YAoSy7VJV3YAYv,2022-06-24_23h24.19.600,jpn_C01,2022.1.2,Linux x86_64,60.0024001,,,,,,,,,,,,,CartoonStims/boxer_kick_cowboy_r.jpg,audio/serudokimuku.mp3,,,,,,,,,,,,,,,,,,,,,,,,,,,,,,,,,,,,,,0,10,10,2,1,セル　ドキ　ムク,,,,,,,,,,,,,,,,,,,,,
,,,,,,,,,R_2YAoSy7VJV3YAYv,2022-06-24_23h24.19.600,jpn_C01,2022.1.2,Linux x86_64,60.0024001,,,,,,,,,,,,,,,,,,,,,,,,,,,,,,,,,,,,,,,,,,,,パツ　ムク　ピポ,right,7.3302,0,0,0,0,1,,,,,,,,,,,,,,,,,,,,,,,,,,,
,,,,,,,,,R_2YAoSy7VJV3YAYv,2022-06-24_23h24.19.600,jpn_C01,2022.1.2,Linux x86_64,60.0024001,,,,,,,,,,,,,CartoonStims/cowboy_shoot_doctor_r.jpg,audio/patsumukupipo.mp3,,,,,,,,,,,,,,,,,,,,,,,,,,,,,,,,,,,,,,0,11,11,8,1,パツ　ムク　ピポ,,,,,,,,,,,,,,,,,,,,,
,,,,,,,,,R_2YAoSy7VJV3YAYv,2022-06-24_23h24.19.600,jpn_C01,2022.1.2,Linux x86_64,60.0024001,,,,,,,,,,,,,,,,,,,,,,,,,,,,,,,,,,,,,,,,,,,,,,,,,,,,,,,,,,,space,2.1774,0,1,1,1,1,AffExposure.xlsx,"第二のトライアルの学習では、この言語で書かれた文を見ていただきます。引き続き注意して、 聞こえた音を復唱してください。


スペースキーを押してください。",1,AffFCT.xlsx,ここからクイズが始まります。 スクリーンに表示されるテキストに合う画像を選んでください。,AffTest.xlsx,1,次にここまで学んだことをアウトプットしていただきます。 表示される画像を描写していると思う単語を、テキストボックスにタイプしてください。 答えを提出したあとに正しい正解が少しの間画面に写ります。,1,"これで第二のトライアルが終了しました。 ここで休憩をとっていただいても構いません。

休憩が終わりましたら、 スペースキーを押して続きの学習を行いましょう。",,,
,,,,,,,,,R_2YAoSy7VJV3YAYv,2022-06-24_23h24.19.600,jpn_C01,2022.1.2,Linux x86_64,60.0024001,space,10.2271,space,9.9571,0,0,0,34,1,パツ　ピク　ドキ　ホレト,,,CartoonStims/boxer_shoot_chef_r_no.jpg,audio/patsupikudokihoreto.mp3,,,,,,,,,,,,,,,,,,,,,,,,,,,,,,,,,,,,,,,,,,,,,,,,,,,,,,,,,,,,,,,,
,,,,,,,,,R_2YAoSy7VJV3YAYv,2022-06-24_23h24.19.600,jpn_C01,2022.1.2,Linux x86_64,60.0024001,,,space,3.5679,0,1,1,9,1,セル　ピク　ピポ　シド,,,CartoonStims/doctor_kick_artist_r_no.jpg,audio/serupikupiposido.mp3,,,,,,,,,,,,,,,,,,,,,,,,,,,,,,,,,,,,,,,,,,,,,,,,,,,,,,,,,,,,,,,,
,,,,,,,,,R_2YAoSy7VJV3YAYv,2022-06-24_23h24.19.600,jpn_C01,2022.1.2,Linux x86_64,60.0024001,,,space,4.0767,0,2,2,22,1,トマ　ピク　ドキ　ルピン,,,CartoonStims/boxer_point_burglar_r_no.jpg,audio/tomapikudokilupin.mp3,,,,,,,,,,,,,,,,,,,,,,,,,,,,,,,,,,,,,,,,,,,,,,,,,,,,,,,,,,,,,,,,
,,,,,,,,,R_2YAoSy7VJV3YAYv,2022-06-24_23h24.19.600,jpn_C01,2022.1.2,Linux x86_64,60.0024001,,,space,11.5071,0,3,3,17,1,ピク　トマ　ホレト　ドキ,,,CartoonStims/chef_point_boxer_r_no.jpg,audio/pikutomahoretodoki.mp3,,,,,,,,,,,,,,,,,,,,,,,,,,,,,,,,,,,,,,,,,,,,,,,,,,,,,,,,,,,,,,,,
,,,,,,,,,R_2YAoSy7VJV3YAYv,2022-06-24_23h24.19.600,jpn_C01,2022.1.2,Linux x86_64,60.0024001,,,space,7.41,0,4,4,44,1,ピク　プミ　ピポ　ホレト,,,CartoonStims/doctor_punch_chef_r_no.jpg,audio/pikupumipipohoreto.mp3,,,,,,,,,,,,,,,,,,,,,,,,,,,,,,,,,,,,,,,,,,,,,,,,,,,,,,,,,,,,,,,,
,,,,,,,,,R_2YAoSy7VJV3YAYv,2022-06-24_23h24.19.600,jpn_C01,2022.1.2,Linux x86_64,60.0024001,,,space,14.324,0,5,5,40,1,ピク　プミ　ホレト　シド,,,CartoonStims/chef_punch_artist_r_no.jpg,audio/pikupumihoretosido.mp3,,,,,,,,,,,,,,,,,,,,,,,,,,,,,,,,,,,,,,,,,,,,,,,,,,,,,,,,,,,,,,,,
,,,,,,,,,R_2YAoSy7VJV3YAYv,2022-06-24_23h24.19.600,jpn_C01,2022.1.2,Linux x86_64,60.0024001,,,space,5.1079,0,6,6,24,1,パツ　ピク　シド　ムク,,,CartoonStims/artist_shoot_cowboy_r_no.jpg,audio/patsupikusidomuku.mp3,,,,,,,,,,,,,,,,,,,,,,,,,,,,,,,,,,,,,,,,,,,,,,,,,,,,,,,,,,,,,,,,
,,,,,,,,,R_2YAoSy7VJV3YAYv,2022-06-24_23h24.19.600,jpn_C01,2022.1.2,Linux x86_64,60.0024001,,,space,2.2866,0,7,7,28,1,パツ　ピク　ホレト　ドキ,,,CartoonStims/chef_shoot_boxer_r_no.jpg,audio/patsupikuhoretodoki.mp3,,,,,,,,,,,,,,,,,,,,,,,,,,,,,,,,,,,,,,,,,,,,,,,,,,,,,,,,,,,,,,,,
,,,,,,,,,R_2YAoSy7VJV3YAYv,2022-06-24_23h24.19.600,jpn_C01,2022.1.2,Linux x86_64,60.0024001,,,space,9.7105,0,8,8,45,1,プミ　ピク　ピポ　ムク,,,CartoonStims/doctor_punch_cowboy_r_no.jpg,audio/pumipikupipomuku.mp3,,,,,,,,,,,,,,,,,,,,,,,,,,,,,,,,,,,,,,,,,,,,,,,,,,,,,,,,,,,,,,,,
,,,,,,,,,R_2YAoSy7VJV3YAYv,2022-06-24_23h24.19.600,jpn_C01,2022.1.2,Linux x86_64,60.0024001,,,space,4.6004,0,9,9,14,1,トマ　ピク　ルピン　ムク,,,CartoonStims/burglar_point_cowboy_r_no.jpg,audio/tomapikulupinmuku.mp3,,,,,,,,,,,,,,,,,,,,,,,,,,,,,,,,,,,,,,,,,,,,,,,,,,,,,,,,,,,,,,,,
,,,,,,,,,R_2YAoSy7VJV3YAYv,2022-06-24_23h24.19.600,jpn_C01,2022.1.2,Linux x86_64,60.0024001,,,space,5.094,0,10,10,39,1,プミ　ピク　ルピン　シド,,,CartoonStims/burglar_punch_artist_r_no.jpg,audio/pumipikulupinsido.mp3,,,,,,,,,,,,,,,,,,,,,,,,,,,,,,,,,,,,,,,,,,,,,,,,,,,,,,,,,,,,,,,,
,,,,,,,,,R_2YAoSy7VJV3YAYv,2022-06-24_23h24.19.600,jpn_C01,2022.1.2,Linux x86_64,60.0024001,,,space,9.2035,0,11,11,18,1,トマ　ピク　ムク　ドキ,,,CartoonStims/cowboy_point_boxer_r_no.jpg,audio/tomapikumukudoki.mp3,,,,,,,,,,,,,,,,,,,,,,,,,,,,,,,,,,,,,,,,,,,,,,,,,,,,,,,,,,,,,,,,
,,,,,,,,,R_2YAoSy7VJV3YAYv,2022-06-24_23h24.19.600,jpn_C01,2022.1.2,Linux x86_64,60.0024001,,,space,13.0557,0,12,12,37,1,プミ　ピク　シド　ドキ,,,CartoonStims/artist_punch_boxer_r_no.jpg,audio/pumipikusidodoki.mp3,,,,,,,,,,,,,,,,,,,,,,,,,,,,,,,,,,,,,,,,,,,,,,,,,,,,,,,,,,,,,,,,
,,,,,,,,,R_2YAoSy7VJV3YAYv,2022-06-24_23h24.19.600,jpn_C01,2022.1.2,Linux x86_64,60.0024001,,,space,7.9396,0,13,13,3,1,セル　ピク　ルピン　ムク,,,CartoonStims/burglar_kick_cowboy_r_no.jpg,audio/serupikulupinmuku.mp3,,,,,,,,,,,,,,,,,,,,,,,,,,,,,,,,,,,,,,,,,,,,,,,,,,,,,,,,,,,,,,,,
,,,,,,,,,R_2YAoSy7VJV3YAYv,2022-06-24_23h24.19.600,jpn_C01,2022.1.2,Linux x86_64,60.0024001,,,space,6.8837,0,14,14,23,1,ピク　トマ　ドキ　ホレト,,,CartoonStims/boxer_point_chef_r_no.jpg,audio/pikutomadokihoreto.mp3,,,,,,,,,,,,,,,,,,,,,,,,,,,,,,,,,,,,,,,,,,,,,,,,,,,,,,,,,,,,,,,,
,,,,,,,,,R_2YAoSy7VJV3YAYv,2022-06-24_23h24.19.600,jpn_C01,2022.1.2,Linux x86_64,60.0024001,,,space,4.5837,0,15,15,0,1,ピク　セル　シド　ルピン,,,CartoonStims/artist_kick_burglar_r_no.jpg,audio/pikuserusidolupin.mp3,,,,,,,,,,,,,,,,,,,,,,,,,,,,,,,,,,,,,,,,,,,,,,,,,,,,,,,,,,,,,,,,
,,,,,,,,,R_2YAoSy7VJV3YAYv,2022-06-24_23h24.19.600,jpn_C01,2022.1.2,Linux x86_64,60.0024001,,,space,4.0699,0,16,16,16,1,トマ　ピク　ホレト　ピポ,,,CartoonStims/chef_point_doctor_r_no.jpg,audio/tomapikuhoretopipo.mp3,,,,,,,,,,,,,,,,,,,,,,,,,,,,,,,,,,,,,,,,,,,,,,,,,,,,,,,,,,,,,,,,
,,,,,,,,,R_2YAoSy7VJV3YAYv,2022-06-24_23h24.19.600,jpn_C01,2022.1.2,Linux x86_64,60.0024001,,,space,3.8237,0,17,17,12,1,トマ　ピク　シド　ホレト,,,CartoonStims/artist_point_chef_r_no.jpg,audio/tomapikusidohoreto.mp3,,,,,,,,,,,,,,,,,,,,,,,,,,,,,,,,,,,,,,,,,,,,,,,,,,,,,,,,,,,,,,,,
,,,,,,,,,R_2YAoSy7VJV3YAYv,2022-06-24_23h24.19.600,jpn_C01,2022.1.2,Linux x86_64,60.0024001,,,space,4.0837,0,18,18,31,1,ピク　パツ　ムク　ルピン,,,CartoonStims/cowboy_shoot_burglar_r_no.jpg,audio/pikupatsumukulupin.mp3,,,,,,,,,,,,,,,,,,,,,,,,,,,,,,,,,,,,,,,,,,,,,,,,,,,,,,,,,,,,,,,,
,,,,,,,,,R_2YAoSy7VJV3YAYv,2022-06-24_23h24.19.600,jpn_C01,2022.1.2,Linux x86_64,60.0024001,,,space,8.6997,0,19,19,19,1,ピク　トマ　ムク　シド,,,CartoonStims/cowboy_point_artist_r_no.jpg,audio/pikutomamukusido.mp3,,,,,,,,,,,,,,,,,,,,,,,,,,,,,,,,,,,,,,,,,,,,,,,,,,,,,,,,,,,,,,,,
,,,,,,,,,R_2YAoSy7VJV3YAYv,2022-06-24_23h24.19.600,jpn_C01,2022.1.2,Linux x86_64,60.0024001,,,space,3.8247,0,20,20,41,1,プミ　ピク　ホレト　ルピン,,,CartoonStims/chef_punch_burglar_r_no.jpg,audio/pumipikuhoretolupin.mp3,,,,,,,,,,,,,,,,,,,,,,,,,,,,,,,,,,,,,,,,,,,,,,,,,,,,,,,,,,,,,,,,
,,,,,,,,,R_2YAoSy7VJV3YAYv,2022-06-24_23h24.19.600,jpn_C01,2022.1.2,Linux x86_64,60.0024001,,,space,5.3343,0,21,21,8,1,ピク　セル　ピポ　ドキ,,,CartoonStims/doctor_kick_boxer_r_no.jpg,audio/pikuserupipodoki.mp3,,,,,,,,,,,,,,,,,,,,,,,,,,,,,,,,,,,,,,,,,,,,,,,,,,,,,,,,,,,,,,,,
,,,,,,,,,R_2YAoSy7VJV3YAYv,2022-06-24_23h24.19.600,jpn_C01,2022.1.2,Linux x86_64,60.0024001,,,space,4.5869,0,22,22,46,1,ピク　プミ　ドキ　ムク,,,CartoonStims/boxer_punch_cowboy_r_no.jpg,audio/pikupumidokimuku.mp3,,,,,,,,,,,,,,,,,,,,,,,,,,,,,,,,,,,,,,,,,,,,,,,,,,,,,,,,,,,,,,,,
,,,,,,,,,R_2YAoSy7VJV3YAYv,2022-06-24_23h24.19.600,jpn_C01,2022.1.2,Linux x86_64,60.0024001,,,space,3.3254,0,23,23,1,1,セル　ピク　シド　ホレト,,,CartoonStims/artist_kick_chef_r_no.jpg,audio/serupikusidohoreto.mp3,,,,,,,,,,,,,,,,,,,,,,,,,,,,,,,,,,,,,,,,,,,,,,,,,,,,,,,,,,,,,,,,
,,,,,,,,,R_2YAoSy7VJV3YAYv,2022-06-24_23h24.19.600,jpn_C01,2022.1.2,Linux x86_64,60.0024001,,,space,5.1007,0,24,24,5,1,セル　ピク　ホレト　ピポ,,,CartoonStims/chef_kick_doctor_r_no.jpg,audio/serupikuhoretopipo.mp3,,,,,,,,,,,,,,,,,,,,,,,,,,,,,,,,,,,,,,,,,,,,,,,,,,,,,,,,,,,,,,,,
,,,,,,,,,R_2YAoSy7VJV3YAYv,2022-06-24_23h24.19.600,jpn_C01,2022.1.2,Linux x86_64,60.0024001,,,space,3.0504,0,25,25,15,1,ピク　トマ　ルピン　ピポ,,,CartoonStims/burglar_point_doctor_r_no.jpg,audio/pikutomalupinpipo.mp3,,,,,,,,,,,,,,,,,,,,,,,,,,,,,,,,,,,,,,,,,,,,,,,,,,,,,,,,,,,,,,,,
,,,,,,,,,R_2YAoSy7VJV3YAYv,2022-06-24_23h24.19.600,jpn_C01,2022.1.2,Linux x86_64,60.0024001,,,space,4.0673,0,26,26,21,1,ピク　トマ　ピポ　ルピン,,,CartoonStims/doctor_point_burglar_r_no.jpg,audio/pikutomapipolupin.mp3,,,,,,,,,,,,,,,,,,,,,,,,,,,,,,,,,,,,,,,,,,,,,,,,,,,,,,,,,,,,,,,,
,,,,,,,,,R_2YAoSy7VJV3YAYv,2022-06-24_23h24.19.600,jpn_C01,2022.1.2,Linux x86_64,60.0024001,,,space,4.5882,0,27,27,13,1,ピク　トマ　シド　ムク,,,CartoonStims/artist_point_cowboy_r_no.jpg,audio/pikutomasidomuku.mp3,,,,,,,,,,,,,,,,,,,,,,,,,,,,,,,,,,,,,,,,,,,,,,,,,,,,,,,,,,,,,,,,
,,,,,,,,,R_2YAoSy7VJV3YAYv,2022-06-24_23h24.19.600,jpn_C01,2022.1.2,Linux x86_64,60.0024001,,,space,3.3171,0,28,28,33,1,ピク　パツ　ピポ　ホレト,,,CartoonStims/doctor_shoot_chef_r_no.jpg,audio/pikupatsupipohoreto.mp3,,,,,,,,,,,,,,,,,,,,,,,,,,,,,,,,,,,,,,,,,,,,,,,,,,,,,,,,,,,,,,,,
,,,,,,,,,R_2YAoSy7VJV3YAYv,2022-06-24_23h24.19.600,jpn_C01,2022.1.2,Linux x86_64,60.0024001,,,space,9.4505,0,29,29,43,1,プミ　ピク　ムク　ホレト,,,CartoonStims/cowboy_punch_chef_r_no.jpg,audio/pumipikumukuhoreto.mp3,,,,,,,,,,,,,,,,,,,,,,,,,,,,,,,,,,,,,,,,,,,,,,,,,,,,,,,,,,,,,,,,
,,,,,,,,,R_2YAoSy7VJV3YAYv,2022-06-24_23h24.19.600,jpn_C01,2022.1.2,Linux x86_64,60.0024001,,,space,4.6005,0,30,30,29,1,ピク　パツ　ホレト　シド,,,CartoonStims/chef_shoot_artist_r_no.jpg,audio/pikupatsuhoretosido.mp3,,,,,,,,,,,,,,,,,,,,,,,,,,,,,,,,,,,,,,,,,,,,,,,,,,,,,,,,,,,,,,,,
,,,,,,,,,R_2YAoSy7VJV3YAYv,2022-06-24_23h24.19.600,jpn_C01,2022.1.2,Linux x86_64,60.0024001,,,space,4.3337,0,31,31,20,1,トマ　ピク　ピポ　シド,,,CartoonStims/doctor_point_artist_r_no.jpg,audio/tomapikupiposido.mp3,,,,,,,,,,,,,,,,,,,,,,,,,,,,,,,,,,,,,,,,,,,,,,,,,,,,,,,,,,,,,,,,
,,,,,,,,,R_2YAoSy7VJV3YAYv,2022-06-24_23h24.19.600,jpn_C01,2022.1.2,Linux x86_64,60.0024001,,,space,3.8346,0,32,32,26,1,パツ　ピク　ルピン　ピポ,,,CartoonStims/burglar_shoot_doctor_r_no.jpg,audio/patsupikulupinpipo.mp3,,,,,,,,,,,,,,,,,,,,,,,,,,,,,,,,,,,,,,,,,,,,,,,,,,,,,,,,,,,,,,,,
,,,,,,,,,R_2YAoSy7VJV3YAYv,2022-06-24_23h24.19.600,jpn_C01,2022.1.2,Linux x86_64,60.0024001,,,space,3.8014,0,33,33,27,1,ピク　パツ　ルピン　ドキ,,,CartoonStims/burglar_shoot_boxer_r_no.jpg,audio/pikupatsulupindoki.mp3,,,,,,,,,,,,,,,,,,,,,,,,,,,,,,,,,,,,,,,,,,,,,,,,,,,,,,,,,,,,,,,,
,,,,,,,,,R_2YAoSy7VJV3YAYv,2022-06-24_23h24.19.600,jpn_C01,2022.1.2,Linux x86_64,60.0024001,,,space,3.8177,0,34,34,4,1,ピク　セル　ホレト　ムク,,,CartoonStims/chef_kick_cowboy_r_no.jpg,audio/pikuseruhoretomuku.mp3,,,,,,,,,,,,,,,,,,,,,,,,,,,,,,,,,,,,,,,,,,,,,,,,,,,,,,,,,,,,,,,,
,,,,,,,,,R_2YAoSy7VJV3YAYv,2022-06-24_23h24.19.600,jpn_C01,2022.1.2,Linux x86_64,60.0024001,,,space,3.828,0,35,35,38,1,ピク　プミ　ルピン　ドキ,,,CartoonStims/burglar_punch_boxer_r_no.jpg,audio/pikupumilupindoki.mp3,,,,,,,,,,,,,,,,,,,,,,,,,,,,,,,,,,,,,,,,,,,,,,,,,,,,,,,,,,,,,,,,
,,,,,,,,,R_2YAoSy7VJV3YAYv,2022-06-24_23h24.19.600,jpn_C01,2022.1.2,Linux x86_64,60.0024001,,,space,3.578,0,36,36,25,1,ピク　パツ　シド　ピポ,,,CartoonStims/artist_shoot_doctor_r_no.jpg,audio/pikupatsusidopipo.mp3,,,,,,,,,,,,,,,,,,,,,,,,,,,,,,,,,,,,,,,,,,,,,,,,,,,,,,,,,,,,,,,,
,,,,,,,,,R_2YAoSy7VJV3YAYv,2022-06-24_23h24.19.600,jpn_C01,2022.1.2,Linux x86_64,60.0024001,,,space,4.0535,0,37,37,2,1,ピク　セル　ルピン　ホレト,,,CartoonStims/burglar_kick_chef_r_no.jpg,audio/pikuserulupinhoreto.mp3,,,,,,,,,,,,,,,,,,,,,,,,,,,,,,,,,,,,,,,,,,,,,,,,,,,,,,,,,,,,,,,,
,,,,,,,,,R_2YAoSy7VJV3YAYv,2022-06-24_23h24.19.600,jpn_C01,2022.1.2,Linux x86_64,60.0024001,,,space,5.1006,0,38,38,11,1,セル　ピク　ドキ　ルピン,,,CartoonStims/boxer_kick_burglar_r_no.jpg,audio/serupikudokilupin.mp3,,,,,,,,,,,,,,,,,,,,,,,,,,,,,,,,,,,,,,,,,,,,,,,,,,,,,,,,,,,,,,,,
,,,,,,,,,R_2YAoSy7VJV3YAYv,2022-06-24_23h24.19.600,jpn_C01,2022.1.2,Linux x86_64,60.0024001,,,space,3.5849,0,39,39,35,1,ピク　パツ　ドキ　ムク,,,CartoonStims/boxer_shoot_cowboy_r_no.jpg,audio/pikupatsudokimuku.mp3,,,,,,,,,,,,,,,,,,,,,,,,,,,,,,,,,,,,,,,,,,,,,,,,,,,,,,,,,,,,,,,,
,,,,,,,,,R_2YAoSy7VJV3YAYv,2022-06-24_23h24.19.600,jpn_C01,2022.1.2,Linux x86_64,60.0024001,,,space,3.6535,0,40,40,6,1,ピク　セル　ムク　ピポ,,,CartoonStims/cowboy_kick_doctor_r_no.jpg,audio/pikuserumukupipo.mp3,,,,,,,,,,,,,,,,,,,,,,,,,,,,,,,,,,,,,,,,,,,,,,,,,,,,,,,,,,,,,,,,
,,,,,,,,,R_2YAoSy7VJV3YAYv,2022-06-24_23h24.19.600,jpn_C01,2022.1.2,Linux x86_64,60.0024001,,,space,3.9786,0,41,41,36,1,ピク　プミ　シド　ピポ,,,CartoonStims/artist_punch_doctor_r_no.jpg,audio/pikupumisidopipo.mp3,,,,,,,,,,,,,,,,,,,,,,,,,,,,,,,,,,,,,,,,,,,,,,,,,,,,,,,,,,,,,,,,
,,,,,,,,,R_2YAoSy7VJV3YAYv,2022-06-24_23h24.19.600,jpn_C01,2022.1.2,Linux x86_64,60.0024001,,,space,4.8508,0,42,42,32,1,パツ　ピク　ピポ　ルピン,,,CartoonStims/doctor_shoot_burglar_r_no.jpg,audio/patsupikupipolupin.mp3,,,,,,,,,,,,,,,,,,,,,,,,,,,,,,,,,,,,,,,,,,,,,,,,,,,,,,,,,,,,,,,,
,,,,,,,,,R_2YAoSy7VJV3YAYv,2022-06-24_23h24.19.600,jpn_C01,2022.1.2,Linux x86_64,60.0024001,,,space,5.6038,0,43,43,42,1,ピク　プミ　ムク　ルピン,,,CartoonStims/cowboy_punch_burglar_r_no.jpg,audio/pikupumimukulupin.mp3,,,,,,,,,,,,,,,,,,,,,,,,,,,,,,,,,,,,,,,,,,,,,,,,,,,,,,,,,,,,,,,,
,,,,,,,,,R_2YAoSy7VJV3YAYv,2022-06-24_23h24.19.600,jpn_C01,2022.1.2,Linux x86_64,60.0024001,,,space,3.0534,0,44,44,30,1,パツ　ピク　ムク　シド,,,CartoonStims/cowboy_shoot_artist_r_no.jpg,audio/patsupikumukusido.mp3,,,,,,,,,,,,,,,,,,,,,,,,,,,,,,,,,,,,,,,,,,,,,,,,,,,,,,,,,,,,,,,,
,,,,,,,,,R_2YAoSy7VJV3YAYv,2022-06-24_23h24.19.600,jpn_C01,2022.1.2,Linux x86_64,60.0024001,,,space,4.3321,0,45,45,47,1,プミ　ピク　ドキ　ピポ,,,CartoonStims/boxer_punch_doctor_r_no.jpg,audio/pumipikudokipipo.mp3,,,,,,,,,,,,,,,,,,,,,,,,,,,,,,,,,,,,,,,,,,,,,,,,,,,,,,,,,,,,,,,,
,,,,,,,,,R_2YAoSy7VJV3YAYv,2022-06-24_23h24.19.600,jpn_C01,2022.1.2,Linux x86_64,60.0024001,,,space,4.3337,0,46,46,10,1,ピク　セル　ドキ　シド,,,CartoonStims/boxer_kick_artist_r_no.jpg,audio/pikuserudokisido.mp3,,,,,,,,,,,,,,,,,,,,,,,,,,,,,,,,,,,,,,,,,,,,,,,,,,,,,,,,,,,,,,,,
,,,,,,,,,R_2YAoSy7VJV3YAYv,2022-06-24_23h24.19.600,jpn_C01,2022.1.2,Linux x86_64,60.0024001,,,space,3.0602,0,47,47,7,1,セル　ピク　ムク　ドキ,,,CartoonStims/cowboy_kick_boxer_r_no.jpg,audio/serupikumukudoki.mp3,,,,,,,,,,,,,,,,,,,,,,,,,,,,,,,,,,,,,,,,,,,,,,,,,,,,,,,,,,,,,,,,
,,,,,,,,,R_2YAoSy7VJV3YAYv,2022-06-24_23h24.19.600,jpn_C01,2022.1.2,Linux x86_64,60.0024001,,,,,,,,,,,,,,,space,0.4241,left,1,11.0835,0,0,0,0,1,,,,,,,,,,,,,,,,,,,,,,,,,,,,,,,,,,,,,,,,,,,,,,,,,,,,,,
,,,,,,,,,R_2YAoSy7VJV3YAYv,2022-06-24_23h24.19.600,jpn_C01,2022.1.2,Linux x86_64,60.0024001,,,,,,,,,,,,,,,,,,,,,,,,,0,0,0,8,1,CartoonStims/burglar_punch_artist_r.jpg,トマ　ピク　ルピン　シド,CartoonStims/burglar_point_artist_r.jpg,left,CartoonStims/burglar_punch_artist_r.jpg,audio/tomapikulupinsido.mp3,"残念！ こちらが正しい画像です。

否定文は起きていないことを示しているのを思い出してください。",,,,,,,,,,,,,,,,,,,,,,,,,,,,,,,,,,,,,,,,,,
,,,,,,,,,R_2YAoSy7VJV3YAYv,2022-06-24_23h24.19.600,jpn_C01,2022.1.2,Linux x86_64,60.0024001,,,,,,,,,,,,,,,,,left,1,3.354,0,0,0,0,1,,,,,,,,,,,,,,,,,,,,,,,,,,,,,,,,,,,,,,,,,,,,,,,,,,,,,,
,,,,,,,,,R_2YAoSy7VJV3YAYv,2022-06-24_23h24.19.600,jpn_C01,2022.1.2,Linux x86_64,60.0024001,,,,,,,,,,,,,,,,,,,,,,,,,0,1,1,2,1,CartoonStims/doctor_point_boxer_r.jpg,ピク　プミ　ピポ　ドキ,CartoonStims/doctor_punch_boxer_r.jpg,left,CartoonStims/doctor_point_boxer_r.jpg,audio/pikupumipipodoki.mp3,"残念！ こちらが正しい画像です。

否定文は起きていないことを示しているのを思い出してください。",,,,,,,,,,,,,,,,,,,,,,,,,,,,,,,,,,,,,,,,,,
,,,,,,,,,R_2YAoSy7VJV3YAYv,2022-06-24_23h24.19.600,jpn_C01,2022.1.2,Linux x86_64,60.0024001,,,,,,,,,,,,,,,,,right,1,7.7108,,,,,,,,,,,,,,,,,,0,0,0,0,1,,,,,,,,,,,,,,,,,,,,,,,,,,,,,,,,,,,,,
,,,,,,,,,R_2YAoSy7VJV3YAYv,2022-06-24_23h24.19.600,jpn_C01,2022.1.2,Linux x86_64,60.0024001,,,,,,,,,,,,,,,,,,,,,,,,,0,2,2,1,1,CartoonStims/chef_punch_cowboy_r.jpg,プミ　ピク　ホレト　ムク,CartoonStims/chef_kick_cowboy_r.jpg,right,CartoonStims/chef_kick_cowboy_r.jpg,audio/pumipikuhoretomuku.mp3,"残念！ こちらが正しい画像です。

否定文は起きていないことを示しているのを思い出してください。",,,,,,,,,,,,,,,,,,,,,,,,,,,,,,,,,,,,,,,,,,
,,,,,,,,,R_2YAoSy7VJV3YAYv,2022-06-24_23h24.19.600,jpn_C01,2022.1.2,Linux x86_64,60.0024001,,,,,,,,,,,,,,,,,right,1,2.5977,,,,,,,,,,,,,,,,,,0,0,0,0,1,,,,,,,,,,,,,,,,,,,,,,,,,,,,,,,,,,,,,
,,,,,,,,,R_2YAoSy7VJV3YAYv,2022-06-24_23h24.19.600,jpn_C01,2022.1.2,Linux x86_64,60.0024001,,,,,,,,,,,,,,,,,,,,,,,,,0,3,3,5,1,CartoonStims/boxer_kick_cowboy_r.jpg,ピク　セル　ドキ　ムク,CartoonStims/boxer_punch_cowboy_r.jpg,right,CartoonStims/boxer_punch_cowboy_r.jpg,audio/pikuserudokimuku.mp3,"残念！ こちらが正しい画像です。

否定文は起きていないことを示しているのを思い出してください。",,,,,,,,,,,,,,,,,,,,,,,,,,,,,,,,,,,,,,,,,,
,,,,,,,,,R_2YAoSy7VJV3YAYv,2022-06-24_23h24.19.600,jpn_C01,2022.1.2,Linux x86_64,60.0024001,,,,,,,,,,,,,,,,,left,1,2.602,0,0,0,0,1,,,,,,,,,,,,,,,,,,,,,,,,,,,,,,,,,,,,,,,,,,,,,,,,,,,,,,
,,,,,,,,,R_2YAoSy7VJV3YAYv,2022-06-24_23h24.19.600,jpn_C01,2022.1.2,Linux x86_64,60.0024001,,,,,,,,,,,,,,,,,,,,,,,,,0,4,4,4,1,CartoonStims/burglar_shoot_doctor_r.jpg,セル　ピク　ルピン　ピポ,CartoonStims/burglar_kick_doctor_r.jpg,left,CartoonStims/burglar_shoot_doctor_r.jpg,audio/serupikulupinpipo.mp3,"残念！ こちらが正しい画像です。

否定文は起きていないことを示しているのを思い出してください。",,,,,,,,,,,,,,,,,,,,,,,,,,,,,,,,,,,,,,,,,,
,,,,,,,,,R_2YAoSy7VJV3YAYv,2022-06-24_23h24.19.600,jpn_C01,2022.1.2,Linux x86_64,60.0024001,,,,,,,,,,,,,,,,,right,1,2.8415,,,,,,,,,,,,,,,,,,0,0,0,0,1,,,,,,,,,,,,,,,,,,,,,,,,,,,,,,,,,,,,,
,,,,,,,,,R_2YAoSy7VJV3YAYv,2022-06-24_23h24.19.600,jpn_C01,2022.1.2,Linux x86_64,60.0024001,,,,,,,,,,,,,,,,,,,,,,,,,0,5,5,9,1,CartoonStims/boxer_shoot_doctor_r.jpg,パツ　ピク　ドキ　ピポ,CartoonStims/boxer_point_doctor_r.jpg,right,CartoonStims/boxer_point_doctor_r.jpg,audio/patsupikudokipipo.mp3,"残念！ こちらが正しい画像です。

否定文は起きていないことを示しているのを思い出してください。",,,,,,,,,,,,,,,,,,,,,,,,,,,,,,,,,,,,,,,,,,
,,,,,,,,,R_2YAoSy7VJV3YAYv,2022-06-24_23h24.19.600,jpn_C01,2022.1.2,Linux x86_64,60.0024001,,,,,,,,,,,,,,,,,left,1,5.9452,0,0,0,0,1,,,,,,,,,,,,,,,,,,,,,,,,,,,,,,,,,,,,,,,,,,,,,,,,,,,,,,
,,,,,,,,,R_2YAoSy7VJV3YAYv,2022-06-24_23h24.19.600,jpn_C01,2022.1.2,Linux x86_64,60.0024001,,,,,,,,,,,,,,,,,,,,,,,,,0,6,6,6,1,CartoonStims/artist_shoot_boxer_r.jpg,トマ　ピク　シド　ドキ,CartoonStims/artist_point_boxer_r.jpg,left,CartoonStims/artist_shoot_boxer_r.jpg,audio/tomapikusidodoki.mp3,"残念！ こちらが正しい画像です。

否定文は起きていないことを示しているのを思い出してください。",,,,,,,,,,,,,,,,,,,,,,,,,,,,,,,,,,,,,,,,,,
,,,,,,,,,R_2YAoSy7VJV3YAYv,2022-06-24_23h24.19.600,jpn_C01,2022.1.2,Linux x86_64,60.0024001,,,,,,,,,,,,,,,,,right,1,2.848,,,,,,,,,,,,,,,,,,0,0,0,0,1,,,,,,,,,,,,,,,,,,,,,,,,,,,,,,,,,,,,,
,,,,,,,,,R_2YAoSy7VJV3YAYv,2022-06-24_23h24.19.600,jpn_C01,2022.1.2,Linux x86_64,60.0024001,,,,,,,,,,,,,,,,,,,,,,,,,0,7,7,7,1,CartoonStims/cowboy_point_chef_r.jpg,ピク　トマ　ムク　ホレト,CartoonStims/cowboy_kick_chef_r.jpg,right,CartoonStims/cowboy_kick_chef_r.jpg,audio/pikutomamukuhoreto.mp3,"残念！ こちらが正しい画像です。

否定文は起きていないことを示しているのを思い出してください。",,,,,,,,,,,,,,,,,,,,,,,,,,,,,,,,,,,,,,,,,,
,,,,,,,,,R_2YAoSy7VJV3YAYv,2022-06-24_23h24.19.600,jpn_C01,2022.1.2,Linux x86_64,60.0024001,,,,,,,,,,,,,,,,,right,1,1.3223,,,,,,,,,,,,,,,,,,0,0,0,0,1,,,,,,,,,,,,,,,,,,,,,,,,,,,,,,,,,,,,,
,,,,,,,,,R_2YAoSy7VJV3YAYv,2022-06-24_23h24.19.600,jpn_C01,2022.1.2,Linux x86_64,60.0024001,,,,,,,,,,,,,,,,,,,,,,,,,0,8,8,11,1,CartoonStims/chef_shoot_burglar_r.jpg,パツ　ピク　ホレト　ルピン,CartoonStims/chef_kick_burglar_r.jpg,right,CartoonStims/chef_kick_burglar_r.jpg,audio/patsupikuhoretolupin.mp3,"残念！ こちらが正しい画像です。

否定文は起きていないことを示しているのを思い出してください。",,,,,,,,,,,,,,,,,,,,,,,,,,,,,,,,,,,,,,,,,,
,,,,,,,,,R_2YAoSy7VJV3YAYv,2022-06-24_23h24.19.600,jpn_C01,2022.1.2,Linux x86_64,60.0024001,,,,,,,,,,,,,,,,,left,1,1.8258,0,0,0,0,1,,,,,,,,,,,,,,,,,,,,,,,,,,,,,,,,,,,,,,,,,,,,,,,,,,,,,,
,,,,,,,,,R_2YAoSy7VJV3YAYv,2022-06-24_23h24.19.600,jpn_C01,2022.1.2,Linux x86_64,60.0024001,,,,,,,,,,,,,,,,,,,,,,,,,0,9,9,10,1,CartoonStims/doctor_punch_cowboy_r.jpg,ピク　パツ　ピポ　ムク,CartoonStims/doctor_shoot_cowboy_r.jpg,left,CartoonStims/doctor_punch_cowboy_r.jpg,audio/pikupatsupipomuku.mp3,"残念！ こちらが正しい画像です。

否定文は起きていないことを示しているのを思い出してください。",,,,,,,,,,,,,,,,,,,,,,,,,,,,,,,,,,,,,,,,,,
,,,,,,,,,R_2YAoSy7VJV3YAYv,2022-06-24_23h24.19.600,jpn_C01,2022.1.2,Linux x86_64,60.0024001,,,,,,,,,,,,,,,,,left,1,2.3399,0,0,0,0,1,,,,,,,,,,,,,,,,,,,,,,,,,,,,,,,,,,,,,,,,,,,,,,,,,,,,,,
,,,,,,,,,R_2YAoSy7VJV3YAYv,2022-06-24_23h24.19.600,jpn_C01,2022.1.2,Linux x86_64,60.0024001,,,,,,,,,,,,,,,,,,,,,,,,,0,10,10,0,1,CartoonStims/artist_shoot_burglar_r.jpg,ピク　プミ　シド　ルピン,CartoonStims/artist_punch_burglar_r.jpg,left,CartoonStims/artist_shoot_burglar_r.jpg,audio/pikupumisidolupin.mp3,"残念！ こちらが正しい画像です。

否定文は起きていないことを示しているのを思い出してください。",,,,,,,,,,,,,,,,,,,,,,,,,,,,,,,,,,,,,,,,,,
,,,,,,,,,R_2YAoSy7VJV3YAYv,2022-06-24_23h24.19.600,jpn_C01,2022.1.2,Linux x86_64,60.0024001,,,,,,,,,,,,,,,,,right,1,1.0565,,,,,,,,,,,,,,,,,,0,0,0,0,1,,,,,,,,,,,,,,,,,,,,,,,,,,,,,,,,,,,,,
,,,,,,,,,R_2YAoSy7VJV3YAYv,2022-06-24_23h24.19.600,jpn_C01,2022.1.2,Linux x86_64,60.0024001,,,,,,,,,,,,,,,,,,,,,,,,,0,11,11,3,1,CartoonStims/chef_kick_artist_r.jpg,ピク　セル　ホレト　シド,CartoonStims/chef_point_artist_r.jpg,right,CartoonStims/chef_point_artist_r.jpg,audio/pikuseruhoretosido.mp3,"残念！ こちらが正しい画像です。

否定文は起きていないことを示しているのを思い出してください。",,,,,,,,,,,,,,,,,,,,,,,,,,,,,,,,,,,,,,,,,,
,,,,,,,,,R_2YAoSy7VJV3YAYv,2022-06-24_23h24.19.600,jpn_C01,2022.1.2,Linux x86_64,60.0024001,,,,,,,,,,,,,CartoonStims/doctor_point_boxer_r_no.jpg,,,,,,,,,,,,,,,,,,,,,,,,,,,,,space,3.9001,トマ　ピク　ピポ　ドキ,right,21.9898,,,,,,0,0,0,10,1,,,,,,,,,,,,,,,,,,,,ピク　トマ　ピポ　ドキ,トマ　ピク　ピポ　ドキ,1
,,,,,,,,,R_2YAoSy7VJV3YAYv,2022-06-24_23h24.19.600,jpn_C01,2022.1.2,Linux x86_64,60.0024001,,,,,,,,,,,,,CartoonStims/cowboy_kick_chef_r_no.jpg,,,,,,,,,,,,,,,,,,,,,,,,,,,,,,,セル　ピク　ムク　ホレト,right,12.1266,,,,,,0,1,1,3,1,,,,,,,,,,,,,,,,,,,,ピク　セル　ムク　ホレト,セル　ピク　ムク　ホレト,1
,,,,,,,,,R_2YAoSy7VJV3YAYv,2022-06-24_23h24.19.600,jpn_C01,2022.1.2,Linux x86_64,60.0024001,,,,,,,,,,,,,CartoonStims/artist_point_burglar_r_no.jpg,,,,,,,,,,,,,,,,,,,,,,,,,,,,,,,トマ　ピク　シド　ルピン,right,11.0489,,,,,,0,2,2,6,1,,,,,,,,,,,,,,,,,,,,ピク　トマ　シド　ルピン,トマ　ピク　シド　ルピン,1
,,,,,,,,,R_2YAoSy7VJV3YAYv,2022-06-24_23h24.19.600,jpn_C01,2022.1.2,Linux x86_64,60.0024001,,,,,,,,,,,,,CartoonStims/doctor_kick_chef_r.jpg,,,,,,,,,,,,,,,,,,,,,,,,,,,,,,,セル　ピポ　ホレト,right,16.704,,,,,,0,3,3,25,1,,,,,,,,,,,,,,,,,,,,セル　ピポ　ホレト,セル　ピポ　ホレト,0
,,,,,,,,,R_2YAoSy7VJV3YAYv,2022-06-24_23h24.19.600,jpn_C01,2022.1.2,Linux x86_64,60.0024001,,,,,,,,,,,,,CartoonStims/artist_punch_burglar_r.jpg,,,,,,,,,,,,,,,,,,,,,,,,,,,,,,,プミ　シド　ルピン,right,11.2843,,,,,,0,4,4,33,1,,,,,,,,,,,,,,,,,,,,プミ　シド　ルピン,プミ　シド　ルピン,0
,,,,,,,,,R_2YAoSy7VJV3YAYv,2022-06-24_23h24.19.600,jpn_C01,2022.1.2,Linux x86_64,60.0024001,,,,,,,,,,,,,CartoonStims/boxer_punch_artist_r.jpg,,,,,,,,,,,,,,,,,,,,,,,,,,,,,,,プミ　ドキ　シド,right,12.6395,,,,,,0,5,5,35,1,,,,,,,,,,,,,,,,,,,,プミ　ドキ　シド,プミ　ドキ　シド,0
,,,,,,,,,R_2YAoSy7VJV3YAYv,2022-06-24_23h24.19.600,jpn_C01,2022.1.2,Linux x86_64,60.0024001,,,,,,,,,,,,,CartoonStims/burglar_shoot_chef_r.jpg,,,,,,,,,,,,,,,,,,,,,,,,,,,,,,,パツ　ルピン　ホレト,right,6.1221,,,,,,0,6,6,30,1,,,,,,,,,,,,,,,,,,,,パツ　ルピン　ホレト,パツ　ルピン　ホレト,0
,,,,,,,,,R_2YAoSy7VJV3YAYv,2022-06-24_23h24.19.600,jpn_C01,2022.1.2,Linux x86_64,60.0024001,,,,,,,,,,,,,CartoonStims/doctor_shoot_artist_r_no.jpg,,,,,,,,,,,,,,,,,,,,,,,,,,,,,,,パツ　ピク　ピポ　シド,right,11.9871,,,,,,0,7,7,16,1,,,,,,,,,,,,,,,,,,,,ピク　パツ　ピポ　シド,パツ　ピク　ピポ　シド,1
,,,,,,,,,R_2YAoSy7VJV3YAYv,2022-06-24_23h24.19.600,jpn_C01,2022.1.2,Linux x86_64,60.0024001,,,,,,,,,,,,,CartoonStims/cowboy_shoot_doctor_r.jpg,,,,,,,,,,,,,,,,,,,,,,,,,,,,,,,パツ　ムク　ピポ,right,5.6159,,,,,,0,8,8,32,1,,,,,,,,,,,,,,,,,,,,パツ　ムク　ピポ,パツ　ムク　ピポ,0
,,,,,,,,,R_2YAoSy7VJV3YAYv,2022-06-24_23h24.19.600,jpn_C01,2022.1.2,Linux x86_64,60.0024001,,,,,,,,,,,,,CartoonStims/doctor_kick_cowboy_r_no.jpg,,,,,,,,,,,,,,,,,,,,,,,,,,,,,,,セル　ピク　ピポ　ムク,right,12.2818,,,,,,0,9,9,4,1,,,,,,,,,,,,,,,,,,,,ピク　セル　ピポ　ムク,セル　ピク　ピポ　ムク,1
,,,,,,,,,R_2YAoSy7VJV3YAYv,2022-06-24_23h24.19.600,jpn_C01,2022.1.2,Linux x86_64,60.0024001,,,,,,,,,,,,,CartoonStims/cowboy_shoot_boxer_r_no.jpg,,,,,,,,,,,,,,,,,,,,,,,,,,,,,,,パツ　ピク　ムク　ドキ,right,14.2856,,,,,,0,10,10,15,1,,,,,,,,,,,,,,,,,,,,ピク　パツ　ムク　ドキ,パツ　ピク　ムク　ドキ,1
,,,,,,,,,R_2YAoSy7VJV3YAYv,2022-06-24_23h24.19.600,jpn_C01,2022.1.2,Linux x86_64,60.0024001,,,,,,,,,,,,,CartoonStims/boxer_kick_cowboy_r.jpg,,,,,,,,,,,,,,,,,,,,,,,,,,,,,,,セル　ドキ　ムク,right,5.819,,,,,,0,11,11,26,1,,,,,,,,,,,,,,,,,,,,セル　ドキ　ムク,セル　ドキ　ムク,0
,,,,,,,,,R_2YAoSy7VJV3YAYv,2022-06-24_23h24.19.600,jpn_C01,2022.1.2,Linux x86_64,60.0024001,,,,,,,,,,,,,CartoonStims/burglar_punch_doctor_r_no.jpg,,,,,,,,,,,,,,,,,,,,,,,,,,,,,,,プミ　ピク　ルピン　ピポ,right,15.3655,,,,,,0,12,12,19,1,,,,,,,,,,,,,,,,,,,,ピク　プミ　ルピン　ピポ,プミ　ピク　ルピン　ピポ,1
,,,,,,,,,R_2YAoSy7VJV3YAYv,2022-06-24_23h24.19.600,jpn_C01,2022.1.2,Linux x86_64,60.0024001,,,,,,,,,,,,,CartoonStims/chef_point_burglar_r.jpg,,,,,,,,,,,,,,,,,,,,,,,,,,,,,,,トマ　ホレト　ルピン,right,7.1748,,,,,,0,13,13,29,1,,,,,,,,,,,,,,,,,,,,トマ　ホレト　ルピン,トマ　ホレト　ルピン,0
,,,,,,,,,R_2YAoSy7VJV3YAYv,2022-06-24_23h24.19.600,jpn_C01,2022.1.2,Linux x86_64,60.0024001,,,,,,,,,,,,,CartoonStims/boxer_point_artist_r_no.jpg,,,,,,,,,,,,,,,,,,,,,,,,,,,,,,,トマ　ピク　ドキ　シド,right,9.1694,,,,,,0,14,14,11,1,,,,,,,,,,,,,,,,,,,,ピク　トマ　ドキ　シド,トマ　ピク　ドキ　シド,1
,,,,,,,,,R_2YAoSy7VJV3YAYv,2022-06-24_23h24.19.600,jpn_C01,2022.1.2,Linux x86_64,60.0024001,,,,,,,,,,,,,CartoonStims/burglar_shoot_cowboy_r_no.jpg,,,,,,,,,,,,,,,,,,,,,,,,,,,,,,,パツ　ピク　ルピン　ムク,right,16.3826,,,,,,0,15,15,13,1,,,,,,,,,,,,,,,,,,,,ピク　パツ　ルピン　ムク,パツ　ピク　ルピン　ムク,1
,,,,,,,,,R_2YAoSy7VJV3YAYv,2022-06-24_23h24.19.600,jpn_C01,2022.1.2,Linux x86_64,60.0024001,,,,,,,,,,,,,CartoonStims/boxer_shoot_burglar_r_no.jpg,,,,,,,,,,,,,,,,,,,,,,,,,,,,,,,パツ　ピク　ドキ　ルピン,right,14.8,,,,,,0,16,16,17,1,,,,,,,,,,,,,,,,,,,,ピク　パツ　ドキ　ルピン,パツ　ピク　ドキ　ルピン,1
,,,,,,,,,R_2YAoSy7VJV3YAYv,2022-06-24_23h24.19.600,jpn_C01,2022.1.2,Linux x86_64,60.0024001,,,,,,,,,,,,,CartoonStims/doctor_punch_burglar_r_no.jpg,,,,,,,,,,,,,,,,,,,,,,,,,,,,,,,プミ　ピク　ピポ　ルピン,right,13.7359,,,,,,0,17,17,22,1,,,,,,,,,,,,,,,,,,,,ピク　プミ　ピポ　ルピン,プミ　ピク　ピポ　ルピン,1
,,,,,,,,,R_2YAoSy7VJV3YAYv,2022-06-24_23h24.19.600,jpn_C01,2022.1.2,Linux x86_64,60.0024001,,,,,,,,,,,,,CartoonStims/cowboy_punch_artist_r_no.jpg,,,,,,,,,,,,,,,,,,,,,,,,,,,,,,,プミ　ピク　ムク　シド,right,26.4596,,,,,,0,18,18,21,1,,,,,,,,,,,,,,,,,,,,ピク　プミ　ムク　シド,プミ　ピク　ムク　シド,1
,,,,,,,,,R_2YAoSy7VJV3YAYv,2022-06-24_23h24.19.600,jpn_C01,2022.1.2,Linux x86_64,60.0024001,,,,,,,,,,,,,CartoonStims/boxer_punch_chef_r_no.jpg,,,,,,,,,,,,,,,,,,,,,,,,,,,,,,,プミ　ピク　ドキ　ホレト,right,12.5843,,,,,,0,19,19,23,1,,,,,,,,,,,,,,,,,,,,ピク　プミ　ドキ　ホレト,プミ　ピク　ドキ　ホレト,1
,,,,,,,,,R_2YAoSy7VJV3YAYv,2022-06-24_23h24.19.600,jpn_C01,2022.1.2,Linux x86_64,60.0024001,,,,,,,,,,,,,CartoonStims/artist_point_boxer_r.jpg,,,,,,,,,,,,,,,,,,,,,,,,,,,,,,,トマ　シド　ドキ,right,14.798,,,,,,0,20,20,27,1,,,,,,,,,,,,,,,,,,,,トマ　シド　ドキ,トマ　シド　ドキ,0
,,,,,,,,,R_2YAoSy7VJV3YAYv,2022-06-24_23h24.19.600,jpn_C01,2022.1.2,Linux x86_64,60.0024001,,,,,,,,,,,,,CartoonStims/burglar_kick_artist_r_no.jpg,,,,,,,,,,,,,,,,,,,,,,,,,,,,,,,シク　ピク　ルピン　シド,right,26.8327,,,,,,0,21,21,1,1,,,,,,,,,,,,,,,,,,,,ピク　セル　ルピン　シド,セル　ピク　ルピン　シド,1
,,,,,,,,,R_2YAoSy7VJV3YAYv,2022-06-24_23h24.19.600,jpn_C01,2022.1.2,Linux x86_64,60.0024001,,,,,,,,,,,,,CartoonStims/cowboy_point_doctor_r_no.jpg,,,,,,,,,,,,,,,,,,,,,,,,,,,,,,,トマ　ピク　ムク　ピポ,right,6.7841,,,,,,0,22,22,9,1,,,,,,,,,,,,,,,,,,,,ピク　トマ　ムク　ピポ,トマ　ピク　ムク　ピポ,1
,,,,,,,,,R_2YAoSy7VJV3YAYv,2022-06-24_23h24.19.600,jpn_C01,2022.1.2,Linux x86_64,60.0024001,,,,,,,,,,,,,CartoonStims/artist_punch_cowboy_r_no.jpg,,,,,,,,,,,,,,,,,,,,,,,,,,,,,,,プミ　ピク　シド　ムク,right,16.0176,,,,,,0,23,23,18,1,,,,,,,,,,,,,,,,,,,,ピク　プミ　シド　ムク,プミ　ピク　シド　ムク,1
,,,,,,,,,R_2YAoSy7VJV3YAYv,2022-06-24_23h24.19.600,jpn_C01,2022.1.2,Linux x86_64,60.0024001,,,,,,,,,,,,,CartoonStims/burglar_point_artist_r.jpg,,,,,,,,,,,,,,,,,,,,,,,,,,,,,,,トマ　ルピン　シド,right,13.7834,,,,,,0,24,24,28,1,,,,,,,,,,,,,,,,,,,,トマ　ルピン　シド,トマ　ルピン　シド,0
,,,,,,,,,R_2YAoSy7VJV3YAYv,2022-06-24_23h24.19.600,jpn_C01,2022.1.2,Linux x86_64,60.0024001,,,,,,,,,,,,,CartoonStims/cowboy_kick_burglar_r.jpg,,,,,,,,,,,,,,,,,,,,,,,,,,,,,,,シク　ムク　ルピン,right,14.7857,,,,,,0,25,25,24,1,,,,,,,,,,,,,,,,,,,,セル　ムク　ルピン,セル　ムク　ルピン,0
,,,,,,,,,R_2YAoSy7VJV3YAYv,2022-06-24_23h24.19.600,jpn_C01,2022.1.2,Linux x86_64,60.0024001,,,,,,,,,,,,,CartoonStims/chef_shoot_cowboy_r.jpg,,,,,,,,,,,,,,,,,,,,,,,,,,,,,,,パツ　ホレト　ムク,right,6.3145,,,,,,0,26,26,31,1,,,,,,,,,,,,,,,,,,,,パツ　ホレト　ムク,パツ　ホレト　ムク,0
,,,,,,,,,R_2YAoSy7VJV3YAYv,2022-06-24_23h24.19.600,jpn_C01,2022.1.2,Linux x86_64,60.0024001,,,,,,,,,,,,,CartoonStims/artist_kick_boxer_r_no.jpg,,,,,,,,,,,,,,,,,,,,,,,,,,,,,,,シク　ピク　シド　ドキ,right,18.0153,,,,,,0,27,27,0,1,,,,,,,,,,,,,,,,,,,,ピク　セル　シド　ドキ,セル　ピク　シド　ドキ,1
,,,,,,,,,R_2YAoSy7VJV3YAYv,2022-06-24_23h24.19.600,jpn_C01,2022.1.2,Linux x86_64,60.0024001,,,,,,,,,,,,,CartoonStims/artist_shoot_chef_r_no.jpg,,,,,,,,,,,,,,,,,,,,,,,,,,,,,,,パツ　ピク　シド　ホレト,right,14.2136,,,,,,0,28,28,12,1,,,,,,,,,,,,,,,,,,,,ピク　パツ　シド　ホレト,パツ　ピク　シド　ホレト,1
,,,,,,,,,R_2YAoSy7VJV3YAYv,2022-06-24_23h24.19.600,jpn_C01,2022.1.2,Linux x86_64,60.0024001,,,,,,,,,,,,,CartoonStims/chef_shoot_doctor_r_no.jpg,,,,,,,,,,,,,,,,,,,,,,,,,,,,,,,パツ　ピク　ホレト　ピポ,right,12.5357,,,,,,0,29,29,14,1,,,,,,,,,,,,,,,,,,,,ピク　パツ　ホレト　ピポ,パツ　ピク　ホレト　ピポ,1
,,,,,,,,,R_2YAoSy7VJV3YAYv,2022-06-24_23h24.19.600,jpn_C01,2022.1.2,Linux x86_64,60.0024001,,,,,,,,,,,,,CartoonStims/boxer_kick_doctor_r_no.jpg,,,,,,,,,,,,,,,,,,,,,,,,,,,,,,,シク　ピク　ドキ　ピポ,right,9.2232,,,,,,0,30,30,5,1,,,,,,,,,,,,,,,,,,,,ピク　セル　ドキ　ピポ,セル　ピク　ドキ　ピポ,1
,,,,,,,,,R_2YAoSy7VJV3YAYv,2022-06-24_23h24.19.600,jpn_C01,2022.1.2,Linux x86_64,60.0024001,,,,,,,,,,,,,CartoonStims/chef_punch_boxer_r_no.jpg,,,,,,,,,,,,,,,,,,,,,,,,,,,,,,,プミ　ピク　ホレト　ドキ,right,13.1736,,,,,,0,31,31,20,1,,,,,,,,,,,,,,,,,,,,ピク　プミ　ホレト　ドキ,プミ　ピク　ホレト　ドキ,1
,,,,,,,,,R_2YAoSy7VJV3YAYv,2022-06-24_23h24.19.600,jpn_C01,2022.1.2,Linux x86_64,60.0024001,,,,,,,,,,,,,CartoonStims/burglar_point_chef_r_no.jpg,,,,,,,,,,,,,,,,,,,,,,,,,,,,,,,トマ　ピク　ルピン　ホレト,right,14.7341,,,,,,0,32,32,7,1,,,,,,,,,,,,,,,,,,,,ピク　トマ　ルピン　ホレト,トマ　ピク　ルピン　ホレト,1
,,,,,,,,,R_2YAoSy7VJV3YAYv,2022-06-24_23h24.19.600,jpn_C01,2022.1.2,Linux x86_64,60.0024001,,,,,,,,,,,,,CartoonStims/doctor_punch_boxer_r.jpg,,,,,,,,,,,,,,,,,,,,,,,,,,,,,,,プミ　ピポ　ドキ,right,7.4825,,,,,,0,33,33,34,1,,,,,,,,,,,,,,,,,,,,プミ　ピポ　ドキ,プミ　ピポ　ドキ,0
,,,,,,,,,R_2YAoSy7VJV3YAYv,2022-06-24_23h24.19.600,jpn_C01,2022.1.2,Linux x86_64,60.0024001,,,,,,,,,,,,,CartoonStims/chef_kick_burglar_r_no.jpg,,,,,,,,,,,,,,,,,,,,,,,,,,,,,,,シク　ピク　ホレト　ルピン,right,13.7675,,,,,,0,34,34,2,1,,,,,,,,,,,,,,,,,,,,ピク　セル　ホレト　ルピン,セル　ピク　ホレト　ルピン,1
,,,,,,,,,R_2YAoSy7VJV3YAYv,2022-06-24_23h24.19.600,jpn_C01,2022.1.2,Linux x86_64,60.0024001,,,,,,,,,,,,,CartoonStims/chef_point_cowboy_r_no.jpg,,,,,,,,,,,,,,,,,,,,,,,,,,,,,,,トマ　ピク　ホレト　ムク,right,10.5408,,,,,,0,35,35,8,1,,,,,,,,,,,,,,,,,,,,ピク　トマ　ホレト　ムク,トマ　ピク　ホレト　ムク,1
,,,,,,,,,R_2YAoSy7VJV3YAYv,2022-06-24_23h24.19.600,jpn_C01,2022.1.2,Linux x86_64,60.0024001,,,,,,,,,,,,,,,,,,,,,,,,,,,,,,,,,,,,,,,,,,,,,,,,,,,,,,,,,,,space,0.6108,0,2,2,2,1,EquiprobableCondition.xlsx,"ここではこの言語における否定の文を学習していただきます。引き続き注意して、 聞こえた音を復唱してください。

スペースキーを押してください。",1,EquiFCT.xlsx,ここからクイズが始まります。 スクリーンに表示されるテキストに合うイメージを選んでください。,NegTest.xlsx,1,最後にここまで学んだことをアウトプットしていただきます。 テキストボックスにあるイメージを描写するテキストを入力してください。 このタスクでは、 答え合わせは行いません。,0,これですべての実験が終わりました。 お疲れさまです。 この後はアンケートに答えていただきます。,,,